##TITLE=PENTANE, 2-METHYL-
##JCAMP-DX=4.24
##DATA TYPE=INFRARED SPECTRUM
##CLASS=COBLENTZ III
##ORIGIN=DOW CORNING CORP.
##OWNER=COBLENTZ SOCIETY
Collection (C) 2018 copyright by the U.S. Secretary of Commerce
on behalf of the United States of America. All rights reserved.
##DATE=1966
##NAMES=2-methylpentane
##CAS REGISTRY NO=107-83-5
##MOLFORM=C6 H14
##SOURCE REFERENCE=COBLENTZ NO. 4768
##$NIST SOURCE=COBLENTZ
##$NIST IMAGE=cob4768
##SPECTROMETER/DATA SYSTEM=PERKIN-ELMER 521 (GRATING)
##INSTRUMENT PARAMETERS=FILTERS AT 3150, 2500, 2000, 1150, 700, 410; GRATING CHANGES AT 2000, 630 CM^-^1
##STATE=SOLUTION (10% IN CCl4 FOR 3800-1300, 10% IN CS2 FOR 1300-650, AND 10% CCl4 FOR 650-240 CM^-^1) VERSUS SOLVENT
##PATH LENGTH=0.012, 0.012,AND 0.011 CM (CsBr CELL)
##SAMPLING PROCEDURE=TRANSMISSION
##RESOLUTION=4
##DATA PROCESSING=DIGITIZED BY NIST FROM HARD COPY (FROM TWO SEGMENTS)
##XUNITS=1/CM
##YUNITS=TRANSMITTANCE
##XFACTOR=1.000000
##YFACTOR=1
##DELTAX=1.278409
##FIRSTX=235.795
##LASTX=3793.61
##FIRSTY=0.947
##MAXX=3793.61
##MINX=235.795
##MAXY=0.949
##MINY=0
##NPOINTS=2784
##XYDATA=(X++(Y..Y))
235.795000 0.9470 0.9470 0.9470 0.9450 0.9440
242.187047 0.9440 0.9420 0.9420 0.9420 0.9400
248.579094 0.9400 0.9400 0.9380 0.9380 0.9380
254.971141 0.9380 0.9380 0.9380 0.9400 0.9400
261.363188 0.9350 0.9350 0.9370 0.9380 0.9380
267.755236 0.9380 0.9380 0.9380 0.9380 0.9380
274.147283 0.9380 0.9400 0.9420 0.9420 0.9420
280.539330 0.9420 0.9420 0.9380 0.9380 0.9370
286.931377 0.9350 0.9330 0.9380 0.9370 0.9350
293.323424 0.9350 0.9350 0.9310 0.9310 0.9300
299.715471 0.9280 0.9240 0.9210 0.9190 0.9170
306.107518 0.9170 0.9170 0.9170 0.9140 0.9100
312.499565 0.9090 0.9090 0.9070 0.9100 0.9140
318.891612 0.9120 0.9100 0.9090 0.9090 0.9070
325.283659 0.9090 0.9100 0.9100 0.9100 0.9100
331.675707 0.9100 0.9100 0.9090 0.9090 0.9090
338.067754 0.9100 0.9090 0.9090 0.9090 0.9090
344.459801 0.9090 0.9090 0.9140 0.9140 0.9160
350.851848 0.9170 0.9190 0.9190 0.9170 0.9160
357.243895 0.9120 0.9100 0.9100 0.9120 0.9120
363.635942 0.9120 0.9120 0.9100 0.9100 0.9140
370.027989 0.9140 0.9140 0.9140 0.9100 0.9090
376.420036 0.9070 0.9050 0.9070 0.9070 0.9100
382.812083 0.9140 0.9140 0.9160 0.9170 0.9170
389.204130 0.9170 0.9190 0.9210 0.9230 0.9230
395.596178 0.9240 0.9260 0.9260 0.9280 0.9300
401.988225 0.9300 0.9300 0.9300 0.9310 0.9310
408.380272 0.9330 0.9350 0.9370 0.9370 0.9380
414.772319 0.9400 0.9440 0.9450 0.9450 0.9450
421.164366 0.9470 0.9490 0.9490 0.9490 0.9470
427.556413 0.9440 0.9440 0.9440 0.9440 0.9440
433.948460 0.9440 0.9450 0.9440 0.9440 0.9420
440.340507 0.9380 0.9370 0.9370 0.9330 0.9330
446.732554 0.9370 0.9370 0.9370 0.9370 0.9370
453.124601 0.9350 0.9350 0.9350 0.9350 0.9330
459.516649 0.9310 0.9310 0.9350 0.9330 0.9310
465.908696 0.9310 0.9310 0.9310 0.9300 0.9300
472.300743 0.9280 0.9260 0.9240 0.9240 0.9240
478.692790 0.9230 0.9230 0.9240 0.9240 0.9240
485.084837 0.9260 0.9300 0.9300 0.9260 0.9240
491.476884 0.9230 0.9210 0.9210 0.9240 0.9210
497.868931 0.9210 0.9190 0.9190 0.9240 0.9280
504.260978 0.9280 0.9240 0.9230 0.9230 0.9230
510.653025 0.9240 0.9260 0.9280 0.9210 0.9170
517.045072 0.9160 0.9160 0.9160 0.9120 0.9120
523.437120 0.9120 0.9120 0.9100 0.9140 0.9120
529.829167 0.9120 0.9120 0.9120 0.9120 0.9120
536.221214 0.9120 0.9120 0.9120 0.9120 0.9120
542.613261 0.9140 0.9140 0.9120 0.9100 0.9120
549.005308 0.9140 0.9140 0.9160 0.9160 0.9160
555.397355 0.9160 0.9160 0.9140 0.9140 0.9170
561.789402 0.9170 0.9170 0.9190 0.9170 0.9210
568.181449 0.9210 0.9210 0.9230 0.9240 0.9240
574.573496 0.9240 0.9240 0.9260 0.9280 0.9280
580.965543 0.9300 0.9310 0.9310 0.9310 0.9300
587.357591 0.9300 0.9300 0.9280 0.9300 0.9330
593.749638 0.9350 0.9300 0.9350 0.9370 0.9370
600.141685 0.9370 0.9310 0.9310 0.9300 0.9300
606.533732 0.9310 0.9310 0.9310 0.9310 0.9350
612.925779 0.9350 0.9350 0.9350 0.9370 0.9370
619.317826 0.9310 0.9280 0.9300 0.9300 0.9300
625.709873 0.9300 0.9300 0.9300 0.9310 0.9350
632.101920 0.9350 0.9310 0.9310 0.9300 0.9300
638.493967 0.9300 0.9300 0.9280 0.9280 0.9280
644.886014 0.9280 0.9260 0.9260 0.9240 0.9090
651.278062 0.8911 0.8840 0.8810 0.8790 0.8750
657.670109 0.8740 0.8740 0.8670 0.8630 0.8560
664.062156 0.8560 0.8650 0.8700 0.8770 0.8820
670.454203 0.8860 0.8880 0.8890 0.8890 0.8890
676.846250 0.8890 0.8890 0.8890 0.8890 0.8890
683.238297 0.8880 0.8860 0.8860 0.8880 0.8880
689.630344 0.8880 0.8880 0.8880 0.8860 0.8860
696.022391 0.8880 0.8880 0.8890 0.8890 0.8890
702.414438 0.8860 0.8840 0.8840 0.8860 0.8860
708.806486 0.8860 0.8860 0.8840 0.8840 0.8820
715.198533 0.8820 0.8820 0.8810 0.8770 0.8720
721.590580 0.8680 0.8580 0.8540 0.8470 0.8350
727.982627 0.8211 0.8160 0.7702 0.7601 0.7481
734.374674 0.7200 0.7080 0.6920 0.6780 0.6780
740.766721 0.7159 0.7528 0.7809 0.8277 0.8369
747.158768 0.8540 0.8580 0.8650 0.8680 0.8770
753.550815 0.8790 0.8790 0.8820 0.8840 0.8840
759.942862 0.8880 0.8890 0.8910 0.8930 0.8950
766.334909 0.8950 0.8960 0.8930 0.8930 0.8910
772.726957 0.8910 0.8930 0.8930 0.8910 0.8910
779.119004 0.8910 0.8880 0.8880 0.8860 0.8860
785.511051 0.8860 0.8860 0.8860 0.8860 0.8840
791.903098 0.8820 0.8820 0.8820 0.8810 0.8810
798.295145 0.8810 0.8790 0.8770 0.8750 0.8680
804.687192 0.8670 0.8630 0.8540 0.8470 0.8301
811.079239 0.8090 0.7910 0.7910 0.8109 0.8120
817.471286 0.8259 0.8369 0.8459 0.8599 0.8630
823.863333 0.8650 0.8670 0.8720 0.8790 0.8810
830.255380 0.8820 0.8840 0.8840 0.8840 0.8840
836.647428 0.8860 0.8890 0.8910 0.8950 0.8950
843.039475 0.8930 0.8930 0.8860 0.8820 0.8770
849.431522 0.8720 0.8610 0.8370 0.8250 0.8120
855.823569 0.8120 0.8110 0.8329 0.8529 0.8540
862.215616 0.8580 0.8600 0.8650 0.8610 0.8630
868.607663 0.8650 0.8650 0.8650 0.8670 0.8670
874.999710 0.8630 0.8580 0.8510 0.8420 0.8390
881.391757 0.8350 0.8330 0.8350 0.8390 0.8390
887.783804 0.8400 0.8400 0.8420 0.8460 0.8530
894.175851 0.8600 0.8650 0.8680 0.8740 0.8790
900.567899 0.8820 0.8790 0.8750 0.8740 0.8700
906.959946 0.8610 0.8540 0.8530 0.8460 0.8351
913.351993 0.8040 0.7740 0.7670 0.7600 0.7600
919.744040 0.8048 0.8249 0.8389 0.8559 0.8630
926.136087 0.8650 0.8650 0.8650 0.8610 0.8530
932.528134 0.8460 0.8390 0.8330 0.8300 0.8280
938.920181 0.8300 0.8320 0.8350 0.8390 0.8390
945.312228 0.8330 0.8250 0.8210 0.8021 0.7861
951.704275 0.7630 0.7410 0.7360 0.7480 0.7669
958.096322 0.7949 0.8139 0.8329 0.8578 0.8610
964.488370 0.8630 0.8670 0.8680 0.8680 0.8700
970.880417 0.8700 0.8720 0.8720 0.8720 0.8740
977.272464 0.8740 0.8740 0.8740 0.8740 0.8740
983.664511 0.8720 0.8720 0.8700 0.8680 0.8680
990.056558 0.8670 0.8650 0.8630 0.8610 0.8600
996.448605 0.8600 0.8580 0.8560 0.8540 0.8510
1002.840652 0.8490 0.8470 0.8320 0.8320 0.8370
1009.232699 0.8420 0.8440 0.8440 0.8440 0.8460
1015.624746 0.8460 0.8510 0.8510 0.8470 0.8460
1022.016793 0.8420 0.8400 0.8370 0.8350 0.8330
1028.408841 0.8330 0.8280 0.8250 0.8190 0.8180
1034.800888 0.8190 0.8230 0.8280 0.8330 0.8400
1041.192935 0.8460 0.8460 0.8440 0.8440 0.8440
1047.584982 0.8440 0.8440 0.8400 0.8370 0.8330
1053.977029 0.8300 0.8280 0.8250 0.8230 0.8230
1060.369076 0.8210 0.8210 0.8210 0.8210 0.8230
1066.761123 0.8250 0.8260 0.8330 0.8370 0.8400
1073.153170 0.8460 0.8460 0.8460 0.8460 0.8470
1079.545217 0.8490 0.8490 0.8470 0.8470 0.8470
1085.937264 0.8470 0.8470 0.8470 0.8510 0.8530
1092.329312 0.8540 0.8560 0.8560 0.8580 0.8580
1098.721359 0.8600 0.8600 0.8580 0.8540 0.8530
1105.113406 0.8530 0.8540 0.8540 0.8540 0.8540
1111.505453 0.8530 0.8530 0.8530 0.8540 0.8540
1117.897500 0.8530 0.8510 0.8510 0.8470 0.8390
1124.289547 0.8330 0.8320 0.8300 0.8280 0.8250
1130.681594 0.8230 0.8140 0.7930 0.7840 0.7770
1137.073641 0.7650 0.7511 0.7271 0.6972 0.6692
1143.465688 0.6690 0.6920 0.7289 0.7509 0.7550
1149.857736 0.7550 0.7550 0.7530 0.7510 0.7500
1156.249783 0.7460 0.7430 0.7320 0.7150 0.6921
1162.641830 0.6571 0.6321 0.6290 0.6310 0.6479
1169.033877 0.6660 0.6780 0.7339 0.7719 0.7949
1175.425924 0.8040 0.8179 0.8250 0.8330 0.8400
1181.817971 0.8460 0.8530 0.8560 0.8600 0.8630
1188.210018 0.8670 0.8670 0.8670 0.8650 0.8650
1194.602065 0.8650 0.8630 0.8630 0.8630 0.8670
1200.994112 0.8700 0.8700 0.8700 0.8680 0.8680
1207.386159 0.8680 0.8670 0.8670 0.8650 0.8650
1213.778207 0.8630 0.8630 0.8630 0.8610 0.8610
1220.170254 0.8600 0.8580 0.8560 0.8530 0.8510
1226.562301 0.8470 0.8370 0.8350 0.8231 0.8002
1232.954348 0.7930 0.7900 0.7910 0.7970 0.8020
1239.346395 0.8140 0.8230 0.8300 0.8320 0.8320
1245.738442 0.8320 0.8320 0.8320 0.8320 0.8300
1252.130489 0.8300 0.8280 0.8260 0.8250 0.8190
1258.522536 0.8180 0.8140 0.8110 0.8090 0.8070
1264.914583 0.8050 0.8050 0.8090 0.8120 0.8160
1271.306630 0.8190 0.8230 0.8260 0.8280 0.8300
1277.698678 0.8300 0.8280 0.8280 0.8260 0.8250
1284.090725 0.8190 0.8140 0.8120 0.8070 0.8050
1290.482772 0.8020 0.8000 0.7980 0.7980 0.7970
1296.874819 0.7970 0.7980 0.8110 0.8320 0.8579
1303.266866 0.8610 0.8630 0.8630 0.8610 0.8610
1309.658913 0.8610 0.8580 0.8530 0.8530 0.8331
1316.050960 0.8191 0.8140 0.8041 0.7931 0.7860
1322.443007 0.7830 0.7840 0.7840 0.7880 0.7880
1328.835054 0.7840 0.7810 0.7760 0.7760 0.7790
1335.227101 0.7840 0.7880 0.7910 0.7910 0.7880
1341.619149 0.7860 0.7840 0.7810 0.7770 0.7760
1348.011196 0.7690 0.7530 0.7300 0.6871 0.6481
1354.403243 0.6321 0.5962 0.5453 0.5032 0.4374
1360.795290 0.3091 0.2760 0.2760 0.4156 0.5495
1367.187337 0.5779 0.5780 0.5502 0.5103 0.4594
1373.579384 0.4370 0.4350 0.3512 0.2363 0.2360
1379.971431 0.2619 0.3605 0.4416 0.5304 0.6075
1386.363478 0.6660 0.6970 0.7090 0.7339 0.7509
1392.755525 0.7580 0.7580 0.7689 0.7700 0.7720
1399.147572 0.7720 0.7740 0.7760 0.7760 0.7760
1405.539620 0.7760 0.7770 0.7790 0.7810 0.7810
1411.931667 0.7830 0.7830 0.7840 0.7830 0.7700
1418.323714 0.7700 0.7620 0.7580 0.7361 0.7290
1424.715761 0.7270 0.7250 0.7130 0.7020 0.6801
1431.107808 0.6601 0.6391 0.6291 0.6101 0.5961
1437.499855 0.5780 0.5520 0.5191 0.4661 0.4092
1443.891902 0.3891 0.3422 0.2952 0.2741 0.2273
1450.283949 0.2020 0.1940 0.1870 0.1760 0.1501
1456.675996 0.1390 0.1241 0.1101 0.0941 0.0801
1463.068043 0.0800 0.0970 0.1150 0.1599 0.2198
1469.460091 0.2768 0.3596 0.5192 0.5548 0.5888
1475.852138 0.6310 0.6600 0.6710 0.7009 0.7249
1482.244185 0.7439 0.7480 0.7560 0.7600 0.7699
1488.636232 0.7760 0.7810 0.7930 0.8070 0.8070
1495.028279 0.8120 0.8190 0.8230 0.8300 0.8320
1501.420326 0.8390 0.8460 0.8490 0.8510 0.8530
1507.812373 0.8530 0.8530 0.8510 0.8530 0.8600
1514.204420 0.8600 0.8610 0.8610 0.8630 0.8630
1520.596467 0.8630 0.8630 0.8610 0.8630 0.8650
1526.988514 0.8700 0.8700 0.8680 0.8670 0.8670
1533.380562 0.8650 0.8630 0.8630 0.8610 0.8610
1539.772609 0.8610 0.8580 0.8580 0.8600 0.8610
1546.164656 0.8610 0.8610 0.8650 0.8670 0.8700
1552.556703 0.8720 0.8700 0.8720 0.8740 0.8750
1558.948750 0.8750 0.8770 0.8750 0.8750 0.8740
1565.340797 0.8750 0.8770 0.8770 0.8770 0.8750
1571.732844 0.8750 0.8750 0.8750 0.8750 0.8770
1578.124891 0.8790 0.8810 0.8810 0.8840 0.8840
1584.516938 0.8840 0.8840 0.8840 0.8840 0.8840
1590.908986 0.8860 0.8860 0.8860 0.8840 0.8840
1597.301033 0.8840 0.8840 0.8840 0.8840 0.8840
1603.693080 0.8840 0.8860 0.8860 0.8860 0.8860
1610.085127 0.8860 0.8840 0.8840 0.8840 0.8820
1616.477174 0.8820 0.8820 0.8820 0.8820 0.8840
1622.869221 0.8840 0.8840 0.8840 0.8820 0.8820
1629.261268 0.8810 0.8810 0.8840 0.8840 0.8840
1635.653315 0.8840 0.8820 0.8820 0.8810 0.8840
1642.045362 0.8840 0.8840 0.8840 0.8840 0.8820
1648.437409 0.8820 0.8810 0.8790 0.8790 0.8770
1654.829457 0.8770 0.8770 0.8770 0.8790 0.8790
1661.221504 0.8820 0.8820 0.8810 0.8810 0.8810
1667.613551 0.8810 0.8810 0.8810 0.8810 0.8790
1674.005598 0.8790 0.8810 0.8820 0.8820 0.8820
1680.397645 0.8820 0.8840 0.8840 0.8840 0.8820
1686.789692 0.8820 0.8820 0.8820 0.8840 0.8840
1693.181739 0.8820 0.8820 0.8820 0.8820 0.8820
1699.573786 0.8840 0.8840 0.8860 0.8860 0.8860
1705.965833 0.8860 0.8860 0.8860 0.8880 0.8880
1712.357880 0.8880 0.8880 0.8880 0.8880 0.8910
1718.749928 0.8910 0.8910 0.8930 0.8930 0.8950
1725.141975 0.8950 0.8950 0.8960 0.8960 0.8950
1731.534022 0.8950 0.8950 0.8950 0.8950 0.8950
1737.926069 0.8950 0.8950 0.8950 0.8960 0.8960
1744.318116 0.8950 0.8950 0.8950 0.8950 0.8960
1750.710163 0.8930 0.8930 0.8950 0.8950 0.8950
1757.102210 0.8930 0.8930 0.8930 0.8950 0.8950
1763.494257 0.8930 0.8930 0.8930 0.8950 0.8950
1769.886304 0.8950 0.8960 0.8980 0.9000 0.9000
1776.278351 0.9000 0.9000 0.8980 0.8980 0.8980
1782.670399 0.8980 0.8980 0.8980 0.8980 0.8980
1789.062446 0.8980 0.8980 0.9000 0.9000 0.9020
1795.454493 0.9030 0.9050 0.9050 0.9030 0.9030
1801.846540 0.9030 0.9020 0.9020 0.9030 0.9030
1808.238587 0.9050 0.9050 0.9020 0.9020 0.9020
1814.630634 0.9000 0.9000 0.8980 0.8980 0.8980
1821.022681 0.8980 0.8980 0.9000 0.9000 0.9000
1827.414728 0.9000 0.9020 0.8950 0.9020 0.9020
1833.806775 0.9020 0.9020 0.9020 0.9030 0.9020
1840.198822 0.9020 0.9020 0.9020 0.9030 0.9020
1846.590870 0.9020 0.9000 0.9000 0.9030 0.9030
1852.982917 0.9030 0.9030 0.9030 0.9030 0.9030
1859.374964 0.9030 0.9030 0.9020 0.9020 0.9020
1865.767011 0.9020 0.9020 0.9000 0.9000 0.9000
1872.159058 0.9000 0.9000 0.9000 0.9000 0.9020
1878.551105 0.9000 0.9000 0.9000 0.9000 0.9000
1884.943152 0.9000 0.9000 0.9000 0.9000 0.9020
1891.335199 0.9030 0.9030 0.9030 0.9030 0.9020
1897.727246 0.9020 0.9020 0.9020 0.9000 0.9000
1904.119293 0.9000 0.9000 0.9000 0.9000 0.9000
1910.511341 0.9030 0.9030 0.9030 0.9030 0.9030
1916.903388 0.9030 0.9030 0.9030 0.9030 0.9030
1923.295435 0.9030 0.9020 0.9020 0.9020 0.9030
1929.687482 0.9050 0.9050 0.9050 0.9050 0.9030
1936.079529 0.9030 0.9020 0.9020 0.9000 0.9000
1942.471576 0.9000 0.9000 0.9020 0.9030 0.9050
1948.863623 0.9070 0.9070 0.9050 0.9050 0.9050
1955.255670 0.9050 0.9050 0.9050 0.9030 0.9020
1961.647717 0.9020 0.9000 0.9000 0.9000 0.9020
1968.039764 0.9030 0.9030 0.9020 0.9020 0.9020
1974.431812 0.9020 0.9030 0.9030 0.9020 0.9020
1980.823859 0.9030 0.9050 0.9070 0.9070 0.9090
1987.215906 0.9100 0.9100 0.9050 0.9020 0.9000
1993.607953 0.9000 0.9000 0.9000 0.9020 0.9030
2000.000000 0.9050 0.9050 0.9050 0.9040 0.9030
2006.392047 0.9040 0.9050 0.9040 0.9030 0.9030
2012.784094 0.9030 0.9030 0.9030 0.9030 0.9030
2019.176141 0.9025 0.9020 0.9020 0.9020 0.9020
2025.568188 0.9020 0.9020 0.9020 0.9020 0.9020
2031.960236 0.9020 0.9020 0.9020 0.9020 0.9020
2038.352283 0.9020 0.9020 0.9020 0.9020 0.9020
2044.744330 0.9024 0.9029 0.9026 0.9021 0.9020
2051.136377 0.9020 0.9020 0.9020 0.9020 0.9020
2057.528424 0.9020 0.9020 0.9011 0.9001 0.9000
2063.920471 0.9000 0.9000 0.9000 0.9000 0.9000
2070.312518 0.9008 0.9018 0.9020 0.9020 0.9020
2076.704565 0.9020 0.9012 0.9002 0.9000 0.9000
2083.096612 0.9000 0.9000 0.9000 0.9000 0.8992
2089.488659 0.8982 0.8980 0.8980 0.8980 0.8980
2095.880707 0.8980 0.8980 0.8980 0.8980 0.8980
2102.272754 0.8980 0.8980 0.8980 0.8980 0.8980
2108.664801 0.8972 0.8963 0.8960 0.8960 0.8960
2115.056848 0.8960 0.8960 0.8960 0.8960 0.8960
2121.448895 0.8960 0.8960 0.8960 0.8960 0.8960
2127.840942 0.8960 0.8960 0.8960 0.8960 0.8960
2134.232989 0.8957 0.8952 0.8950 0.8950 0.8950
2140.625036 0.8950 0.8950 0.8950 0.8950 0.8950
2147.017083 0.8943 0.8934 0.8930 0.8930 0.8930
2153.409130 0.8930 0.8930 0.8930 0.8930 0.8930
2159.801178 0.8917 0.8897 0.8890 0.8890 0.8890
2166.193225 0.8890 0.8887 0.8882 0.8883 0.8888
2172.585272 0.8890 0.8890 0.8890 0.8890 0.8890
2178.977319 0.8890 0.8890 0.8890 0.8887 0.8882
2185.369366 0.8880 0.8880 0.8889 0.8904 0.8910
2191.761413 0.8910 0.8904 0.8894 0.8895 0.8905
2198.153460 0.8910 0.8910 0.8910 0.8910 0.8921
2204.545507 0.8941 0.8945 0.8935 0.8930 0.8930
2210.937554 0.8925 0.8915 0.8910 0.8910 0.8910
2217.329601 0.8910 0.8910 0.8910 0.8910 0.8910
2223.721649 0.8910 0.8910 0.8910 0.8910 0.8910
2230.113696 0.8910 0.8910 0.8910 0.8905 0.8895
2236.505743 0.8895 0.8905 0.8905 0.8895 0.8888
2242.897790 0.8883 0.8887 0.8902 0.8899 0.8874
2249.289837 0.8860 0.8860 0.8856 0.8846 0.8840
2255.681884 0.8840 0.8840 0.8840 0.8840 0.8840
2262.073931 0.8840 0.8840 0.8840 0.8840 0.8840
2268.465978 0.8840 0.8840 0.8840 0.8840 0.8840
2274.858025 0.8840 0.8840 0.8844 0.8854 0.8864
2281.250072 0.8874 0.8886 0.8901 0.8910 0.8910
2287.642120 0.8910 0.8910 0.8910 0.8910 0.8910
2294.034167 0.8910 0.8905 0.8890 0.8877 0.8867
2300.426214 0.8857 0.8847 0.8837 0.8827 0.8820
2306.818261 0.8820 0.8820 0.8820 0.8820 0.8820
2313.210308 0.8823 0.8833 0.8840 0.8840 0.8837
2319.602355 0.8827 0.8819 0.8814 0.8811 0.8816
2325.994402 0.8823 0.8833 0.8842 0.8852 0.8860
2332.386449 0.8860 0.8860 0.8860 0.8860 0.8860
2338.778496 0.8858 0.8848 0.8840 0.8840 0.8840
2345.170543 0.8840 0.8840 0.8840 0.8840 0.8840
2351.562591 0.8840 0.8840 0.8840 0.8840 0.8838
2357.954638 0.8828 0.8820 0.8820 0.8820 0.8820
2364.346685 0.8820 0.8820 0.8820 0.8820 0.8820
2370.738732 0.8820 0.8819 0.8814 0.8807 0.8787
2377.130779 0.8766 0.8742 0.8719 0.8709 0.8700
2383.522826 0.8700 0.8700 0.8700 0.8700 0.8700
2389.914873 0.8701 0.8711 0.8720 0.8720 0.8721
2396.306920 0.8731 0.8740 0.8740 0.8737 0.8707
2402.698967 0.8680 0.8680 0.8682 0.8701 0.8721
2409.091014 0.8731 0.8740 0.8740 0.8740 0.8745
2415.483062 0.8751 0.8771 0.8791 0.8801 0.8810
2421.875109 0.8815 0.8820 0.8820 0.8820 0.8820
2428.267156 0.8820 0.8820 0.8820 0.8830 0.8840
2434.659203 0.8840 0.8840 0.8840 0.8840 0.8830
2441.051250 0.8820 0.8820 0.8820 0.8820 0.8820
2447.443297 0.8820 0.8820 0.8815 0.8810 0.8800
2453.835344 0.8790 0.8780 0.8770 0.8756 0.8741
2460.227391 0.8706 0.8671 0.8670 0.8670 0.8704
2466.619438 0.8739 0.8740 0.8740 0.8731 0.8721
2473.011486 0.8711 0.8701 0.8691 0.8681 0.8675
2479.403533 0.8670 0.8670 0.8670 0.8670 0.8670
2485.795580 0.8670 0.8670 0.8670 0.8670 0.8675
2492.187627 0.8680 0.8689 0.8699 0.8709 0.8719
2498.579674 0.8711 0.8701 0.8700 0.8700 0.8709
2504.971721 0.8719 0.8711 0.8701 0.8700 0.8700
2511.363768 0.8700 0.8700 0.8700 0.8700 0.8700
2517.755815 0.8700 0.8692 0.8682 0.8659 0.8634
2524.147862 0.8630 0.8630 0.8646 0.8666 0.8670
2530.539909 0.8670 0.8674 0.8679 0.8680 0.8680
2536.931957 0.8680 0.8680 0.8680 0.8680 0.8668
2543.324004 0.8653 0.8650 0.8650 0.8642 0.8632
2549.716051 0.8622 0.8612 0.8606 0.8601 0.8585
2556.108098 0.8565 0.8549 0.8534 0.8523 0.8513
2562.500145 0.8510 0.8510 0.8503 0.8493 0.8490
2568.892192 0.8490 0.8483 0.8473 0.8470 0.8470
2575.284239 0.8470 0.8470 0.8445 0.8411 0.8383
2581.676286 0.8358 0.8343 0.8333 0.8327 0.8322
2588.068333 0.8313 0.8303 0.8293 0.8283 0.8273
2594.460380 0.8263 0.8250 0.8235 0.8230 0.8230
2600.852428 0.8223 0.8214 0.8204 0.8194 0.8187
2607.244475 0.8182 0.8180 0.8180 0.8174 0.8164
2613.636522 0.8154 0.8144 0.8134 0.8124 0.8120
2620.028569 0.8120 0.8120 0.8120 0.8120 0.8120
2626.420616 0.8126 0.8136 0.8146 0.8156 0.8160
2632.812663 0.8160 0.8166 0.8176 0.8194 0.8219
2639.204710 0.8238 0.8254 0.8277 0.8307 0.8323
2645.596757 0.8328 0.8349 0.8384 0.8425 0.8469
2651.988804 0.8490 0.8490 0.8482 0.8467 0.8450
2658.380851 0.8430 0.8407 0.8382 0.8360 0.8340
2664.772899 0.8327 0.8322 0.8320 0.8320 0.8320
2671.164946 0.8320 0.8320 0.8320 0.8315 0.8305
2677.556993 0.8300 0.8300 0.8288 0.8263 0.8241
2683.949040 0.8221 0.8205 0.8195 0.8183 0.8168
2690.341087 0.8156 0.8145 0.8129 0.8104 0.8079
2696.733134 0.8054 0.8025 0.7990 0.7961 0.7941
2703.125181 0.7924 0.7909 0.7885 0.7851 0.7803
2709.517228 0.7739 0.7676 0.7616 0.7576 0.7566
2715.909275 0.7544 0.7504 0.7476 0.7466 0.7460
2722.301322 0.7460 0.7464 0.7474 0.7495 0.7535
2728.693370 0.7580 0.7635 0.7701 0.7785 0.7865
2735.085417 0.7934 0.7987 0.8007 0.8020 0.8020
2741.477464 0.8017 0.8007 0.7997 0.7987 0.7975
2747.869511 0.7960 0.7947 0.7937 0.7927 0.7917
2754.261558 0.7905 0.7890 0.7874 0.7854 0.7830
2760.653605 0.7795 0.7769 0.7764 0.7752 0.7722
2767.045652 0.7693 0.7668 0.7646 0.7631 0.7617
2773.437699 0.7607 0.7588 0.7543 0.7497 0.7447
2779.829746 0.7401 0.7366 0.7326 0.7272 0.7226
2786.221793 0.7211 0.7195 0.7175 0.7154 0.7130
2792.613841 0.7095 0.7024 0.6954 0.6884 0.6812
2799.005888 0.6732 0.6650 0.6555 0.6455 0.6336
2805.397935 0.6231 0.6186 0.6140 0.6085 0.6027
2811.789982 0.5958 0.5891 0.5842 0.5779 0.5649
2818.182029 0.5526 0.5435 0.5333 0.5178 0.5034
2824.574076 0.4940 0.4836 0.4687 0.4516 0.4228
2830.966123 0.3940 0.3661 0.3365 0.2957 0.2536
2837.358170 0.2023 0.1567 0.1542 0.1539 0.1713
2843.750217 0.1870 0.1870 0.1866 0.1837 0.1804
2850.142264 0.1755 0.1671 0.1287 0.0927 0.0787
2856.534312 0.0646 0.0487 0.0329 0.0185 0.0049
2862.926359 0.0039 0.0031 0.0041 0.0051 0.0066
2869.318406 0.0084 0.0175 0.0267 0.0376 0.0484
2875.710453 0.0548 0.0610 0.0600 0.0587 0.0507
2882.102500 0.0428 0.0358 0.0290 0.0280 0.0270
2888.494547 0.0255 0.0240 0.0230 0.0220 0.0210
2894.886594 0.0200 0.0200 0.0200 0.0195 0.0190
2901.278641 0.0155 0.0120 0.0100 0.0080 0.0065
2907.670688 0.0050 0.0040 0.0030 0.0020 0.0010
2914.062736 0.0010 0.0010 0.0005 0.0000 0.0000
2920.454783 0.0000 0.0000 0.0000 0.0000 0.0000
2926.846830 0.0000 0.0000 0.0000 0.0000 0.0000
2933.238877 0.0000 0.0000 0.0000 0.0000 0.0000
2939.630924 0.0000 0.0000 0.0000 0.0000 0.0004
2946.022971 0.0009 0.0010 0.0010 0.0010 0.0010
2952.415018 0.0010 0.0010 0.0019 0.0029 0.0039
2958.807065 0.0049 0.0054 0.0059 0.0098 0.0143
2965.199112 0.0179 0.0214 0.0315 0.0430 0.0602
2971.591159 0.0786 0.0985 0.1187 0.1553 0.1951
2977.983207 0.2682 0.3484 0.3675 0.3730 0.3873
2984.375254 0.4037 0.4166 0.4285 0.4539 0.4827
2990.767301 0.4984 0.5103 0.5265 0.5439 0.5503
2997.159348 0.5533 0.5632 0.5753 0.5888 0.6028
3003.551395 0.6236 0.6465 0.6550 0.6590 0.6652
3009.943442 0.6722 0.6766 0.6801 0.6858 0.6922
3016.335489 0.6991 0.7060 0.7134 0.7208 0.7262
3022.727536 0.7307 0.7345 0.7380 0.7415 0.7450
3029.119583 0.7474 0.7494 0.7521 0.7551 0.7560
3035.511630 0.7560 0.7574 0.7594 0.7624 0.7658
3041.903678 0.7703 0.7753 0.7777 0.7787 0.7796
3048.295725 0.7806 0.7816 0.7827 0.7840 0.7855
3054.687772 0.7876 0.7901 0.7916 0.7926 0.7943
3061.079819 0.7963 0.7986 0.8011 0.8029 0.8044
3067.471866 0.8068 0.8098 0.8113 0.8118 0.8120
3073.863913 0.8120 0.8126 0.8136 0.8146 0.8156
3080.255960 0.8166 0.8176 0.8180 0.8180 0.8189
3086.648007 0.8204 0.8224 0.8249 0.8260 0.8260
3093.040054 0.8260 0.8260 0.8265 0.8275 0.8280
3099.432101 0.8280 0.8280 0.8280 0.8280 0.8280
3105.824149 0.8275 0.8265 0.8260 0.8260 0.8265
3112.216196 0.8275 0.8280 0.8280 0.8285 0.8295
3118.608243 0.8300 0.8300 0.8295 0.8285 0.8275
3125.000290 0.8265 0.8258 0.8253 0.8245 0.8235
3131.392337 0.8220 0.8200 0.8190 0.8190 0.8188
3137.784384 0.8183 0.8175 0.8165 0.8156 0.8146
3144.176431 0.8140 0.8140 0.8140 0.8140 0.8140
3150.568478 0.8140 0.8140 0.8140 0.8140 0.8140
3156.960525 0.8140 0.8140 0.8144 0.8154 0.8160
3163.352572 0.8160 0.8160 0.8160 0.8160 0.8160
3169.744620 0.8164 0.8174 0.8180 0.8180 0.8182
3176.136667 0.8187 0.8190 0.8190 0.8198 0.8217
3182.528714 0.8236 0.8250 0.8260 0.8260 0.8260
3188.920761 0.8260 0.8267 0.8287 0.8303 0.8313
3195.312808 0.8322 0.8327 0.8344 0.8389 0.8428
3201.704855 0.8453 0.8473 0.8483 0.8493 0.8503
3208.096902 0.8515 0.8530 0.8540 0.8540 0.8543
3214.488949 0.8553 0.8566 0.8586 0.8601 0.8606
3220.880996 0.8613 0.8623 0.8633 0.8643 0.8653
3227.273043 0.8662 0.8674 0.8689 0.8703 0.8713
3233.665091 0.8723 0.8733 0.8740 0.8740 0.8741
3240.057138 0.8746 0.8750 0.8750 0.8750 0.8750
3246.449185 0.8750 0.8750 0.8750 0.8750 0.8750
3252.841232 0.8750 0.8750 0.8750 0.8750 0.8750
3259.233279 0.8750 0.8750 0.8750 0.8750 0.8749
3265.625326 0.8744 0.8740 0.8740 0.8738 0.8728
3272.017373 0.8720 0.8720 0.8720 0.8720 0.8720
3278.409420 0.8720 0.8720 0.8720 0.8722 0.8731
3284.801467 0.8740 0.8740 0.8741 0.8746 0.8751
3291.193514 0.8761 0.8771 0.8781 0.8790 0.8790
3297.585562 0.8789 0.8779 0.8770 0.8770 0.8769
3303.977609 0.8759 0.8750 0.8750 0.8750 0.8745
3310.369656 0.8740 0.8740 0.8740 0.8740 0.8740
3316.761703 0.8740 0.8739 0.8729 0.8720 0.8720
3323.153750 0.8720 0.8720 0.8720 0.8710 0.8700
3329.545797 0.8700 0.8700 0.8700 0.8700 0.8700
3335.937844 0.8700 0.8700 0.8700 0.8710 0.8720
3342.329891 0.8720 0.8720 0.8730 0.8740 0.8745
3348.721938 0.8750 0.8770 0.8790 0.8790 0.8790
3355.113986 0.8790 0.8790 0.8800 0.8810 0.8810
3361.506033 0.8810 0.8800 0.8790 0.8790 0.8790
3367.898080 0.8790 0.8790 0.8790 0.8790 0.8781
3374.290127 0.8771 0.8779 0.8789 0.8781 0.8771
3380.682174 0.8770 0.8770 0.8761 0.8751 0.8750
3387.074221 0.8750 0.8759 0.8769 0.8770 0.8770
3393.466268 0.8770 0.8770 0.8779 0.8789 0.8790
3399.858315 0.8790 0.8799 0.8809 0.8810 0.8810
3406.250362 0.8810 0.8810 0.8810 0.8810 0.8814
3412.642409 0.8819 0.8829 0.8839 0.8840 0.8840
3419.034457 0.8848 0.8858 0.8868 0.8878 0.8880
3425.426504 0.8880 0.8884 0.8889 0.8890 0.8890
3431.818551 0.8898 0.8908 0.8902 0.8892 0.8886
3438.210598 0.8881 0.8880 0.8880 0.8880 0.8880
3444.602645 0.8880 0.8880 0.8880 0.8880 0.8884
3450.994692 0.8889 0.8890 0.8890 0.8890 0.8890
3457.386739 0.8897 0.8907 0.8903 0.8892 0.8890
3463.778786 0.8890 0.8890 0.8890 0.8890 0.8890
3470.170833 0.8897 0.8907 0.8910 0.8910 0.8910
3476.562880 0.8910 0.8910 0.8910 0.8910 0.8910
3482.954928 0.8910 0.8910 0.8910 0.8910 0.8917
3489.346975 0.8927 0.8930 0.8930 0.8930 0.8930
3495.739022 0.8937 0.8947 0.8950 0.8950 0.8944
3502.131069 0.8934 0.8930 0.8930 0.8930 0.8930
3508.523116 0.8936 0.8946 0.8950 0.8950 0.8950
3514.915163 0.8950 0.8953 0.8958 0.8960 0.8960
3521.307210 0.8960 0.8960 0.8960 0.8960 0.8960
3527.699257 0.8960 0.8960 0.8960 0.8960 0.8960
3534.091304 0.8960 0.8960 0.8960 0.8960 0.8960
3540.483351 0.8960 0.8951 0.8937 0.8930 0.8930
3546.875399 0.8938 0.8953 0.8965 0.8975 0.8980
3553.267446 0.8980 0.8980 0.8980 0.8980 0.8980
3559.659493 0.8990 0.9010 0.9028 0.9043 0.9060
3566.051540 0.9080 0.9098 0.9113 0.9115 0.9105
3572.443587 0.9098 0.9093 0.9075 0.9045 0.9023
3578.835634 0.9008 0.8995 0.8985 0.8968 0.8944
3585.227681 0.8930 0.8930 0.8930 0.8930 0.8930
3591.619728 0.8930 0.8930 0.8930 0.8937 0.8952
3598.011775 0.8960 0.8960 0.8958 0.8953 0.8950
3604.403822 0.8950 0.8946 0.8936 0.8930 0.8930
3610.795870 0.8926 0.8916 0.8910 0.8910 0.8910
3617.187917 0.8910 0.8906 0.8896 0.8888 0.8883
3623.579964 0.8882 0.8887 0.8890 0.8890 0.8897
3629.972011 0.8917 0.8930 0.8930 0.8930 0.8930
3636.364058 0.8927 0.8917 0.8907 0.8897 0.8888
3642.756105 0.8883 0.8882 0.8887 0.8897 0.8917
3649.148152 0.8930 0.8930 0.8930 0.8930 0.8930
3655.540199 0.8930 0.8927 0.8917 0.8910 0.8910
3661.932246 0.8910 0.8910 0.8910 0.8910 0.8910
3668.324293 0.8910 0.8910 0.8910 0.8910 0.8910
3674.716341 0.8907 0.8897 0.8889 0.8884 0.8881
3681.108388 0.8886 0.8890 0.8890 0.8892 0.8902
3687.500435 0.8910 0.8910 0.8912 0.8922 0.8930
3693.892482 0.8930 0.8930 0.8930 0.8928 0.8918
3700.284529 0.8910 0.8910 0.8908 0.8898 0.8890
3706.676576 0.8890 0.8890 0.8890 0.8892 0.8902
3713.068623 0.8910 0.8910 0.8910 0.8910 0.8912
3719.460670 0.8922 0.8930 0.8930 0.8930 0.8930
3725.852717 0.8930 0.8930 0.8931 0.8941 0.8953
3732.244764 0.8978 0.9000 0.9000 0.8996 0.8961
3738.636812 0.8928 0.8908 0.8889 0.8884 0.8880
3745.028859 0.8880 0.8881 0.8886 0.8890 0.8890
3751.420906 0.8891 0.8901 0.8910 0.8910 0.8909
3757.812953 0.8899 0.8890 0.8885 0.8879 0.8869
3764.205000 0.8861 0.8876 0.8890 0.8890 0.8890
3770.597047 0.8890 0.8890 0.8885 0.8880 0.8885
3776.989094 0.8890 0.8890 0.8890 0.8890 0.8890
3783.381141 0.8890 0.8890 0.8890 0.8890 0.8890
3789.773188 0.8890 0.8890 0.8890 0.8885
##END=
