##TITLE=PROPENENITRILE
##JCAMP-DX=4.24
##DATA TYPE=INFRARED SPECTRUM
##CLASS=COBLENTZ III
##ORIGIN=DOW CORNING CORP.
##OWNER=COBLENTZ SOCIETY
Collection (C) 2018 copyright by the U.S. Secretary of Commerce
on behalf of the United States of America. All rights reserved.
##DATE=1966
##NAMES=acrylonitrile
ACRYLONITRILE
##CAS REGISTRY NO=107-13-1
##MOLFORM=C3 H3 N
##SOURCE REFERENCE=COBLENTZ NO. 4823
##$NIST SOURCE=COBLENTZ
##$NIST IMAGE=cob4823
##SPECTROMETER/DATA SYSTEM=PERKIN-ELMER 521 (GRATING)
##INSTRUMENT PARAMETERS=FILTERS AT 3150, 2500, 2000, 1150, 700, 410; GRATING CHANGES AT 2000, 630 CM^-^1
##STATE=SOLUTION (10% IN CCl4 FOR 3800-1300, 10% IN CS2 FOR 1300-650, 10% IN CCl4 FOR 650-240 CM^-^1) VERSUS SOLVENT
##PATH LENGTH=0.011, 0.010, AND 0.010 CM (CsBr CELL)
$$ 97% PURE
##SAMPLING PROCEDURE=TRANSMISSION
##RESOLUTION=4
##DATA PROCESSING=DIGITIZED BY NIST FROM HARD COPY (FROM TWO SEGMENTS)
##XUNITS=1/CM
##YUNITS=TRANSMITTANCE
##XFACTOR=1.000000
##YFACTOR=1
##DELTAX=0.985223
##FIRSTX=231.527
##LASTX=3790.15
##FIRSTY=0.852
##MAXX=3790.15
##MINX=231.527
##MAXY=1.014
##MINY=0.046
##NPOINTS=3613
##XYDATA=(X++(Y..Y))
231.527000 0.8520 0.8520 0.8520 0.8520 0.8520
236.453117 0.8520 0.8520 0.8520 0.8520 0.8510
241.379233 0.8510 0.8510 0.8510 0.8510 0.8490
246.305350 0.8490 0.8480 0.8450 0.8450 0.8440
251.231466 0.8420 0.8420 0.8420 0.8420 0.8420
256.157583 0.8420 0.8420 0.8420 0.8420 0.8410
261.083700 0.8410 0.8410 0.8410 0.8420 0.8420
266.009816 0.8410 0.8410 0.8410 0.8400 0.8400
270.935933 0.8400 0.8400 0.8400 0.8400 0.8400
275.862049 0.8400 0.8400 0.8400 0.8400 0.8400
280.788166 0.8410 0.8410 0.8410 0.8420 0.8420
285.714282 0.8420 0.8440 0.8440 0.8450 0.8450
290.640399 0.8450 0.8460 0.8460 0.8480 0.8480
295.566516 0.8480 0.8480 0.8480 0.8480 0.8460
300.492632 0.8460 0.8460 0.8460 0.8480 0.8480
305.418749 0.8490 0.8510 0.8510 0.8510 0.8510
310.344865 0.8510 0.8520 0.8520 0.8520 0.8510
315.270982 0.8510 0.8510 0.8490 0.8490 0.8490
320.197099 0.8490 0.8480 0.8480 0.8480 0.8460
325.123215 0.8460 0.8460 0.8460 0.8460 0.8460
330.049332 0.8480 0.8480 0.8480 0.8490 0.8490
334.975448 0.8490 0.8490 0.8510 0.8510 0.8510
339.901565 0.8520 0.8550 0.8550 0.8570 0.8600
344.827681 0.8610 0.8640 0.8650 0.8670 0.8680
349.753798 0.8710 0.8720 0.8730 0.8750 0.8760
354.679915 0.8760 0.8770 0.8770 0.8790 0.8790
359.606031 0.8800 0.8800 0.8810 0.8810 0.8840
364.532148 0.8850 0.8870 0.8870 0.8890 0.8890
369.458264 0.8910 0.8910 0.8920 0.8920 0.8930
374.384381 0.8920 0.8930 0.8930 0.8950 0.8950
379.310498 0.8950 0.8960 0.8960 0.8970 0.8970
384.236614 0.8970 0.8990 0.8990 0.9000 0.9000
389.162731 0.9020 0.9020 0.9020 0.9020 0.9020
394.088847 0.9020 0.9020 0.9030 0.9030 0.9030
399.014964 0.9030 0.9030 0.9030 0.9030 0.9030
403.941080 0.9030 0.9030 0.9030 0.9030 0.9030
408.867197 0.9040 0.9040 0.9040 0.9060 0.9070
413.793314 0.9070 0.9070 0.9080 0.9080 0.9070
418.719430 0.9080 0.9100 0.9100 0.9100 0.9110
423.645547 0.9110 0.9110 0.9110 0.9110 0.9100
428.571663 0.9100 0.9100 0.9100 0.9080 0.9080
433.497780 0.9080 0.9080 0.9080 0.9070 0.9070
438.423897 0.9080 0.9100 0.9100 0.9100 0.9110
443.350013 0.9120 0.9120 0.9140 0.9140 0.9150
448.276130 0.9150 0.9160 0.9160 0.9160 0.9160
453.202246 0.9150 0.9140 0.9140 0.9120 0.9120
458.128363 0.9110 0.9100 0.9100 0.9110 0.9110
463.054480 0.9140 0.9180 0.9220 0.9230 0.9240
467.980596 0.9260 0.9280 0.9300 0.9310 0.9310
472.906713 0.9320 0.9340 0.9340 0.9350 0.9350
477.832829 0.9350 0.9340 0.9320 0.9320 0.9320
482.758946 0.9340 0.9340 0.9350 0.9350 0.9360
487.685062 0.9420 0.9430 0.9440 0.9460 0.9460
492.611179 0.9460 0.9460 0.9470 0.9470 0.9470
497.537296 0.9470 0.9470 0.9470 0.9470 0.9470
502.463412 0.9470 0.9470 0.9470 0.9470 0.9470
507.389529 0.9460 0.9460 0.9460 0.9460 0.9460
512.315645 0.9470 0.9470 0.9470 0.9470 0.9480
517.241762 0.9480 0.9470 0.9470 0.9470 0.9470
522.167879 0.9470 0.9470 0.9470 0.9480 0.9500
527.093995 0.9500 0.9500 0.9500 0.9500 0.9500
532.020112 0.9500 0.9480 0.9470 0.9470 0.9460
536.946228 0.9470 0.9460 0.9460 0.9440 0.9460
541.872345 0.9460 0.9440 0.9440 0.9430 0.9430
546.798461 0.9420 0.9420 0.9420 0.9430 0.9420
551.724578 0.9420 0.9420 0.9400 0.9400 0.9400
556.650695 0.9400 0.9400 0.9420 0.9420 0.9420
561.576811 0.9420 0.9420 0.9420 0.9420 0.9400
566.502928 0.9400 0.9420 0.9430 0.9430 0.9420
571.429044 0.9430 0.9430 0.9430 0.9440 0.9440
576.355161 0.9440 0.9440 0.9440 0.9430 0.9440
581.281278 0.9460 0.9460 0.9470 0.9470 0.9470
586.207394 0.9480 0.9480 0.9500 0.9500 0.9500
591.133511 0.9500 0.9500 0.9510 0.9510 0.9530
596.059627 0.9530 0.9530 0.9510 0.9510 0.9480
600.985744 0.9480 0.9470 0.9430 0.9390 0.9380
605.911861 0.9360 0.9350 0.9340 0.9310 0.9310
610.837977 0.9300 0.9300 0.9280 0.9270 0.9270
615.764094 0.9270 0.9270 0.9280 0.9320 0.9400
620.690210 0.9460 0.9460 0.9440 0.9430 0.9420
625.616327 0.9380 0.9360 0.9340 0.9320 0.9300
630.542443 0.9280 0.9270 0.9270 0.9260 0.9260
635.468560 0.9230 0.9230 0.9220 0.9220 0.9200
640.394677 0.9200 0.9190 0.9120 0.9060 0.8990
645.320793 0.8920 0.8870 0.8800 0.8730 0.8690
650.246910 0.8680 0.8640 0.8590 0.8560 0.8530
655.173026 0.8480 0.8450 0.8380 0.8340 0.8320
660.099143 0.8300 0.8260 0.8220 0.8180 0.8100
665.025260 0.8020 0.7980 0.7910 0.7790 0.7650
669.951376 0.7361 0.7260 0.7061 0.7000 0.6950
674.877493 0.6810 0.6640 0.6560 0.6220 0.6080
679.803609 0.5691 0.5550 0.5361 0.5161 0.4971
684.729726 0.4800 0.4790 0.4790 0.4800 0.4810
689.655842 0.4910 0.5000 0.5140 0.5220 0.5927
694.581959 0.6260 0.6490 0.6810 0.7140 0.7470
699.508076 0.7769 0.8049 0.8200 0.8300 0.8420
704.434192 0.8570 0.8670 0.8720 0.8880 0.8950
709.360309 0.9000 0.9070 0.9100 0.9190 0.9260
714.286425 0.9280 0.9350 0.9390 0.9400 0.9430
719.212542 0.9480 0.9530 0.9580 0.9590 0.9610
724.138659 0.9620 0.9630 0.9630 0.9650 0.9660
729.064775 0.9670 0.9690 0.9700 0.9710 0.9740
733.990892 0.9740 0.9740 0.9750 0.9750 0.9790
738.917008 0.9790 0.9790 0.9780 0.9780 0.9780
743.843125 0.9780 0.9780 0.9790 0.9810 0.9820
748.769241 0.9830 0.9850 0.9860 0.9860 0.9860
753.695358 0.9870 0.9870 0.9890 0.9900 0.9910
758.621475 0.9930 0.9930 0.9940 0.9940 0.9970
763.547591 0.9980 0.9980 1.0000 1.0000 1.0010
768.473708 1.0020 1.0040 1.0050 1.0060 1.0060
773.399824 1.0080 1.0080 1.0090 1.0090 1.0090
778.325941 1.0090 1.0080 1.0080 1.0080 1.0080
783.252058 1.0060 1.0040 1.0020 0.9970 0.9940
788.178174 0.9930 0.9860 0.9830 0.9820 0.9790
793.104291 0.9780 0.9750 0.9730 0.9710 0.9700
798.030407 0.9610 0.9530 0.9440 0.9440 0.9500
802.956524 0.9570 0.9620 0.9690 0.9710 0.9740
807.882641 0.9770 0.9790 0.9820 0.9820 0.9830
812.808757 0.9860 0.9870 0.9870 0.9890 0.9890
817.734874 0.9900 0.9900 0.9890 0.9890 0.9890
822.660990 0.9870 0.9870 0.9860 0.9860 0.9860
827.587107 0.9860 0.9850 0.9850 0.9850 0.9850
832.513223 0.9830 0.9830 0.9820 0.9820 0.9810
837.439340 0.9810 0.9790 0.9790 0.9790 0.9790
842.365457 0.9810 0.9810 0.9810 0.9810 0.9810
847.291573 0.9810 0.9790 0.9780 0.9750 0.9740
852.217690 0.9740 0.9730 0.9710 0.9670 0.9630
857.143806 0.9550 0.9500 0.9460 0.9420 0.9400
862.069923 0.9380 0.9310 0.9180 0.9160 0.9020
866.996040 0.8880 0.8720 0.8560 0.8401 0.8400
871.922156 0.8510 0.8600 0.8990 0.9020 0.9120
876.848273 0.9280 0.9350 0.9420 0.9430 0.9440
881.774389 0.9460 0.9460 0.9440 0.9420 0.9390
886.700506 0.9380 0.9360 0.9340 0.9320 0.9310
891.626622 0.9300 0.9230 0.9200 0.9190 0.9160
896.552739 0.9150 0.9120 0.9110 0.9080 0.9030
901.478856 0.8970 0.8950 0.8920 0.8850 0.8790
906.404972 0.8770 0.8760 0.8710 0.8570 0.8550
911.331089 0.8490 0.8480 0.8450 0.8380 0.8340
916.257205 0.8320 0.8250 0.8120 0.8050 0.7940
921.183322 0.7890 0.7830 0.7810 0.7730 0.7620
926.109439 0.7500 0.7470 0.7300 0.7220 0.7021
931.035555 0.6890 0.6790 0.6650 0.6530 0.6370
935.961672 0.6170 0.6060 0.5930 0.5671 0.5431
940.887788 0.5110 0.4970 0.4710 0.4400 0.4210
945.813905 0.3931 0.3341 0.3151 0.2801 0.2511
950.740022 0.2260 0.2010 0.1750 0.1500 0.0991
955.666138 0.0760 0.0730 0.0521 0.0480 0.0460
960.592255 0.0460 0.0460 0.0460 0.0460 0.0460
965.518371 0.0480 0.0490 0.0490 0.0550 0.0570
970.444488 0.0590 0.0760 0.0790 0.0990 0.1100
975.370604 0.1190 0.1380 0.1609 0.1809 0.2298
980.296721 0.2690 0.3160 0.3400 0.3830 0.4120
985.222838 0.4479 0.4749 0.4929 0.5259 0.5459
990.148954 0.5730 0.5890 0.6080 0.6210 0.6360
995.075071 0.6490 0.6600 0.6730 0.6840 0.6989
1000.001187 0.7110 0.7200 0.7270 0.7360 0.7440
1004.927304 0.7500 0.7580 0.7610 0.7630 0.7670
1009.853421 0.7710 0.7710 0.7770 0.7790 0.7830
1014.779537 0.7860 0.7870 0.7870 0.7890 0.7900
1019.705654 0.7910 0.7910 0.7950 0.7980 0.7980
1024.631770 0.8010 0.8080 0.8140 0.8170 0.8240
1029.557887 0.8290 0.8330 0.8370 0.8400 0.8440
1034.484003 0.8530 0.8600 0.8640 0.8670 0.8690
1039.410120 0.8760 0.8770 0.8790 0.8830 0.8880
1044.336237 0.8950 0.8950 0.8960 0.8990 0.9000
1049.262353 0.9020 0.9020 0.9040 0.9060 0.9080
1054.188470 0.9100 0.9100 0.9100 0.9110 0.9110
1059.114586 0.9120 0.9120 0.9140 0.9140 0.9140
1064.040703 0.9140 0.9140 0.9140 0.9120 0.9120
1068.966820 0.9110 0.9110 0.9110 0.9100 0.9100
1073.892936 0.9100 0.9100 0.9100 0.9080 0.9060
1078.819053 0.8970 0.8870 0.8840 0.8770 0.8680
1083.745169 0.8570 0.8480 0.8340 0.8250 0.7931
1088.671286 0.7440 0.7200 0.6970 0.6750 0.6750
1093.597402 0.7080 0.7419 0.7749 0.8059 0.8459
1098.523519 0.8870 0.9080 0.9280 0.9300 0.9350
1103.449636 0.9390 0.9470 0.9510 0.9530 0.9550
1108.375752 0.9570 0.9570 0.9570 0.9570 0.9570
1113.301869 0.9540 0.9530 0.9530 0.9500 0.9480
1118.227985 0.9470 0.9470 0.9480 0.9480 0.9500
1123.154102 0.9510 0.9530 0.9540 0.9570 0.9590
1128.080219 0.9620 0.9630 0.9690 0.9710 0.9740
1133.006335 0.9750 0.9790 0.9850 0.9910 0.9940
1137.932452 0.9970 0.9980 1.0000 1.0010 1.0040
1142.858568 1.0050 1.0080 1.0090 1.0100 1.0120
1147.784685 1.0130 1.0130 1.0140 1.0140 1.0140
1152.710802 1.0130 1.0130 1.0130 1.0130 1.0120
1157.636918 1.0120 1.0100 1.0090 1.0080 1.0060
1162.563035 1.0050 1.0040 1.0040 1.0020 1.0000
1167.489151 0.9980 0.9970 0.9970 0.9950 0.9950
1172.415268 0.9940 0.9940 0.9930 0.9930 0.9930
1177.341384 0.9910 0.9930 0.9910 0.9910 0.9910
1182.267501 0.9910 0.9900 0.9900 0.9900 0.9900
1187.193618 0.9900 0.9910 0.9910 0.9910 0.9910
1192.119734 0.9910 0.9910 0.9910 0.9910 0.9910
1197.045851 0.9910 0.9910 0.9910 0.9910 0.9900
1201.971967 0.9900 0.9900 0.9900 0.9900 0.9900
1206.898084 0.9900 0.9900 0.9890 0.9890 0.9890
1211.824201 0.9890 0.9870 0.9870 0.9870 0.9860
1216.750317 0.9850 0.9850 0.9830 0.9830 0.9830
1221.676434 0.9820 0.9820 0.9820 0.9810 0.9810
1226.602550 0.9810 0.9810 0.9810 0.9810 0.9790
1231.528667 0.9790 0.9790 0.9790 0.9790 0.9790
1236.454783 0.9790 0.9780 0.9780 0.9770 0.9750
1241.380900 0.9740 0.9740 0.9730 0.9700 0.9670
1246.307017 0.9670 0.9660 0.9650 0.9590 0.9590
1251.233133 0.9580 0.9570 0.9540 0.9530 0.9510
1256.159250 0.9510 0.9500 0.9480 0.9480 0.9470
1261.085366 0.9460 0.9460 0.9430 0.9390 0.9350
1266.011483 0.9320 0.9300 0.9270 0.9230 0.9200
1270.937600 0.9180 0.9150 0.9110 0.9100 0.9070
1275.863716 0.9060 0.9030 0.8970 0.8910 0.8910
1280.789833 0.8890 0.8870 0.8850 0.8840 0.8810
1285.715949 0.8800 0.8770 0.8750 0.8750 0.8730
1290.642066 0.8730 0.8720 0.8720 0.8710 0.8690
1295.568182 0.8690 0.8680 0.8680 0.8670 0.8670
1300.494299 0.8650 0.8650 0.8640 0.8630 0.8630
1305.420416 0.8630 0.8630 0.8630 0.8630 0.8630
1310.346532 0.8630 0.8630 0.8630 0.8640 0.8640
1315.272649 0.8640 0.8650 0.8650 0.8650 0.8640
1320.198765 0.8640 0.8640 0.8640 0.8640 0.8630
1325.124882 0.8630 0.8610 0.8610 0.8600 0.8610
1330.050999 0.8610 0.8630 0.8630 0.8630 0.8640
1334.977115 0.8640 0.8640 0.8640 0.8630 0.8600
1339.903232 0.8590 0.8570 0.8560 0.8530 0.8520
1344.829348 0.8520 0.8510 0.8510 0.8490 0.8490
1349.755465 0.8480 0.8480 0.8460 0.8450 0.8420
1354.681582 0.8400 0.8340 0.8260 0.8250 0.8200
1359.607698 0.8170 0.8160 0.8140 0.8130 0.8120
1364.533815 0.8100 0.8090 0.8090 0.8090 0.8100
1369.459931 0.8120 0.8130 0.8130 0.8130 0.8140
1374.386048 0.8170 0.8180 0.8180 0.8200 0.8200
1379.312164 0.8210 0.8210 0.8200 0.8200 0.8200
1384.238281 0.8180 0.8170 0.8160 0.8160 0.8140
1389.164398 0.8100 0.8080 0.8050 0.8000 0.7970
1394.090514 0.7850 0.7820 0.7790 0.7620 0.7480
1399.016631 0.7420 0.7300 0.7220 0.6991 0.6870
1403.942747 0.6710 0.6440 0.6140 0.5790 0.5530
1408.868864 0.4811 0.4461 0.3901 0.3142 0.2372
1413.794981 0.1820 0.1821 0.2841 0.4100 0.5000
1418.721097 0.5929 0.6409 0.6879 0.7070 0.7259
1423.647214 0.7470 0.7620 0.7660 0.7670 0.7670
1428.573330 0.7700 0.7730 0.7820 0.7870 0.7950
1433.499447 0.8000 0.8010 0.8040 0.8060 0.8130
1438.425563 0.8240 0.8360 0.8460 0.8480 0.8490
1443.351680 0.8570 0.8640 0.8670 0.8670 0.8680
1448.277797 0.8690 0.8720 0.8720 0.8720 0.8720
1453.203913 0.8730 0.8730 0.8750 0.8760 0.8760
1458.130030 0.8770 0.8770 0.8790 0.8770 0.8800
1463.056146 0.8810 0.8830 0.8830 0.8840 0.8840
1467.982263 0.8870 0.8880 0.8880 0.8890 0.8890
1472.908380 0.8910 0.8910 0.8920 0.8920 0.8920
1477.834496 0.8920 0.8920 0.8920 0.8930 0.8930
1482.760613 0.8930 0.8950 0.8960 0.8960 0.8970
1487.686729 0.8970 0.8990 0.9000 0.9000 0.9020
1492.612846 0.9030 0.9040 0.9060 0.9060 0.9060
1497.538963 0.9080 0.9080 0.9100 0.9110 0.9110
1502.465079 0.9110 0.9110 0.9120 0.9140 0.9150
1507.391196 0.9140 0.9160 0.9180 0.9190 0.9200
1512.317312 0.9200 0.9220 0.9220 0.9230 0.9230
1517.243429 0.9230 0.9230 0.9240 0.9240 0.9240
1522.169545 0.9240 0.9260 0.9260 0.9260 0.9270
1527.095662 0.9280 0.9280 0.9280 0.9310 0.9340
1532.021779 0.9350 0.9390 0.9390 0.9420 0.9430
1536.947895 0.9460 0.9470 0.9480 0.9480 0.9500
1541.874012 0.9500 0.9500 0.9500 0.9480 0.9480
1546.800128 0.9440 0.9420 0.9390 0.9380 0.9380
1551.726245 0.9350 0.9320 0.9260 0.9220 0.9190
1556.652362 0.9180 0.9160 0.9120 0.9100 0.9060
1561.578478 0.9030 0.8990 0.8970 0.8960 0.8960
1566.504595 0.8950 0.8950 0.8930 0.8930 0.8930
1571.430711 0.8920 0.8920 0.8920 0.8910 0.8910
1576.356828 0.8890 0.8870 0.8870 0.8850 0.8840
1581.282944 0.8830 0.8810 0.8800 0.8770 0.8760
1586.209061 0.8750 0.8750 0.8720 0.8670 0.8530
1591.135178 0.8480 0.8450 0.8440 0.8380 0.8330
1596.061294 0.8280 0.8220 0.8170 0.8100 0.8050
1600.987411 0.7980 0.7930 0.7860 0.7780 0.7650
1605.913527 0.7590 0.7470 0.7220 0.6961 0.6960
1610.839644 0.6990 0.7120 0.7270 0.7310 0.7610
1615.765761 0.7790 0.7930 0.7950 0.8020 0.8080
1620.691877 0.8120 0.8200 0.8250 0.8290 0.8300
1625.617994 0.8320 0.8330 0.8340 0.8340 0.8340
1630.544110 0.8330 0.8320 0.8300 0.8280 0.8250
1635.470227 0.8240 0.8210 0.8210 0.8180 0.8170
1640.396343 0.8130 0.8050 0.8040 0.8010 0.7980
1645.322460 0.7970 0.7950 0.7940 0.7930 0.7930
1650.248577 0.7940 0.7950 0.7970 0.7980 0.8010
1655.174693 0.8050 0.8080 0.8130 0.8160 0.8210
1660.100810 0.8320 0.8340 0.8370 0.8410 0.8460
1665.026926 0.8530 0.8570 0.8590 0.8610 0.8650
1669.953043 0.8690 0.8730 0.8730 0.8750 0.8750
1674.879160 0.8760 0.8770 0.8770 0.8790 0.8790
1679.805276 0.8800 0.8800 0.8800 0.8810 0.8810
1684.731393 0.8810 0.8810 0.8810 0.8810 0.8810
1689.657509 0.8810 0.8810 0.8810 0.8810 0.8810
1694.583626 0.8810 0.8840 0.8850 0.8850 0.8870
1699.509743 0.8870 0.8870 0.8870 0.8850 0.8850
1704.435859 0.8850 0.8840 0.8840 0.8830 0.8830
1709.361976 0.8830 0.8810 0.8800 0.8800 0.8800
1714.288092 0.8770 0.8760 0.8760 0.8750 0.8750
1719.214209 0.8750 0.8750 0.8760 0.8760 0.8760
1724.140325 0.8770 0.8800 0.8800 0.8840 0.8870
1729.066442 0.8880 0.8920 0.8920 0.8930 0.8950
1733.992559 0.8950 0.8950 0.8960 0.8960 0.8970
1738.918675 0.8970 0.8970 0.8970 0.8970 0.8970
1743.844792 0.8970 0.8990 0.8990 0.8990 0.9000
1748.770908 0.9020 0.9020 0.9030 0.9030 0.9030
1753.697025 0.9030 0.9030 0.9040 0.9040 0.9040
1758.623142 0.9040 0.9040 0.9030 0.9030 0.9030
1763.549258 0.9030 0.9030 0.9030 0.9030 0.9030
1768.475375 0.9030 0.9020 0.9020 0.9020 0.9020
1773.401491 0.9020 0.9020 0.9020 0.9020 0.9020
1778.327608 0.9020 0.9020 0.9020 0.9030 0.9030
1783.253724 0.9030 0.9030 0.9040 0.9040 0.9040
1788.179841 0.9040 0.9040 0.9040 0.9040 0.9060
1793.105958 0.9030 0.9030 0.9030 0.9030 0.9030
1798.032074 0.9030 0.9030 0.9030 0.9030 0.9030
1802.958191 0.9030 0.9030 0.9030 0.9030 0.9030
1807.884307 0.9030 0.9030 0.9030 0.9020 0.9020
1812.810424 0.9020 0.9020 0.9020 0.9020 0.9020
1817.736541 0.9020 0.9000 0.9000 0.9000 0.9000
1822.662657 0.9000 0.8990 0.8990 0.8990 0.8990
1827.588774 0.8970 0.8970 0.8970 0.8970 0.8960
1832.514890 0.8960 0.8960 0.8950 0.8950 0.8950
1837.441007 0.8930 0.8930 0.8930 0.8920 0.8920
1842.367123 0.8920 0.8920 0.8920 0.8920 0.8920
1847.293240 0.8920 0.8920 0.8920 0.8920 0.8930
1852.219357 0.8930 0.8930 0.8930 0.8930 0.8930
1857.145473 0.8930 0.8930 0.8930 0.8930 0.8920
1862.071590 0.8920 0.8920 0.8920 0.8920 0.8920
1866.997706 0.8920 0.8910 0.8890 0.8890 0.8880
1871.923823 0.8880 0.8880 0.8870 0.8870 0.8870
1876.849940 0.8850 0.8840 0.8840 0.8830 0.8810
1881.776056 0.8810 0.8800 0.8790 0.8790 0.8770
1886.702173 0.8750 0.8750 0.8730 0.8720 0.8690
1891.628289 0.8670 0.8640 0.8610 0.8590 0.8570
1896.554406 0.8550 0.8520 0.8450 0.8400 0.8360
1901.480523 0.8340 0.8330 0.8260 0.8180 0.8140
1906.406639 0.8090 0.8040 0.7980 0.7910 0.7860
1911.332756 0.7810 0.7750 0.7700 0.7620 0.7480
1916.258872 0.7420 0.7380 0.7350 0.7340 0.7340
1921.184989 0.7340 0.7340 0.7340 0.7340 0.7340
1926.111105 0.7340 0.7350 0.7350 0.7380 0.7400
1931.037222 0.7430 0.7540 0.7570 0.7590 0.7650
1935.963339 0.7670 0.7750 0.7820 0.7900 0.7950
1940.889455 0.7980 0.8000 0.8050 0.8140 0.8200
1945.815572 0.8280 0.8320 0.8340 0.8380 0.8450
1950.741688 0.8510 0.8550 0.8550 0.8590 0.8610
1955.667805 0.8630 0.8640 0.8650 0.8670 0.8680
1960.593922 0.8680 0.8680 0.8680 0.8680 0.8690
1965.520038 0.8710 0.8730 0.8750 0.8760 0.8760
1970.446155 0.8770 0.8770 0.8770 0.8770 0.8770
1975.372271 0.8790 0.8800 0.8810 0.8830 0.8840
1980.298388 0.8870 0.8870 0.8880 0.8890 0.8920
1985.224504 0.8920 0.8930 0.8950 0.8950 0.8960
1990.150621 0.8970 0.8970 0.8970 0.8990 0.8990
1995.076738 0.9000 0.9000 0.9000 0.9000 0.9000
2000.002854 0.9000 0.8995 0.8990 0.8980 0.8970
2004.928971 0.8970 0.8970 0.8970 0.8970 0.8970
2009.855087 0.8970 0.8970 0.8970 0.8970 0.8970
2014.781204 0.8980 0.8990 0.8990 0.8990 0.8990
2019.707321 0.8990 0.8990 0.8990 0.8990 0.8990
2024.633437 0.8990 0.8990 0.8990 0.8990 0.8990
2029.559554 0.8990 0.8990 0.8990 0.8990 0.8990
2034.485670 0.8990 0.8990 0.8990 0.8990 0.8990
2039.411787 0.8990 0.8990 0.8990 0.8990 0.8990
2044.337904 0.8990 0.8990 0.8990 0.8990 0.8990
2049.264020 0.8990 0.8990 0.8990 0.8990 0.8990
2054.190137 0.8990 0.8990 0.8990 0.8990 0.8990
2059.116253 0.8990 0.8990 0.8990 0.8990 0.8990
2064.042370 0.8990 0.8990 0.8995 0.9000 0.9000
2068.968486 0.9000 0.9000 0.9000 0.9000 0.9000
2073.894603 0.9000 0.9000 0.9000 0.9000 0.9000
2078.820720 0.9000 0.9000 0.9000 0.9000 0.9000
2083.746836 0.9000 0.9000 0.9000 0.9000 0.9000
2088.672953 0.9000 0.9000 0.9000 0.9000 0.9000
2093.599069 0.9000 0.9000 0.9000 0.9000 0.8995
2098.525186 0.8990 0.8990 0.8990 0.8990 0.8990
2103.451303 0.8990 0.8990 0.8990 0.8990 0.8990
2108.377419 0.8990 0.8990 0.8990 0.8990 0.8990
2113.303536 0.8990 0.8990 0.8990 0.8990 0.8981
2118.229652 0.8971 0.8970 0.8970 0.8970 0.8970
2123.155769 0.8965 0.8960 0.8960 0.8960 0.8960
2128.081885 0.8960 0.8955 0.8950 0.8950 0.8950
2133.008002 0.8950 0.8950 0.8950 0.8950 0.8950
2137.934119 0.8950 0.8941 0.8931 0.8930 0.8930
2142.860235 0.8930 0.8930 0.8930 0.8930 0.8930
2147.786352 0.8930 0.8925 0.8920 0.8920 0.8920
2152.712468 0.8920 0.8920 0.8916 0.8911 0.8910
2157.638585 0.8910 0.8901 0.8891 0.8885 0.8880
2162.564702 0.8880 0.8880 0.8875 0.8870 0.8861
2167.490818 0.8851 0.8850 0.8850 0.8846 0.8841
2172.416935 0.8836 0.8831 0.8830 0.8830 0.8821
2177.343051 0.8811 0.8810 0.8810 0.8810 0.8810
2182.269168 0.8810 0.8810 0.8806 0.8801 0.8796
2187.195284 0.8791 0.8790 0.8790 0.8781 0.8771
2192.121401 0.8770 0.8770 0.8766 0.8761 0.8756
2197.047518 0.8751 0.8741 0.8731 0.8721 0.8711
2201.973634 0.8692 0.8672 0.8661 0.8651 0.8641
2206.899751 0.8631 0.8604 0.8574 0.8561 0.8551
2211.825867 0.8533 0.8513 0.8462 0.8407 0.8335
2216.751984 0.8259 0.8140 0.8015 0.7846 0.7672
2221.678101 0.7532 0.7397 0.7258 0.7118 0.6900
2226.604217 0.6671 0.6264 0.5829 0.5498 0.5184
2231.530334 0.4685 0.4156 0.3468 0.2755 0.2650
2236.456450 0.2650 0.3224 0.3883 0.4538 0.5192
2241.382567 0.6031 0.6900 0.7614 0.8302 0.8417
2246.308684 0.8437 0.8457 0.8477 0.8518 0.8563
2251.234800 0.8583 0.8598 0.8600 0.8600 0.8617
2256.160917 0.8637 0.8657 0.8677 0.8684 0.8689
2261.087033 0.8699 0.8709 0.8710 0.8710 0.8702
2266.013150 0.8692 0.8686 0.8681 0.8642 0.8597
2270.939266 0.8557 0.8517 0.8464 0.8409 0.8350
2275.865383 0.8289 0.8233 0.8178 0.8166 0.8161
2280.791500 0.8164 0.8169 0.8233 0.8308 0.8433
2285.717616 0.8568 0.8627 0.8672 0.8713 0.8753
2290.643733 0.8789 0.8824 0.8846 0.8866 0.8891
2295.569849 0.8916 0.8920 0.8920 0.8924 0.8929
2300.495966 0.8938 0.8948 0.8950 0.8950 0.8950
2305.422083 0.8950 0.8950 0.8950 0.8950 0.8950
2310.348199 0.8950 0.8950 0.8954 0.8959 0.8960
2315.274316 0.8960 0.8960 0.8960 0.8960 0.8960
2320.200432 0.8960 0.8960 0.8960 0.8960 0.8960
2325.126549 0.8960 0.8964 0.8969 0.8970 0.8970
2330.052665 0.8970 0.8970 0.8970 0.8970 0.8970
2334.978782 0.8970 0.8970 0.8970 0.8970 0.8970
2339.904899 0.8970 0.8970 0.8970 0.8970 0.8970
2344.831015 0.8970 0.8970 0.8970 0.8966 0.8961
2349.757132 0.8960 0.8960 0.8960 0.8960 0.8960
2354.683248 0.8960 0.8956 0.8951 0.8950 0.8950
2359.609365 0.8942 0.8932 0.8930 0.8930 0.8930
2364.535482 0.8930 0.8930 0.8930 0.8930 0.8930
2369.461598 0.8930 0.8930 0.8930 0.8930 0.8926
2374.387715 0.8921 0.8920 0.8920 0.8920 0.8920
2379.313831 0.8924 0.8929 0.8930 0.8930 0.8930
2384.239948 0.8930 0.8930 0.8930 0.8930 0.8930
2389.166064 0.8930 0.8930 0.8930 0.8930 0.8930
2394.092181 0.8930 0.8930 0.8930 0.8938 0.8948
2399.018298 0.8950 0.8950 0.8950 0.8950 0.8950
2403.944414 0.8950 0.8950 0.8950 0.8950 0.8950
2408.870531 0.8950 0.8950 0.8950 0.8950 0.8950
2413.796647 0.8950 0.8950 0.8950 0.8950 0.8950
2418.722764 0.8950 0.8950 0.8942 0.8932 0.8930
2423.648881 0.8930 0.8930 0.8930 0.8938 0.8948
2428.574997 0.8950 0.8950 0.8950 0.8950 0.8950
2433.501114 0.8950 0.8950 0.8950 0.8942 0.8932
2438.427230 0.8926 0.8921 0.8924 0.8929 0.8930
2443.353347 0.8930 0.8930 0.8930 0.8930 0.8930
2448.279464 0.8930 0.8930 0.8926 0.8921 0.8920
2453.205580 0.8920 0.8920 0.8920 0.8916 0.8911
2458.131697 0.8903 0.8893 0.8890 0.8890 0.8890
2463.057813 0.8890 0.8897 0.8907 0.8910 0.8910
2467.983930 0.8914 0.8919 0.8920 0.8920 0.8920
2472.910046 0.8920 0.8920 0.8920 0.8920 0.8920
2477.836163 0.8920 0.8920 0.8924 0.8929 0.8937
2482.762280 0.8947 0.8950 0.8950 0.8950 0.8950
2487.688396 0.8950 0.8950 0.8950 0.8950 0.8950
2492.614513 0.8950 0.8950 0.8950 0.8954 0.8959
2497.540629 0.8949 0.8934 0.8930 0.8930 0.8930
2502.466746 0.8930 0.8930 0.8930 0.8930 0.8930
2507.392863 0.8930 0.8930 0.8930 0.8930 0.8930
2512.318979 0.8930 0.8937 0.8947 0.8954 0.8959
2517.245096 0.8956 0.8951 0.8950 0.8950 0.8950
2522.171212 0.8950 0.8950 0.8950 0.8950 0.8950
2527.097329 0.8950 0.8950 0.8950 0.8950 0.8950
2532.023445 0.8950 0.8950 0.8950 0.8950 0.8950
2536.949562 0.8950 0.8950 0.8953 0.8958 0.8960
2541.875679 0.8960 0.8960 0.8960 0.8960 0.8960
2546.801795 0.8960 0.8960 0.8960 0.8960 0.8960
2551.727912 0.8960 0.8960 0.8960 0.8960 0.8960
2556.654028 0.8960 0.8960 0.8960 0.8960 0.8960
2561.580145 0.8960 0.8960 0.8960 0.8960 0.8960
2566.506262 0.8960 0.8960 0.8960 0.8960 0.8957
2571.432378 0.8952 0.8950 0.8950 0.8950 0.8950
2576.358495 0.8950 0.8950 0.8950 0.8950 0.8953
2581.284611 0.8958 0.8960 0.8960 0.8960 0.8960
2586.210728 0.8960 0.8960 0.8960 0.8960 0.8960
2591.136845 0.8960 0.8960 0.8960 0.8963 0.8968
2596.062961 0.8970 0.8970 0.8977 0.8987 0.8990
2600.989078 0.8990 0.8990 0.8990 0.8990 0.8990
2605.915194 0.8983 0.8974 0.8976 0.8986 0.8990
2610.841311 0.8990 0.8990 0.8990 0.8993 0.8998
2615.767427 0.9000 0.9000 0.8997 0.8992 0.8990
2620.693544 0.8990 0.8990 0.8990 0.8990 0.8990
2625.619661 0.8990 0.8990 0.8993 0.8998 0.9000
2630.545777 0.9000 0.9007 0.9017 0.9020 0.9020
2635.471894 0.9020 0.9020 0.9014 0.9004 0.8997
2640.398010 0.8992 0.8990 0.8990 0.8990 0.8990
2645.324127 0.8990 0.8990 0.8984 0.8974 0.8970
2650.250244 0.8970 0.8970 0.8970 0.8967 0.8962
2655.176360 0.8960 0.8960 0.8960 0.8960 0.8960
2660.102477 0.8960 0.8960 0.8960 0.8960 0.8960
2665.028593 0.8957 0.8952 0.8944 0.8934 0.8930
2669.954710 0.8930 0.8927 0.8922 0.8920 0.8920
2674.880826 0.8911 0.8896 0.8887 0.8882 0.8877
2679.806943 0.8872 0.8864 0.8854 0.8844 0.8834
2684.733060 0.8830 0.8830 0.8824 0.8814 0.8807
2689.659176 0.8802 0.8797 0.8792 0.8790 0.8790
2694.585293 0.8793 0.8798 0.8803 0.8808 0.8822
2699.511409 0.8842 0.8868 0.8898 0.8922 0.8942
2704.437526 0.8953 0.8958 0.8969 0.8984 0.8990
2709.363643 0.8990 0.8990 0.8990 0.8993 0.8998
2714.289759 0.9000 0.9000 0.9006 0.9016 0.9020
2719.215876 0.9020 0.9014 0.9004 0.9000 0.9000
2724.141992 0.9000 0.9000 0.9000 0.9000 0.8997
2729.068109 0.8992 0.8990 0.8990 0.8984 0.8974
2733.994225 0.8970 0.8970 0.8979 0.8994 0.9006
2738.920342 0.9016 0.9020 0.9020 0.9020 0.9020
2743.846459 0.9020 0.9020 0.9020 0.9020 0.9020
2748.772575 0.9020 0.9020 0.9020 0.9020 0.9020
2753.698692 0.9020 0.9020 0.9020 0.9020 0.9014
2758.624808 0.9004 0.9000 0.9000 0.9000 0.9000
2763.550925 0.9000 0.9000 0.9000 0.9000 0.8997
2768.477042 0.8992 0.8990 0.8990 0.8990 0.8990
2773.403158 0.8990 0.8990 0.8984 0.8974 0.8970
2778.329275 0.8970 0.8967 0.8962 0.8960 0.8960
2783.255391 0.8957 0.8952 0.8950 0.8950 0.8950
2788.181508 0.8950 0.8950 0.8950 0.8950 0.8950
2793.107625 0.8953 0.8958 0.8963 0.8968 0.8976
2798.033741 0.8985 0.8993 0.8998 0.9000 0.9000
2802.959858 0.9000 0.9000 0.9000 0.9000 0.8997
2807.885974 0.8992 0.8990 0.8990 0.8990 0.8990
2812.812091 0.8990 0.8990 0.8990 0.8990 0.8985
2817.738207 0.8975 0.8970 0.8970 0.8970 0.8970
2822.664324 0.8970 0.8970 0.8970 0.8970 0.8970
2827.590441 0.8970 0.8970 0.8970 0.8967 0.8962
2832.516557 0.8960 0.8960 0.8957 0.8952 0.8950
2837.442674 0.8950 0.8945 0.8935 0.8930 0.8930
2842.368790 0.8927 0.8922 0.8920 0.8920 0.8917
2847.294907 0.8912 0.8905 0.8895 0.8887 0.8882
2852.221024 0.8877 0.8872 0.8870 0.8870 0.8865
2857.147140 0.8855 0.8847 0.8842 0.8837 0.8832
2862.073257 0.8825 0.8815 0.8807 0.8802 0.8797
2866.999373 0.8792 0.8782 0.8767 0.8752 0.8737
2871.925490 0.8727 0.8722 0.8720 0.8720 0.8717
2876.851606 0.8712 0.8702 0.8687 0.8683 0.8688
2881.777723 0.8695 0.8705 0.8715 0.8725 0.8735
2886.703840 0.8745 0.8750 0.8750 0.8753 0.8758
2891.629956 0.8760 0.8760 0.8762 0.8768 0.8770
2896.556073 0.8770 0.8770 0.8770 0.8768 0.8763
2901.482189 0.8760 0.8760 0.8758 0.8753 0.8750
2906.408306 0.8750 0.8745 0.8735 0.8730 0.8730
2911.334423 0.8728 0.8723 0.8720 0.8720 0.8720
2916.260539 0.8720 0.8720 0.8720 0.8718 0.8713
2921.186656 0.8712 0.8717 0.8718 0.8713 0.8710
2926.112772 0.8710 0.8705 0.8695 0.8690 0.8690
2931.038889 0.8695 0.8705 0.8710 0.8710 0.8712
2935.965006 0.8717 0.8720 0.8720 0.8720 0.8720
2940.891122 0.8720 0.8720 0.8713 0.8698 0.8688
2945.817239 0.8683 0.8680 0.8680 0.8680 0.8680
2950.743355 0.8680 0.8680 0.8680 0.8680 0.8678
2955.669472 0.8673 0.8670 0.8670 0.8665 0.8655
2960.595588 0.8650 0.8650 0.8650 0.8650 0.8650
2965.521705 0.8650 0.8648 0.8643 0.8638 0.8633
2970.447822 0.8630 0.8630 0.8630 0.8630 0.8623
2975.373938 0.8608 0.8593 0.8578 0.8566 0.8556
2980.300055 0.8546 0.8536 0.8528 0.8523 0.8520
2985.226171 0.8520 0.8522 0.8527 0.8530 0.8530
2990.152288 0.8535 0.8544 0.8552 0.8557 0.8569
2995.078405 0.8589 0.8607 0.8622 0.8630 0.8630
3000.004521 0.8630 0.8630 0.8630 0.8630 0.8626
3004.930638 0.8616 0.8606 0.8596 0.8577 0.8547
3009.856754 0.8519 0.8494 0.8473 0.8458 0.8444
3014.782871 0.8429 0.8416 0.8406 0.8396 0.8386
3019.708987 0.8372 0.8352 0.8307 0.8227 0.8144
3024.635104 0.8059 0.7977 0.7903 0.7817 0.7717
3029.561221 0.7660 0.7660 0.7671 0.7696 0.7727
3034.487337 0.7767 0.7828 0.7917 0.7980 0.8005
3039.413454 0.8065 0.8175 0.8244 0.8254 0.8264
3044.339570 0.8274 0.8280 0.8280 0.8276 0.8266
3049.265687 0.8258 0.8253 0.8242 0.8222 0.8200
3054.191804 0.8175 0.8154 0.8139 0.8114 0.8074
3059.117920 0.8044 0.8029 0.8012 0.7992 0.7972
3064.044037 0.7952 0.7884 0.7750 0.7666 0.7656
3068.970153 0.7654 0.7664 0.7686 0.7726 0.7770
3073.896270 0.7820 0.7868 0.7913 0.7956 0.7996
3078.822386 0.8057 0.8152 0.8216 0.8231 0.8242
3083.748503 0.8247 0.8250 0.8250 0.8248 0.8243
3088.674620 0.8236 0.8226 0.8208 0.8178 0.8152
3093.600736 0.8132 0.8120 0.8120 0.8135 0.8175
3098.526853 0.8211 0.8241 0.8273 0.8308 0.8338
3103.452969 0.8358 0.8372 0.8377 0.8380 0.8380
3108.379086 0.8380 0.8380 0.8380 0.8380 0.8384
3113.305203 0.8394 0.8408 0.8427 0.8442 0.8447
3118.231319 0.8465 0.8505 0.8535 0.8550 0.8562
3123.157436 0.8567 0.8574 0.8584 0.8590 0.8590
3128.083552 0.8592 0.8597 0.8609 0.8634 0.8655
3133.009669 0.8670 0.8682 0.8687 0.8695 0.8710
3137.935786 0.8720 0.8720 0.8725 0.8740 0.8750
3142.861902 0.8750 0.8752 0.8757 0.8762 0.8767
3147.788019 0.8774 0.8784 0.8792 0.8797 0.8800
3152.714135 0.8800 0.8802 0.8807 0.8813 0.8823
3157.640252 0.8830 0.8830 0.8833 0.8843 0.8855
3162.566368 0.8870 0.8882 0.8887 0.8894 0.8904
3167.492485 0.8912 0.8917 0.8920 0.8920 0.8922
3172.418602 0.8927 0.8930 0.8930 0.8930 0.8930
3177.344718 0.8933 0.8943 0.8950 0.8950 0.8952
3182.270835 0.8957 0.8960 0.8960 0.8960 0.8960
3187.196951 0.8960 0.8960 0.8960 0.8960 0.8962
3192.123068 0.8967 0.8970 0.8970 0.8970 0.8970
3197.049185 0.8970 0.8970 0.8970 0.8970 0.8973
3201.975301 0.8983 0.8990 0.8990 0.8990 0.8990
3206.901418 0.8992 0.8997 0.9000 0.9000 0.9003
3211.827534 0.9013 0.9022 0.9027 0.9030 0.9030
3216.753651 0.9030 0.9030 0.9032 0.9037 0.9040
3221.679767 0.9040 0.9040 0.9040 0.9043 0.9053
3226.605884 0.9060 0.9060 0.9062 0.9067 0.9070
3231.532001 0.9070 0.9070 0.9070 0.9070 0.9070
3236.458117 0.9070 0.9070 0.9070 0.9070 0.9070
3241.384234 0.9070 0.9070 0.9070 0.9070 0.9070
3246.310350 0.9070 0.9070 0.9070 0.9070 0.9070
3251.236467 0.9070 0.9070 0.9070 0.9069 0.9064
3256.162584 0.9060 0.9060 0.9060 0.9060 0.9060
3261.088700 0.9060 0.9057 0.9047 0.9040 0.9040
3266.014817 0.9040 0.9040 0.9040 0.9040 0.9040
3270.940933 0.9040 0.9043 0.9053 0.9060 0.9060
3275.867050 0.9060 0.9060 0.9060 0.9060 0.9060
3280.793166 0.9060 0.9060 0.9060 0.9057 0.9047
3285.719283 0.9040 0.9040 0.9040 0.9040 0.9040
3290.645400 0.9040 0.9040 0.9040 0.9039 0.9034
3295.571516 0.9030 0.9030 0.9029 0.9024 0.9020
3300.497633 0.9020 0.9017 0.9007 0.9000 0.9000
3305.423749 0.8999 0.8994 0.8990 0.8990 0.8986
3310.349866 0.8971 0.8959 0.8954 0.8947 0.8937
3315.275983 0.8925 0.8905 0.8890 0.8890 0.8895
3320.202099 0.8915 0.8935 0.8955 0.8973 0.8983
3325.128216 0.8990 0.8990 0.8991 0.8996 0.9000
3330.054332 0.9000 0.9000 0.9000 0.9000 0.9000
3334.980449 0.9000 0.9000 0.9002 0.9012 0.9020
3339.906566 0.9020 0.9017 0.9007 0.8999 0.8994
3344.832682 0.8990 0.8990 0.8990 0.8990 0.8990
3349.758799 0.8990 0.8990 0.8990 0.8991 0.8996
3354.684915 0.9000 0.9000 0.9000 0.9000 0.9000
3359.611032 0.9000 0.9000 0.9000 0.9000 0.9000
3364.537148 0.9002 0.9012 0.9020 0.9020 0.9020
3369.463265 0.9020 0.9020 0.9020 0.9020 0.9020
3374.389382 0.9020 0.9020 0.9020 0.9020 0.9018
3379.315498 0.9008 0.9000 0.9000 0.9000 0.9000
3384.241615 0.9002 0.9012 0.9020 0.9020 0.9020
3389.167731 0.9020 0.9020 0.9020 0.9020 0.9020
3394.093848 0.9020 0.9020 0.9020 0.9020 0.9021
3399.019965 0.9026 0.9029 0.9024 0.9020 0.9020
3403.946081 0.9020 0.9020 0.9020 0.9020 0.9020
3408.872198 0.9020 0.9020 0.9020 0.9020 0.9020
3413.798314 0.9020 0.9020 0.9020 0.9020 0.9020
3418.724431 0.9020 0.9020 0.9020 0.9020 0.9020
3423.650547 0.9021 0.9026 0.9029 0.9024 0.9020
3428.576664 0.9020 0.9020 0.9020 0.9020 0.9020
3433.502781 0.9018 0.9008 0.9000 0.9000 0.9003
3438.428897 0.9018 0.9029 0.9024 0.9020 0.9020
3443.355014 0.9020 0.9020 0.9020 0.9020 0.9021
3448.281130 0.9026 0.9030 0.9030 0.9030 0.9030
3453.207247 0.9030 0.9030 0.9030 0.9030 0.9029
3458.133364 0.9024 0.9020 0.9020 0.9020 0.9020
3463.059480 0.9020 0.9020 0.9020 0.9020 0.9020
3467.985597 0.9020 0.9020 0.9020 0.9020 0.9020
3472.911713 0.9020 0.9020 0.9018 0.9008 0.9000
3477.837830 0.9000 0.9000 0.9000 0.9000 0.9000
3482.763947 0.8999 0.8994 0.8990 0.8990 0.8990
3487.690063 0.8990 0.8988 0.8978 0.8969 0.8964
3492.616180 0.8960 0.8960 0.8959 0.8954 0.8950
3497.542296 0.8950 0.8948 0.8938 0.8930 0.8930
3502.468413 0.8928 0.8918 0.8910 0.8910 0.8908
3507.394529 0.8893 0.8880 0.8880 0.8879 0.8874
3512.320646 0.8870 0.8870 0.8870 0.8870 0.8870
3517.246763 0.8870 0.8868 0.8858 0.8850 0.8850
3522.172879 0.8850 0.8850 0.8849 0.8844 0.8840
3527.098996 0.8840 0.8839 0.8834 0.8829 0.8819
3532.025112 0.8809 0.8804 0.8799 0.8794 0.8790
3536.951229 0.8790 0.8789 0.8779 0.8770 0.8770
3541.877346 0.8769 0.8764 0.8760 0.8760 0.8759
3546.803462 0.8754 0.8750 0.8750 0.8750 0.8750
3551.729579 0.8750 0.8750 0.8750 0.8750 0.8751
3556.655695 0.8756 0.8761 0.8766 0.8771 0.8781
3561.581812 0.8790 0.8790 0.8791 0.8796 0.8801
3566.507928 0.8806 0.8811 0.8821 0.8831 0.8836
3571.434045 0.8841 0.8846 0.8852 0.8867 0.8882
3576.360162 0.8897 0.8911 0.8916 0.8921 0.8926
3581.286278 0.8930 0.8930 0.8931 0.8941 0.8951
3586.212395 0.8956 0.8960 0.8960 0.8961 0.8966
3591.138511 0.8970 0.8970 0.8971 0.8981 0.8991
3596.064628 0.8996 0.9001 0.9011 0.9021 0.9026
3600.990745 0.9031 0.9036 0.9040 0.9040 0.9040
3605.916861 0.9040 0.9039 0.9035 0.9030 0.9025
3610.842978 0.9019 0.9009 0.9000 0.8995 0.8989
3615.769094 0.8979 0.8969 0.8964 0.8959 0.8954
3620.695211 0.8949 0.8939 0.8930 0.8925 0.8920
3625.621327 0.8915 0.8910 0.8910 0.8910 0.8910
3630.547444 0.8910 0.8910 0.8910 0.8915 0.8920
3635.473561 0.8925 0.8931 0.8946 0.8960 0.8960
3640.399677 0.8960 0.8965 0.8970 0.8970 0.8970
3645.325794 0.8970 0.8970 0.8965 0.8960 0.8960
3650.251910 0.8959 0.8944 0.8930 0.8925 0.8920
3655.178027 0.8915 0.8909 0.8899 0.8890 0.8885
3660.104144 0.8880 0.8875 0.8869 0.8859 0.8850
3665.030260 0.8850 0.8850 0.8845 0.8840 0.8835
3669.956377 0.8829 0.8819 0.8810 0.8805 0.8800
3674.882493 0.8795 0.8789 0.8779 0.8770 0.8770
3679.808610 0.8770 0.8770 0.8771 0.8781 0.8791
3684.734727 0.8811 0.8831 0.8851 0.8871 0.8896
3689.660843 0.8921 0.8936 0.8950 0.8955 0.8961
3694.586960 0.8981 0.9001 0.9016 0.9031 0.9051
3699.513076 0.9071 0.9091 0.9111 0.9131 0.9151
3704.439193 0.9171 0.9190 0.9190 0.9190 0.9190
3709.365309 0.9190 0.9195 0.9200 0.9210 0.9220
3714.291426 0.9220 0.9220 0.9225 0.9230 0.9235
3719.217543 0.9240 0.9250 0.9260 0.9265 0.9270
3724.143659 0.9275 0.9280 0.9280 0.9280 0.9280
3729.069776 0.9280 0.9280 0.9280 0.9290 0.9300
3733.995892 0.9300 0.9300 0.9305 0.9310 0.9310
3738.922009 0.9309 0.9295 0.9280 0.9280 0.9280
3743.848126 0.9280 0.9280 0.9280 0.9280 0.9280
3748.774242 0.9280 0.9275 0.9270 0.9265 0.9260
3753.700359 0.9260 0.9260 0.9260 0.9260 0.9265
3758.626475 0.9270 0.9275 0.9280 0.9275 0.9270
3763.552592 0.9270 0.9270 0.9270 0.9270 0.9270
3768.478708 0.9270 0.9275 0.9280 0.9290 0.9300
3773.404825 0.9300 0.9300 0.9300 0.9300 0.9300
3778.330942 0.9300 0.9290 0.9280 0.9280 0.9280
3783.257058 0.9280 0.9280 0.9280 0.9280 0.9290
3788.183175 0.9300 0.9300 0.9300
##END=
