##TITLE=Ethylene diamine
##JCAMP-DX=4.24
##DATA TYPE=INFRARED SPECTRUM
##CLASS=COBLENTZ III
##ORIGIN=DOW CORNING CORP.
##OWNER=Copyright (C) 1987 by the Coblentz Society
Collection (C) 2018 copyright by the U.S. Secretary of Commerce
on behalf of the United States of America. All rights reserved.
##DATE=1968/05/09
##NAMES=1,2-ethanediamine
##CAS REGISTRY NO=107-15-3
##MOLFORM=C2 H8 N2
##BP=117 C
##SOURCE REFERENCE=COBLENTZ NO. 5560
##$NIST SOURCE=COBLENTZ
##$NIST IMAGE=cob5560
##SPECTROMETER/DATA SYSTEM=PERKIN-ELMER 521 (GRATING)
##INSTRUMENT PARAMETERS=FILTERS AT 3150, 2500, 2000, 1150, 700, 410. GRATING CHANGES: 2000, 630
##STATE=SOLUTION (11% CCl4 FOR 3800-1000, 6% CS2 FOR 1000-650, AND 11% CCl4 FOR 650-250)
##PATH LENGTH=0.011 CM, 0.011 CM, AND 0.011 CM
$$ SPECTRAL FEATURES AT 1006, 645 CM^-^1 ARE ARTIFACTS CAUSED BY CHANGES IN SOLVENTS
##RESOLUTION=2
##XUNITS=1/CM
##YUNITS=TRANSMITTANCE
##XFACTOR=1.0
##YFACTOR=1
##FIRSTX=246
##LASTX=3808
##FIRSTY=0.3925
##MAXX=3808
##MINX=246
##MAXY=0.9257
##MINY=0.0532
##NPOINTS=3563
##XYDATA=(X++(Y..Y))
246.000000 0.3925 0.3914 0.3903 0.3893 0.3883
251.000000 0.3872 0.3862 0.3851 0.3840 0.3832
256.000000 0.3827 0.3821 0.3815 0.3810 0.3804
261.000000 0.3798 0.3792 0.3791 0.3789 0.3788
266.000000 0.3786 0.3784 0.3783 0.3781 0.3780
271.000000 0.3778 0.3776 0.3776 0.3775 0.3775
276.000000 0.3774 0.3774 0.3773 0.3773 0.3772
281.000000 0.3786 0.3782 0.3796 0.3814 0.3831
286.000000 0.3849 0.3867 0.3888 0.3912 0.3937
291.000000 0.3962 0.3988 0.4015 0.4042 0.4069
296.000000 0.4096 0.4116 0.4135 0.4155 0.4174
301.000000 0.4194 0.4214 0.4231 0.4247 0.4263
306.000000 0.4279 0.4294 0.4310 0.4326 0.4342
311.000000 0.4358 0.4373 0.4388 0.4403 0.4418
316.000000 0.4433 0.4448 0.4462 0.4468 0.4468
321.000000 0.4461 0.4486 0.4445 0.4438 0.4430
326.000000 0.4423 0.4416 0.4410 0.4405 0.4400
331.000000 0.4395 0.4391 0.4386 0.4382 0.4377
336.000000 0.4379 0.4381 0.4385 0.4388 0.4392
341.000000 0.4398 0.4390 0.4418 0.4433 0.4448
346.000000 0.4469 0.4484 0.4500 0.4515 0.4541
351.000000 0.4569 0.4596 0.4631 0.4665 0.4700
356.000000 0.4735 0.4778 0.4821 0.4863 0.4907
361.000000 0.4953 0.5000 0.5046 0.5093 0.5140
366.000000 0.5189 0.5238 0.5286 0.5333 0.5380
371.000000 0.5427 0.5473 0.5500 0.5528 0.5555
376.000000 0.5583 0.5610 0.5638 0.5674 0.5713
381.000000 0.5753 0.5792 0.5832 0.5866 0.5901
386.000000 0.5935 0.5969 0.6003 0.6035 0.6067
391.000000 0.6098 0.6130 0.6162 0.6193 0.6221
396.000000 0.6244 0.6267 0.6290 0.6313 0.6336
401.000000 0.6359 0.6381 0.6404 0.6426 0.6448
406.000000 0.6465 0.6482 0.6499 0.6516 0.6528
411.000000 0.6539 0.6550 0.6558 0.6566 0.6575
416.000000 0.6583 0.6591 0.6596 0.6601 0.6606
421.000000 0.6611 0.6617 0.6622 0.6627 0.6633
426.000000 0.6639 0.6646 0.6652 0.6659 0.6665
431.000000 0.6672 0.6678 0.6685 0.6688 0.6691
436.000000 0.6695 0.6698 0.6701 0.6705 0.6708
441.000000 0.6711 0.6713 0.6751 0.6709 0.6705
446.000000 0.6695 0.6684 0.6670 0.6649 0.6637
451.000000 0.6625 0.6615 0.6615 0.6615 0.6616
456.000000 0.6615 0.6614 0.6611 0.6606 0.6601
461.000000 0.6589 0.6571 0.6553 0.6536 0.6521
466.000000 0.6512 0.6506 0.6508 0.6518 0.6529
471.000000 0.6566 0.6597 0.6604 0.6610 0.6607
476.000000 0.6604 0.6602 0.6598 0.6589 0.6564
481.000000 0.6523 0.6478 0.6433 0.6367 0.6265
486.000000 0.6162 0.6060 0.5958 0.5856 0.5754
491.000000 0.5652 0.5549 0.5447 0.5345 0.5243
496.000000 0.5141 0.5039 0.4936 0.4834 0.4732
501.000000 0.4630 0.4557 0.4512 0.4499 0.4513
506.000000 0.4575 0.4708 0.4841 0.4975 0.5108
511.000000 0.5241 0.5374 0.5508 0.5641 0.5774
516.000000 0.5913 0.6045 0.6138 0.6232 0.6319
521.000000 0.6405 0.6487 0.6551 0.6616 0.6680
526.000000 0.6760 0.6848 0.6928 0.6973 0.7018
531.000000 0.7063 0.7094 0.7116 0.7138 0.7159
536.000000 0.7173 0.7187 0.7201 0.7216 0.7227
541.000000 0.7237 0.7248 0.7259 0.7269 0.7280
546.000000 0.7287 0.7303 0.7296 0.7302 0.7309
551.000000 0.7317 0.7324 0.7331 0.7338 0.7345
556.000000 0.7352 0.7360 0.7367 0.7369 0.7371
561.000000 0.7373 0.7375 0.7373 0.7371 0.7368
566.000000 0.7366 0.7363 0.7360 0.7358 0.7353
571.000000 0.7349 0.7345 0.7341 0.7337 0.7333
576.000000 0.7329 0.7325 0.7320 0.7316 0.7312
581.000000 0.7307 0.7303 0.7299 0.7294 0.7290
586.000000 0.7285 0.7281 0.7280 0.7279 0.7278
591.000000 0.7276 0.7275 0.7274 0.7273 0.7272
596.000000 0.7271 0.7270 0.7269 0.7268 0.7266
601.000000 0.7265 0.7263 0.7260 0.7258 0.7256
606.000000 0.7253 0.7251 0.7249 0.7246 0.7244
611.000000 0.7242 0.7239 0.7237 0.7235 0.7233
616.000000 0.7232 0.7230 0.7228 0.7226 0.7209
621.000000 0.7179 0.7149 0.7063 0.6984 0.6872
626.000000 0.6836 0.6802 0.6789 0.6776 0.6764
631.000000 0.6754 0.6743 0.6732 0.6721 0.6710
636.000000 0.6700 0.6689 0.6678 0.6669 0.6664
641.000000 0.6659 0.6654 0.6653 0.6653 0.6653
646.000000 0.6654 0.6738 0.7069 0.7400 0.7731
651.000000 0.8063 0.8394 0.8725 0.9056 0.9221
656.000000 0.9219 0.9219 0.9224 0.9234 0.9245
661.000000 0.9252 0.9257 0.9247 0.9241 0.9228
666.000000 0.9198 0.9161 0.9108 0.9056 0.9017
671.000000 0.8988 0.8959 0.8932 0.8919 0.8906
676.000000 0.8893 0.8880 0.8871 0.8861 0.8851
681.000000 0.8841 0.8830 0.8818 0.8807 0.8795
686.000000 0.8784 0.8771 0.8758 0.8745 0.8732
691.000000 0.8718 0.8697 0.8674 0.8652 0.8629
696.000000 0.8605 0.8581 0.8556 0.8532 0.8507
701.000000 0.8481 0.8452 0.8424 0.8396 0.8367
706.000000 0.8342 0.8316 0.8291 0.8266 0.8240
711.000000 0.8212 0.8178 0.8145 0.8112 0.8079
716.000000 0.8040 0.7995 0.7951 0.7906 0.7861
721.000000 0.7817 0.7764 0.7710 0.7657 0.7608
726.000000 0.7559 0.7511 0.7462 0.7414 0.7365
731.000000 0.7310 0.7254 0.7197 0.7141 0.7085
736.000000 0.7029 0.6972 0.6900 0.6828 0.6756
741.000000 0.6688 0.6628 0.6568 0.6508 0.6444
746.000000 0.6308 0.6172 0.6037 0.5945 0.5854
751.000000 0.5764 0.5674 0.5580 0.5484 0.5387
756.000000 0.5290 0.5168 0.5031 0.4894 0.4779
761.000000 0.4669 0.4558 0.4468 0.4380 0.4301
766.000000 0.4243 0.4235 0.4230 0.4230 0.4231
771.000000 0.4275 0.4337 0.4381 0.4419 0.4453
776.000000 0.4487 0.4523 0.4558 0.4594 0.4635
781.000000 0.4678 0.4720 0.4749 0.4777 0.4804
786.000000 0.4807 0.4809 0.4845 0.4807 0.4800
791.000000 0.4792 0.4776 0.4753 0.4728 0.4714
796.000000 0.4700 0.4686 0.4668 0.4640 0.4609
801.000000 0.4574 0.4540 0.4505 0.4475 0.4447
806.000000 0.4433 0.4456 0.4470 0.4494 0.4531
811.000000 0.4577 0.4639 0.4724 0.4840 0.4934
816.000000 0.5027 0.5121 0.5214 0.5308 0.5402
821.000000 0.5495 0.5589 0.5706 0.5801 0.5873
826.000000 0.5925 0.5979 0.6035 0.6090 0.6123
831.000000 0.6155 0.6184 0.6211 0.6238 0.6256
836.000000 0.6269 0.6283 0.6296 0.6303 0.6306
841.000000 0.6309 0.6312 0.6313 0.6347 0.6311
846.000000 0.6311 0.6303 0.6282 0.6262 0.6226
851.000000 0.6184 0.6136 0.6087 0.6047 0.6010
856.000000 0.5974 0.5938 0.5902 0.5844 0.5779
861.000000 0.5714 0.5654 0.5595 0.5573 0.5580
866.000000 0.5584 0.5582 0.5589 0.5598 0.5610
871.000000 0.5690 0.5765 0.5830 0.5898 0.5963
876.000000 0.6026 0.6062 0.6099 0.6130 0.6158
881.000000 0.6185 0.6217 0.6252 0.6286 0.6319
886.000000 0.6347 0.6374 0.6402 0.6430 0.6459
891.000000 0.6488 0.6501 0.6515 0.6528 0.6542
896.000000 0.6555 0.6567 0.6583 0.6613 0.6644
901.000000 0.6677 0.6713 0.6748 0.6784 0.6823
906.000000 0.6861 0.6900 0.6940 0.6983 0.7026
911.000000 0.7065 0.7086 0.7107 0.7128 0.7149
916.000000 0.7170 0.7186 0.7202 0.7218 0.7233
921.000000 0.7249 0.7265 0.7281 0.7296 0.7310
926.000000 0.7325 0.7339 0.7354 0.7369 0.7383
931.000000 0.7398 0.7412 0.7425 0.7437 0.7449
936.000000 0.7461 0.7473 0.7485 0.7496 0.7501
941.000000 0.7507 0.7513 0.7518 0.7524 0.7530
946.000000 0.7536 0.7538 0.7538 0.7537 0.7537
951.000000 0.7537 0.7535 0.7530 0.7525 0.7520
956.000000 0.7516 0.7511 0.7507 0.7506 0.7504
961.000000 0.7503 0.7501 0.7513 0.7510 0.7537
966.000000 0.7549 0.7561 0.7574 0.7587 0.7601
971.000000 0.7614 0.7625 0.7636 0.7646 0.7657
976.000000 0.7666 0.7674 0.7682 0.7689 0.7697
981.000000 0.7703 0.7706 0.7709 0.7712 0.7715
986.000000 0.7718 0.7720 0.7721 0.7722 0.7723
991.000000 0.7724 0.7725 0.7726 0.7727 0.7728
996.000000 0.7642 0.7426 0.7211 0.6996 0.6780
1001.000000 0.6565 0.6350 0.6134 0.5919 0.5703
1006.000000 0.5549 0.5577 0.5610 0.5622 0.5629
1011.000000 0.5626 0.5630 0.5619 0.5607 0.5594
1016.000000 0.5567 0.5540 0.5505 0.5458 0.5411
1021.000000 0.5362 0.5313 0.5249 0.5172 0.5060
1026.000000 0.4972 0.4920 0.4868 0.4816 0.4767
1031.000000 0.4727 0.4701 0.4706 0.4705 0.4716
1036.000000 0.4727 0.4736 0.4743 0.4745 0.4740
1041.000000 0.4739 0.4721 0.4692 0.4648 0.4578
1046.000000 0.4501 0.4450 0.4431 0.4425 0.4425
1051.000000 0.4421 0.4449 0.4493 0.4568 0.4786
1056.000000 0.5006 0.5226 0.5446 0.5666 0.5886
1061.000000 0.6106 0.6292 0.6327 0.6336 0.6344
1066.000000 0.6341 0.6360 0.6338 0.6334 0.6329
1071.000000 0.6323 0.6316 0.6303 0.6282 0.6248
1076.000000 0.6205 0.6171 0.6134 0.6095 0.6055
1081.000000 0.6011 0.5966 0.5903 0.5830 0.5738
1086.000000 0.5621 0.5418 0.5271 0.5133 0.5022
1091.000000 0.4919 0.4836 0.4808 0.4813 0.4799
1096.000000 0.4824 0.4852 0.4920 0.5119 0.5296
1101.000000 0.5496 0.5626 0.5715 0.5805 0.5903
1106.000000 0.5992 0.6070 0.6146 0.6219 0.6286
1111.000000 0.6340 0.6394 0.6447 0.6504 0.6562
1116.000000 0.6615 0.6667 0.6715 0.6763 0.6816
1121.000000 0.6878 0.6925 0.6961 0.6996 0.7020
1126.000000 0.7037 0.7054 0.7071 0.7089 0.7105
1131.000000 0.7122 0.7138 0.7154 0.7166 0.7177
1136.000000 0.7189 0.7200 0.7211 0.7222 0.7233
1141.000000 0.7243 0.7245 0.7248 0.7250 0.7253
1146.000000 0.7255 0.7262 0.7269 0.7275 0.7282
1151.000000 0.7289 0.7298 0.7309 0.7319 0.7329
1156.000000 0.7340 0.7352 0.7363 0.7375 0.7386
1161.000000 0.7398 0.7411 0.7423 0.7436 0.7448
1166.000000 0.7460 0.7473 0.7482 0.7490 0.7498
1171.000000 0.7506 0.7510 0.7510 0.7509 0.7509
1176.000000 0.7508 0.7506 0.7502 0.7498 0.7495
1181.000000 0.7504 0.7514 0.7523 0.7532 0.7552
1186.000000 0.7580 0.7606 0.7631 0.7656 0.7670
1191.000000 0.7681 0.7692 0.7702 0.7710 0.7718
1196.000000 0.7725 0.7733 0.7740 0.7748 0.7755
1201.000000 0.7763 0.7770 0.7775 0.7776 0.7777
1206.000000 0.7778 0.7778 0.7779 0.7780 0.7781
1211.000000 0.7786 0.7791 0.7796 0.7803 0.7822
1216.000000 0.7832 0.7834 0.7836 0.7838 0.7840
1221.000000 0.7838 0.7818 0.7834 0.7832 0.7830
1226.000000 0.7829 0.7826 0.7822 0.7818 0.7814
1231.000000 0.7810 0.7806 0.7802 0.7798 0.7794
1236.000000 0.7790 0.7786 0.7783 0.7779 0.7775
1241.000000 0.7772 0.7770 0.7768 0.7766 0.7763
1246.000000 0.7761 0.7757 0.7752 0.7747 0.7742
1251.000000 0.7737 0.7732 0.7724 0.7713 0.7701
1256.000000 0.7690 0.7677 0.7656 0.7635 0.7610
1261.000000 0.7578 0.7547 0.7516 0.7488 0.7461
1266.000000 0.7434 0.7406 0.7379 0.7341 0.7302
1271.000000 0.7264 0.7226 0.7185 0.7142 0.7099
1276.000000 0.7057 0.7014 0.6972 0.6932 0.6893
1281.000000 0.6854 0.6815 0.6776 0.6739 0.6705
1286.000000 0.6671 0.6637 0.6603 0.6564 0.6519
1291.000000 0.6476 0.6435 0.6408 0.6400 0.6393
1296.000000 0.6388 0.6386 0.6384 0.6386 0.6392
1301.000000 0.6397 0.6403 0.6411 0.6418 0.6426
1306.000000 0.6439 0.6457 0.6475 0.6490 0.6503
1311.000000 0.6516 0.6531 0.6549 0.6567 0.6585
1316.000000 0.6604 0.6618 0.6628 0.6638 0.6648
1321.000000 0.6658 0.6662 0.6665 0.6667 0.6670
1326.000000 0.6672 0.6675 0.6707 0.6671 0.6664
1331.000000 0.6654 0.6643 0.6632 0.6621 0.6600
1336.000000 0.6577 0.6550 0.6512 0.6468 0.6422
1341.000000 0.6377 0.6309 0.6237 0.6165 0.6093
1346.000000 0.6021 0.5924 0.5824 0.5723 0.5556
1351.000000 0.5316 0.5220 0.5153 0.5145 0.5179
1356.000000 0.5195 0.5215 0.5236 0.5275 0.5280
1361.000000 0.5320 0.5272 0.5211 0.5201 0.5193
1366.000000 0.5200 0.5216 0.5270 0.5330 0.5430
1371.000000 0.5511 0.5581 0.5646 0.5701 0.5756
1376.000000 0.5818 0.5883 0.5948 0.6023 0.6099
1381.000000 0.6184 0.6275 0.6346 0.6379 0.6403
1386.000000 0.6416 0.6428 0.6434 0.6438 0.6446
1391.000000 0.6453 0.6461 0.6488 0.6536 0.6587
1396.000000 0.6645 0.6738 0.6835 0.6900 0.6964
1401.000000 0.7030 0.7096 0.7161 0.7226 0.7291
1406.000000 0.7340 0.7375 0.7384 0.7391 0.7387
1411.000000 0.7408 0.7376 0.7370 0.7364 0.7351
1416.000000 0.7336 0.7317 0.7298 0.7278 0.7254
1421.000000 0.7230 0.7207 0.7183 0.7158 0.7132
1426.000000 0.7106 0.7080 0.7042 0.6999 0.6955
1431.000000 0.6916 0.6878 0.6840 0.6801 0.6763
1436.000000 0.6725 0.6679 0.6619 0.6559 0.6498
1441.000000 0.6434 0.6339 0.6243 0.6147 0.6053
1446.000000 0.5959 0.5852 0.5739 0.5620 0.5489
1451.000000 0.5391 0.5314 0.5230 0.5092 0.5008
1456.000000 0.4988 0.4982 0.4983 0.4963 0.5012
1461.000000 0.5079 0.5155 0.5238 0.5382 0.5477
1466.000000 0.5566 0.5641 0.5716 0.5804 0.5888
1471.000000 0.5936 0.5984 0.6032 0.6079 0.6104
1476.000000 0.6128 0.6151 0.6156 0.6162 0.6197
1481.000000 0.6235 0.6264 0.6292 0.6320 0.6328
1486.000000 0.6326 0.6325 0.6325 0.6324 0.6361
1491.000000 0.6320 0.6317 0.6315 0.6312 0.6309
1496.000000 0.6307 0.6304 0.6302 0.6299 0.6297
1501.000000 0.6294 0.6291 0.6282 0.6274 0.6265
1506.000000 0.6257 0.6248 0.6235 0.6220 0.6204
1511.000000 0.6188 0.6173 0.6157 0.6136 0.6114
1516.000000 0.6091 0.6068 0.6044 0.6012 0.5981
1521.000000 0.5950 0.5919 0.5887 0.5856 0.5825
1526.000000 0.5793 0.5757 0.5721 0.5685 0.5649
1531.000000 0.5612 0.5576 0.5540 0.5504 0.5457
1536.000000 0.5409 0.5361 0.5313 0.5265 0.5217
1541.000000 0.5169 0.5120 0.5073 0.5025 0.4978
1546.000000 0.4930 0.4883 0.4835 0.4788 0.4740
1551.000000 0.4679 0.4615 0.4551 0.4487 0.4423
1556.000000 0.4360 0.4297 0.4241 0.4186 0.4130
1561.000000 0.4074 0.4018 0.3963 0.3908 0.3859
1566.000000 0.3809 0.3759 0.3709 0.3660 0.3610
1571.000000 0.3559 0.3507 0.3456 0.3411 0.3376
1576.000000 0.3340 0.3304 0.3269 0.3236 0.3217
1581.000000 0.3197 0.3178 0.3159 0.3140 0.3121
1586.000000 0.3107 0.3092 0.3077 0.3063 0.3048
1591.000000 0.3033 0.3019 0.3008 0.2996 0.2985
1596.000000 0.2973 0.2962 0.2950 0.2941 0.2934
1601.000000 0.2926 0.2919 0.2912 0.2905 0.2898
1606.000000 0.2891 0.2885 0.2882 0.2880 0.2877
1611.000000 0.2875 0.2873 0.2835 0.2882 0.2890
1616.000000 0.2900 0.2910 0.2920 0.2939 0.2983
1621.000000 0.3033 0.3089 0.3168 0.3240 0.3309
1626.000000 0.3386 0.3476 0.3570 0.3670 0.3774
1631.000000 0.3886 0.3999 0.4111 0.4223 0.4335
1636.000000 0.4447 0.4546 0.4603 0.4687 0.4781
1641.000000 0.4879 0.4981 0.5068 0.5145 0.5223
1646.000000 0.5337 0.5453 0.5523 0.5583 0.5642
1651.000000 0.5702 0.5763 0.5824 0.5886 0.5948
1656.000000 0.6025 0.6120 0.6215 0.6288 0.6345
1661.000000 0.6402 0.6458 0.6515 0.6567 0.6615
1666.000000 0.6663 0.6711 0.6756 0.6797 0.6838
1671.000000 0.6879 0.6920 0.6961 0.7002 0.7046
1676.000000 0.7093 0.7139 0.7186 0.7233 0.7279
1681.000000 0.7316 0.7353 0.7389 0.7425 0.7462
1686.000000 0.7497 0.7531 0.7566 0.7596 0.7615
1691.000000 0.7635 0.7654 0.7673 0.7691 0.7700
1696.000000 0.7708 0.7717 0.7727 0.7738 0.7749
1701.000000 0.7760 0.7772 0.7798 0.7823 0.7848
1706.000000 0.7872 0.7895 0.7919 0.7942 0.7967
1711.000000 0.7991 0.8015 0.8040 0.8062 0.8081
1716.000000 0.8100 0.8119 0.8138 0.8157 0.8177
1721.000000 0.8197 0.8217 0.8237 0.8257 0.8277
1726.000000 0.8297 0.8313 0.8329 0.8344 0.8360
1731.000000 0.8376 0.8392 0.8406 0.8416 0.8425
1736.000000 0.8435 0.8444 0.8452 0.8458 0.8462
1741.000000 0.8467 0.8472 0.8477 0.8482 0.8487
1746.000000 0.8492 0.8498 0.8503 0.8508 0.8513
1751.000000 0.8518 0.8524 0.8529 0.8534 0.8539
1756.000000 0.8545 0.8547 0.8549 0.8550 0.8552
1761.000000 0.8554 0.8555 0.8557 0.8559 0.8559
1766.000000 0.8558 0.8558 0.8557 0.8557 0.8556
1771.000000 0.8556 0.8555 0.8555 0.8554 0.8552
1776.000000 0.8551 0.8549 0.8548 0.8546 0.8545
1781.000000 0.8543 0.8542 0.8540 0.8539 0.8537
1786.000000 0.8536 0.8534 0.8532 0.8529 0.8527
1791.000000 0.8525 0.8523 0.8521 0.8519 0.8517
1796.000000 0.8515 0.8513 0.8512 0.8510 0.8508
1801.000000 0.8506 0.8504 0.8502 0.8501 0.8499
1806.000000 0.8497 0.8495 0.8493 0.8491 0.8489
1811.000000 0.8487 0.8485 0.8483 0.8481 0.8479
1816.000000 0.8476 0.8474 0.8472 0.8470 0.8467
1821.000000 0.8464 0.8461 0.8458 0.8455 0.8451
1826.000000 0.8448 0.8445 0.8442 0.8438 0.8435
1831.000000 0.8432 0.8429 0.8426 0.8422 0.8419
1836.000000 0.8416 0.8413 0.8410 0.8407 0.8405
1841.000000 0.8404 0.8402 0.8401 0.8400 0.8398
1846.000000 0.8397 0.8395 0.8394 0.8393 0.8391
1851.000000 0.8390 0.8388 0.8387 0.8386 0.8385
1856.000000 0.8387 0.8389 0.8389 0.8389 0.8389
1861.000000 0.8389 0.8389 0.8388 0.8388 0.8388
1866.000000 0.8388 0.8388 0.8389 0.8389 0.8389
1871.000000 0.8389 0.8390 0.8390 0.8390 0.8390
1876.000000 0.8391 0.8391 0.8391 0.8392 0.8394
1881.000000 0.8395 0.8397 0.8398 0.8400 0.8401
1886.000000 0.8402 0.8404 0.8405 0.8407 0.8409
1891.000000 0.8412 0.8414 0.8416 0.8418 0.8420
1896.000000 0.8422 0.8424 0.8425 0.8427 0.8429
1901.000000 0.8431 0.8432 0.8434 0.8436 0.8439
1906.000000 0.8443 0.8446 0.8449 0.8453 0.8456
1911.000000 0.8460 0.8463 0.8467 0.8470 0.8473
1916.000000 0.8476 0.8478 0.8481 0.8483 0.8485
1921.000000 0.8488 0.8490 0.8493 0.8494 0.8495
1926.000000 0.8496 0.8496 0.8497 0.8497 0.8498
1931.000000 0.8498 0.8499 0.8499 0.8500 0.8501
1936.000000 0.8501 0.8502 0.8506 0.8511 0.8516
1941.000000 0.8520 0.8525 0.8530 0.8535 0.8539
1946.000000 0.8543 0.8547 0.8552 0.8556 0.8560
1951.000000 0.8565 0.8569 0.8574 0.8578 0.8583
1956.000000 0.8587 0.8592 0.8596 0.8601 0.8605
1961.000000 0.8607 0.8608 0.8609 0.8610 0.8611
1966.000000 0.8612 0.8613 0.8614 0.8615 0.8616
1971.000000 0.8617 0.8618 0.8619 0.8620 0.8621
1976.000000 0.8622 0.8621 0.8621 0.8620 0.8620
1981.000000 0.8619 0.8619 0.8618 0.8618 0.8617
1986.000000 0.8617 0.8618 0.8618 0.8619 0.8620
1991.000000 0.8620 0.8621 0.8622 0.8622 0.8623
1996.000000 0.8624 0.8634 0.8644 0.8655 0.8672
2001.000000 0.8695 0.8719 0.8733 0.8748 0.8757
2006.000000 0.8767 0.8769 0.8771 0.8773 0.8776
2011.000000 0.8779 0.8783 0.8783 0.8784 0.8783
2016.000000 0.8783 0.8782 0.8782 0.8782 0.8782
2021.000000 0.8782 0.8760 0.8781 0.8781 0.8780
2026.000000 0.8779 0.8778 0.8777 0.8776 0.8776
2031.000000 0.8775 0.8774 0.8773 0.8772 0.8771
2036.000000 0.8771 0.8770 0.8769 0.8769 0.8769
2041.000000 0.8769 0.8769 0.8769 0.8769 0.8768
2046.000000 0.8768 0.8768 0.8768 0.8768 0.8768
2051.000000 0.8768 0.8768 0.8766 0.8765 0.8763
2056.000000 0.8762 0.8760 0.8759 0.8757 0.8756
2061.000000 0.8754 0.8753 0.8751 0.8750 0.8748
2066.000000 0.8747 0.8745 0.8744 0.8742 0.8741
2071.000000 0.8739 0.8738 0.8737 0.8736 0.8735
2076.000000 0.8735 0.8734 0.8734 0.8733 0.8732
2081.000000 0.8731 0.8731 0.8730 0.8730 0.8729
2086.000000 0.8729 0.8728 0.8728 0.8727 0.8726
2091.000000 0.8725 0.8724 0.8723 0.8722 0.8721
2096.000000 0.8720 0.8719 0.8718 0.8717 0.8716
2101.000000 0.8715 0.8714 0.8713 0.8712 0.8711
2106.000000 0.8710 0.8709 0.8709 0.8708 0.8708
2111.000000 0.8707 0.8707 0.8707 0.8707 0.8707
2116.000000 0.8707 0.8706 0.8706 0.8706 0.8706
2121.000000 0.8706 0.8706 0.8706 0.8706 0.8705
2126.000000 0.8705 0.8705 0.8705 0.8705 0.8705
2131.000000 0.8705 0.8705 0.8704 0.8704 0.8704
2136.000000 0.8704 0.8704 0.8704 0.8703 0.8703
2141.000000 0.8703 0.8703 0.8703 0.8703 0.8702
2146.000000 0.8702 0.8702 0.8702 0.8701 0.8701
2151.000000 0.8701 0.8701 0.8701 0.8701 0.8700
2156.000000 0.8700 0.8700 0.8700 0.8700 0.8700
2161.000000 0.8699 0.8699 0.8699 0.8699 0.8699
2166.000000 0.8699 0.8698 0.8698 0.8698 0.8698
2171.000000 0.8697 0.8697 0.8697 0.8697 0.8696
2176.000000 0.8696 0.8696 0.8696 0.8695 0.8695
2181.000000 0.8694 0.8694 0.8694 0.8694 0.8693
2186.000000 0.8693 0.8693 0.8693 0.8692 0.8692
2191.000000 0.8692 0.8692 0.8691 0.8691 0.8691
2196.000000 0.8691 0.8690 0.8690 0.8689 0.8689
2201.000000 0.8689 0.8689 0.8688 0.8688 0.8688
2206.000000 0.8688 0.8687 0.8687 0.8687 0.8687
2211.000000 0.8686 0.8686 0.8686 0.8686 0.8686
2216.000000 0.8686 0.8685 0.8685 0.8685 0.8685
2221.000000 0.8684 0.8684 0.8684 0.8684 0.8683
2226.000000 0.8683 0.8683 0.8683 0.8683 0.8683
2231.000000 0.8682 0.8682 0.8682 0.8682 0.8681
2236.000000 0.8681 0.8681 0.8681 0.8681 0.8681
2241.000000 0.8682 0.8683 0.8684 0.8685 0.8686
2246.000000 0.8687 0.8688 0.8689 0.8690 0.8691
2251.000000 0.8692 0.8693 0.8694 0.8695 0.8696
2256.000000 0.8697 0.8697 0.8698 0.8698 0.8699
2261.000000 0.8699 0.8700 0.8700 0.8701 0.8701
2266.000000 0.8701 0.8701 0.8702 0.8702 0.8703
2271.000000 0.8703 0.8704 0.8703 0.8703 0.8702
2276.000000 0.8701 0.8700 0.8699 0.8698 0.8697
2281.000000 0.8696 0.8695 0.8694 0.8693 0.8692
2286.000000 0.8691 0.8690 0.8689 0.8688 0.8687
2291.000000 0.8686 0.8685 0.8684 0.8683 0.8682
2296.000000 0.8681 0.8679 0.8678 0.8676 0.8674
2301.000000 0.8672 0.8671 0.8669 0.8668 0.8666
2306.000000 0.8665 0.8663 0.8661 0.8659 0.8658
2311.000000 0.8656 0.8655 0.8653 0.8652 0.8650
2316.000000 0.8649 0.8647 0.8646 0.8645 0.8644
2321.000000 0.8643 0.8642 0.8640 0.8639 0.8638
2326.000000 0.8637 0.8636 0.8635 0.8633 0.8632
2331.000000 0.8631 0.8630 0.8628 0.8627 0.8626
2336.000000 0.8625 0.8624 0.8623 0.8621 0.8620
2341.000000 0.8619 0.8618 0.8616 0.8615 0.8613
2346.000000 0.8612 0.8610 0.8609 0.8607 0.8606
2351.000000 0.8604 0.8603 0.8602 0.8601 0.8599
2356.000000 0.8598 0.8596 0.8595 0.8593 0.8592
2361.000000 0.8590 0.8589 0.8587 0.8586 0.8584
2366.000000 0.8583 0.8581 0.8580 0.8578 0.8577
2371.000000 0.8575 0.8574 0.8572 0.8571 0.8569
2376.000000 0.8568 0.8566 0.8565 0.8563 0.8562
2381.000000 0.8560 0.8559 0.8557 0.8556 0.8554
2386.000000 0.8553 0.8551 0.8550 0.8548 0.8547
2391.000000 0.8545 0.8544 0.8542 0.8541 0.8539
2396.000000 0.8538 0.8536 0.8535 0.8533 0.8532
2401.000000 0.8530 0.8529 0.8527 0.8526 0.8524
2406.000000 0.8523 0.8521 0.8520 0.8518 0.8517
2411.000000 0.8515 0.8514 0.8512 0.8511 0.8509
2416.000000 0.8508 0.8506 0.8505 0.8503 0.8502
2421.000000 0.8500 0.8498 0.8496 0.8494 0.8492
2426.000000 0.8490 0.8488 0.8486 0.8483 0.8481
2431.000000 0.8479 0.8477 0.8475 0.8473 0.8471
2436.000000 0.8469 0.8467 0.8465 0.8463 0.8461
2441.000000 0.8458 0.8456 0.8454 0.8452 0.8450
2446.000000 0.8448 0.8446 0.8444 0.8442 0.8440
2451.000000 0.8437 0.8435 0.8433 0.8431 0.8429
2456.000000 0.8427 0.8425 0.8423 0.8421 0.8419
2461.000000 0.8417 0.8415 0.8413 0.8411 0.8409
2466.000000 0.8407 0.8405 0.8403 0.8401 0.8399
2471.000000 0.8397 0.8395 0.8393 0.8391 0.8388
2476.000000 0.8386 0.8384 0.8382 0.8380 0.8378
2481.000000 0.8376 0.8374 0.8372 0.8370 0.8368
2486.000000 0.8366 0.8364 0.8362 0.8360 0.8358
2491.000000 0.8356 0.8354 0.8352 0.8350 0.8347
2496.000000 0.8345 0.8343 0.8341 0.8339 0.8337
2501.000000 0.8335 0.8333 0.8331 0.8329 0.8327
2506.000000 0.8325 0.8323 0.8321 0.8318 0.8316
2511.000000 0.8313 0.8311 0.8308 0.8305 0.8302
2516.000000 0.8300 0.8296 0.8292 0.8286 0.8281
2521.000000 0.8275 0.8270 0.8264 0.8259 0.8253
2526.000000 0.8248 0.8242 0.8237 0.8231 0.8225
2531.000000 0.8219 0.8214 0.8206 0.8198 0.8190
2536.000000 0.8182 0.8173 0.8165 0.8157 0.8149
2541.000000 0.8140 0.8132 0.8124 0.8116 0.8108
2546.000000 0.8100 0.8092 0.8085 0.8080 0.8075
2551.000000 0.8073 0.8072 0.8070 0.8068 0.8066
2556.000000 0.8065 0.8063 0.8062 0.8060 0.8059
2561.000000 0.8058 0.8057 0.8056 0.8055 0.8054
2566.000000 0.8054 0.8053 0.8052 0.8051 0.8051
2571.000000 0.8049 0.8048 0.8041 0.8035 0.8028
2576.000000 0.8022 0.8015 0.8009 0.8001 0.7994
2581.000000 0.7986 0.7978 0.7970 0.7963 0.7956
2586.000000 0.7949 0.7942 0.7935 0.7928 0.7922
2591.000000 0.7915 0.7908 0.7901 0.7894 0.7887
2596.000000 0.7881 0.7874 0.7867 0.7860 0.7854
2601.000000 0.7848 0.7843 0.7838 0.7833 0.7827
2606.000000 0.7822 0.7817 0.7812 0.7806 0.7801
2611.000000 0.7796 0.7791 0.7785 0.7780 0.7775
2616.000000 0.7770 0.7764 0.7759 0.7754 0.7749
2621.000000 0.7744 0.7740 0.7735 0.7731 0.7726
2626.000000 0.7722 0.7712 0.7702 0.7687 0.7672
2631.000000 0.7657 0.7643 0.7628 0.7614 0.7599
2636.000000 0.7584 0.7569 0.7555 0.7540 0.7525
2641.000000 0.7510 0.7496 0.7484 0.7472 0.7460
2646.000000 0.7448 0.7436 0.7424 0.7412 0.7400
2651.000000 0.7387 0.7375 0.7363 0.7351 0.7332
2656.000000 0.7313 0.7291 0.7270 0.7248 0.7227
2661.000000 0.7208 0.7190 0.7174 0.7159 0.7143
2666.000000 0.7128 0.7112 0.7096 0.7080 0.7065
2671.000000 0.7052 0.7040 0.7028 0.7017 0.7005
2676.000000 0.6993 0.6981 0.6970 0.6958 0.6946
2681.000000 0.6934 0.6923 0.6911 0.6900 0.6895
2686.000000 0.6891 0.6889 0.6887 0.6884 0.6882
2691.000000 0.6880 0.6878 0.6875 0.6873 0.6873
2696.000000 0.6874 0.6872 0.6870 0.6852 0.6834
2701.000000 0.6814 0.6794 0.6773 0.6753 0.6733
2706.000000 0.6713 0.6691 0.6670 0.6644 0.6618
2711.000000 0.6575 0.6532 0.6430 0.6328 0.6282
2716.000000 0.6236 0.6191 0.6147 0.6083 0.6019
2721.000000 0.5982 0.5945 0.5939 0.5934 0.5931
2726.000000 0.5929 0.5928 0.5928 0.5927 0.5927
2731.000000 0.5927 0.5911 0.5928 0.5930 0.5931
2736.000000 0.5932 0.5933 0.5935 0.5936 0.5937
2741.000000 0.5946 0.5956 0.5973 0.5991 0.6006
2746.000000 0.6021 0.6046 0.6072 0.6081 0.6090
2751.000000 0.6095 0.6101 0.6098 0.6103 0.6093
2756.000000 0.6091 0.6088 0.6086 0.6081 0.6076
2761.000000 0.6070 0.6065 0.6057 0.6050 0.6038
2766.000000 0.6026 0.6014 0.6002 0.5990 0.5979
2771.000000 0.5967 0.5956 0.5945 0.5934 0.5923
2776.000000 0.5913 0.5900 0.5888 0.5873 0.5858
2781.000000 0.5841 0.5825 0.5793 0.5761 0.5732
2786.000000 0.5703 0.5674 0.5646 0.5617 0.5588
2791.000000 0.5558 0.5529 0.5500 0.5471 0.5439
2796.000000 0.5408 0.5372 0.5336 0.5296 0.5257
2801.000000 0.5204 0.5152 0.5079 0.5006 0.4898
2806.000000 0.4791 0.4728 0.4665 0.4586 0.4507
2811.000000 0.4422 0.4338 0.4282 0.4227 0.4159
2816.000000 0.4091 0.4010 0.3930 0.3740 0.3550
2821.000000 0.3205 0.2860 0.2766 0.2672 0.2587
2826.000000 0.2502 0.2426 0.2351 0.2276 0.2201
2831.000000 0.2077 0.1953 0.1854 0.1755 0.1644
2836.000000 0.1534 0.1378 0.1223 0.1124 0.1026
2841.000000 0.0939 0.0852 0.0815 0.0778 0.0771
2846.000000 0.0765 0.0759 0.0753 0.0752 0.0752
2851.000000 0.0751 0.0750 0.0751 0.0762 0.0753
2856.000000 0.0754 0.0757 0.0760 0.0766 0.0772
2861.000000 0.0780 0.0789 0.0805 0.0821 0.0904
2866.000000 0.0988 0.1080 0.1172 0.1264 0.1356
2871.000000 0.1448 0.1540 0.1632 0.1725 0.1817
2876.000000 0.1909 0.2001 0.2093 0.2185 0.2277
2881.000000 0.2302 0.2328 0.2325 0.2322 0.2318
2886.000000 0.2358 0.2308 0.2301 0.2284 0.2267
2891.000000 0.2236 0.2205 0.2183 0.2161 0.2105
2896.000000 0.2049 0.1962 0.1876 0.1789 0.1703
2901.000000 0.1616 0.1530 0.1439 0.1349 0.1295
2906.000000 0.1242 0.1213 0.1184 0.1145 0.1107
2911.000000 0.1041 0.0976 0.0907 0.0839 0.0788
2916.000000 0.0737 0.0698 0.0659 0.0630 0.0602
2921.000000 0.0582 0.0562 0.0553 0.0545 0.0541
2926.000000 0.0537 0.0536 0.0536 0.0536 0.0537
2931.000000 0.0539 0.0541 0.0543 0.0532 0.0547
2936.000000 0.0550 0.0554 0.0558 0.0567 0.0577
2941.000000 0.0590 0.0604 0.0637 0.0670 0.0712
2946.000000 0.0754 0.0790 0.0827 0.0874 0.0921
2951.000000 0.0995 0.1070 0.1235 0.1401 0.1595
2956.000000 0.1790 0.1984 0.2179 0.2373 0.2568
2961.000000 0.2762 0.2957 0.3151 0.3346 0.3540
2966.000000 0.3735 0.3929 0.4124 0.4318 0.4513
2971.000000 0.4593 0.4674 0.4721 0.4768 0.4962
2976.000000 0.5157 0.5262 0.5367 0.5453 0.5540
2981.000000 0.5614 0.5688 0.5752 0.5817 0.5879
2986.000000 0.5941 0.5998 0.6056 0.6113 0.6170
2991.000000 0.6237 0.6304 0.6373 0.6443 0.6517
2996.000000 0.6591 0.6647 0.6703 0.6729 0.6756
3001.000000 0.6783 0.6810 0.6832 0.6854 0.6875
3006.000000 0.6896 0.6914 0.6933 0.6944 0.6955
3011.000000 0.6965 0.6976 0.6987 0.6998 0.7006
3016.000000 0.7015 0.7021 0.7028 0.7034 0.7041
3021.000000 0.7047 0.7054 0.7060 0.7067 0.7073
3026.000000 0.7080 0.7085 0.7090 0.7093 0.7096
3031.000000 0.7098 0.7101 0.7104 0.7107 0.7109
3036.000000 0.7112 0.7115 0.7118 0.7120 0.7123
3041.000000 0.7125 0.7128 0.7130 0.7132 0.7134
3046.000000 0.7137 0.7135 0.7134 0.7133 0.7132
3051.000000 0.7130 0.7129 0.7127 0.7171 0.7125
3056.000000 0.7124 0.7122 0.7121 0.7119 0.7118
3061.000000 0.7117 0.7116 0.7114 0.7113 0.7111
3066.000000 0.7110 0.7108 0.7106 0.7103 0.7101
3071.000000 0.7098 0.7096 0.7093 0.7091 0.7088
3076.000000 0.7086 0.7083 0.7081 0.7078 0.7075
3081.000000 0.7071 0.7067 0.7063 0.7060 0.7056
3086.000000 0.7053 0.7049 0.7046 0.7042 0.7038
3091.000000 0.7034 0.7031 0.7027 0.7024 0.7020
3096.000000 0.7017 0.7013 0.7009 0.7005 0.7002
3101.000000 0.6998 0.6995 0.6990 0.6985 0.6978
3106.000000 0.6971 0.6964 0.6957 0.6950 0.6944
3111.000000 0.6937 0.6930 0.6918 0.6907 0.6895
3116.000000 0.6883 0.6871 0.6860 0.6848 0.6836
3121.000000 0.6824 0.6812 0.6800 0.6788 0.6776
3126.000000 0.6764 0.6752 0.6740 0.6727 0.6715
3131.000000 0.6703 0.6691 0.6679 0.6667 0.6654
3136.000000 0.6641 0.6627 0.6613 0.6599 0.6586
3141.000000 0.6572 0.6558 0.6544 0.6531 0.6517
3146.000000 0.6504 0.6490 0.6476 0.6461 0.6447
3151.000000 0.6431 0.6415 0.6398 0.6382 0.6365
3156.000000 0.6349 0.6332 0.6316 0.6299 0.6283
3161.000000 0.6267 0.6251 0.6233 0.6215 0.6197
3166.000000 0.6179 0.6161 0.6143 0.6125 0.6108
3171.000000 0.6091 0.6075 0.6060 0.6045 0.6030
3176.000000 0.6015 0.6000 0.5985 0.5970 0.5956
3181.000000 0.5941 0.5926 0.5911 0.5896 0.5885
3186.000000 0.5874 0.5864 0.5854 0.5844 0.5834
3191.000000 0.5825 0.5816 0.5810 0.5805 0.5800
3196.000000 0.5795 0.5789 0.5784 0.5779 0.5774
3201.000000 0.5768 0.5763 0.5758 0.5753 0.5747
3206.000000 0.5742 0.5736 0.5731 0.5725 0.5720
3211.000000 0.5714 0.5709 0.5704 0.5699 0.5693
3216.000000 0.5688 0.5682 0.5677 0.5671 0.5666
3221.000000 0.5660 0.5655 0.5648 0.5642 0.5635
3226.000000 0.5629 0.5622 0.5616 0.5609 0.5603
3231.000000 0.5596 0.5590 0.5583 0.5577 0.5570
3236.000000 0.5564 0.5554 0.5545 0.5535 0.5525
3241.000000 0.5514 0.5504 0.5494 0.5484 0.5474
3246.000000 0.5464 0.5453 0.5443 0.5430 0.5418
3251.000000 0.5394 0.5371 0.5347 0.5323 0.5300
3256.000000 0.5278 0.5257 0.5237 0.5216 0.5195
3261.000000 0.5174 0.5153 0.5128 0.5104 0.5074
3266.000000 0.5044 0.5014 0.4985 0.4955 0.4925
3271.000000 0.4890 0.4856 0.4820 0.4784 0.4748
3276.000000 0.4712 0.4684 0.4656 0.4632 0.4608
3281.000000 0.4584 0.4561 0.4535 0.4509 0.4480
3286.000000 0.4452 0.4424 0.4396 0.4374 0.4352
3291.000000 0.4333 0.4315 0.4296 0.4278 0.4259
3296.000000 0.4241 0.4222 0.4204 0.4185 0.4167
3301.000000 0.4165 0.4139 0.4166 0.4169 0.4172
3306.000000 0.4175 0.4178 0.4182 0.4186 0.4191
3311.000000 0.4196 0.4202 0.4207 0.4212 0.4217
3316.000000 0.4223 0.4228 0.4234 0.4244 0.4254
3321.000000 0.4270 0.4286 0.4303 0.4321 0.4340
3326.000000 0.4360 0.4391 0.4422 0.4452 0.4483
3331.000000 0.4514 0.4545 0.4576 0.4607 0.4635
3336.000000 0.4663 0.4690 0.4718 0.4745 0.4772
3341.000000 0.4792 0.4813 0.4819 0.4826 0.4828
3346.000000 0.4830 0.4830 0.4830 0.4829 0.4846
3351.000000 0.4826 0.4824 0.4816 0.4809 0.4799
3356.000000 0.4790 0.4775 0.4760 0.4744 0.4729
3361.000000 0.4712 0.4695 0.4678 0.4661 0.4641
3366.000000 0.4621 0.4599 0.4578 0.4534 0.4490
3371.000000 0.4426 0.4363 0.4282 0.4202 0.4145
3376.000000 0.4088 0.4048 0.4009 0.3966 0.3924
3381.000000 0.3881 0.3839 0.3775 0.3711 0.3634
3386.000000 0.3557 0.3528 0.3499 0.3498 0.3498
3391.000000 0.3499 0.3500 0.3502 0.3508 0.3508
3396.000000 0.3511 0.3518 0.3526 0.3545 0.3565
3401.000000 0.3609 0.3653 0.3740 0.3827 0.3915
3406.000000 0.4004 0.4065 0.4126 0.4185 0.4244
3411.000000 0.4330 0.4416 0.4499 0.4582 0.4697
3416.000000 0.4813 0.5030 0.5247 0.5384 0.5522
3421.000000 0.5610 0.5699 0.5785 0.5871 0.5945
3426.000000 0.6019 0.6067 0.6116 0.6164 0.6213
3431.000000 0.6254 0.6295 0.6334 0.6373 0.6414
3436.000000 0.6455 0.6498 0.6541 0.6578 0.6615
3441.000000 0.6643 0.6672 0.6700 0.6729 0.6753
3446.000000 0.6777 0.6797 0.6818 0.6837 0.6856
3451.000000 0.6875 0.6894 0.6901 0.6908 0.6914
3456.000000 0.6920 0.6925 0.6930 0.6934 0.6939
3461.000000 0.6949 0.6960 0.7017 0.7074 0.7116
3466.000000 0.7159 0.7173 0.7187 0.7195 0.7204
3471.000000 0.7213 0.7222 0.7236 0.7250 0.7264
3476.000000 0.7279 0.7292 0.7305 0.7318 0.7331
3481.000000 0.7344 0.7357 0.7374 0.7391 0.7408
3486.000000 0.7426 0.7443 0.7460 0.7476 0.7492
3491.000000 0.7507 0.7522 0.7537 0.7552 0.7567
3496.000000 0.7582 0.7596 0.7610 0.7624 0.7638
3501.000000 0.7652 0.7666 0.7680 0.7694 0.7708
3506.000000 0.7722 0.7734 0.7747 0.7759 0.7771
3511.000000 0.7783 0.7795 0.7807 0.7819 0.7829
3516.000000 0.7840 0.7849 0.7859 0.7868 0.7878
3521.000000 0.7887 0.7897 0.7907 0.7917 0.7928
3526.000000 0.7939 0.7949 0.7960 0.7970 0.7981
3531.000000 0.7991 0.8002 0.8012 0.8023 0.8034
3536.000000 0.8046 0.8057 0.8069 0.8080 0.8092
3541.000000 0.8103 0.8115 0.8126 0.8138 0.8150
3546.000000 0.8162 0.8172 0.8183 0.8192 0.8201
3551.000000 0.8210 0.8220 0.8225 0.8231 0.8235
3556.000000 0.8240 0.8244 0.8249 0.8253 0.8258
3561.000000 0.8263 0.8268 0.8281 0.8294 0.8319
3566.000000 0.8345 0.8379 0.8414 0.8417 0.8421
3571.000000 0.8424 0.8428 0.8432 0.8437 0.8443
3576.000000 0.8449 0.8454 0.8460 0.8468 0.8476
3581.000000 0.8484 0.8493 0.8502 0.8511 0.8520
3586.000000 0.8529 0.8538 0.8548 0.8557 0.8566
3591.000000 0.8575 0.8584 0.8587 0.8590 0.8588
3596.000000 0.8586 0.8582 0.8579 0.8574 0.8570
3601.000000 0.8561 0.8552 0.8547 0.8542 0.8538
3606.000000 0.8535 0.8543 0.8539 0.8560 0.8568
3611.000000 0.8577 0.8586 0.8594 0.8603 0.8607
3616.000000 0.8612 0.8616 0.8620 0.8624 0.8628
3621.000000 0.8632 0.8636 0.8639 0.8643 0.8645
3626.000000 0.8648 0.8650 0.8653 0.8655 0.8658
3631.000000 0.8660 0.8663 0.8663 0.8663 0.8662
3636.000000 0.8662 0.8662 0.8662 0.8662 0.8662
3641.000000 0.8661 0.8661 0.8661 0.8661 0.8662
3646.000000 0.8664 0.8665 0.8667 0.8668 0.8670
3651.000000 0.8672 0.8674 0.8675 0.8666 0.8677
3656.000000 0.8678 0.8678 0.8678 0.8678 0.8678
3661.000000 0.8671 0.8665 0.8658 0.8651 0.8644
3666.000000 0.8637 0.8620 0.8603 0.8581 0.8560
3671.000000 0.8534 0.8509 0.8491 0.8474 0.8475
3676.000000 0.8476 0.8477 0.8478 0.8478 0.8479
3681.000000 0.8479 0.8480 0.8480 0.8481 0.8485
3686.000000 0.8489 0.8505 0.8471 0.8538 0.8556
3691.000000 0.8574 0.8593 0.8615 0.8637 0.8662
3696.000000 0.8687 0.8712 0.8738 0.8749 0.8760
3701.000000 0.8771 0.8782 0.8793 0.8804 0.8815
3706.000000 0.8826 0.8835 0.8844 0.8850 0.8857
3711.000000 0.8863 0.8870 0.8872 0.8875 0.8877
3716.000000 0.8880 0.8882 0.8885 0.8887 0.8890
3721.000000 0.8892 0.8894 0.8896 0.8898 0.8900
3726.000000 0.8902 0.8904 0.8906 0.8908 0.8910
3731.000000 0.8912 0.8914 0.8915 0.8917 0.8919
3736.000000 0.8926 0.8923 0.8925 0.8927 0.8929
3741.000000 0.8931 0.8933 0.8935 0.8937 0.8939
3746.000000 0.8941 0.8943 0.8946 0.8948 0.8950
3751.000000 0.8952 0.8954 0.8959 0.8964 0.8969
3756.000000 0.8974 0.8979 0.8984 0.8985 0.8987
3761.000000 0.8983 0.8980 0.8970 0.8961 0.8941
3766.000000 0.8922 0.8918 0.8915 0.8912 0.8909
3771.000000 0.8906 0.8904 0.8904 0.8905 0.8905
3776.000000 0.8905 0.8905 0.8905 0.8905 0.8906
3781.000000 0.8906 0.8907 0.8907 0.8908 0.8908
3786.000000 0.8909 0.8909 0.8910 0.8910 0.8911
3791.000000 0.8911 0.8912 0.8913 0.8914 0.8914
3796.000000 0.8915 0.8915 0.8915 0.8915 0.8916
3801.000000 0.8916 0.8916 0.8916 0.8916 0.8916
3806.000000 0.8917 0.8917 0.8917
##END=
