##TITLE=BUTANOIC ACID
##JCAMP-DX=4.24
##DATA TYPE=INFRARED SPECTRUM
##CLASS=COBLENTZ III
##ORIGIN=DOW CORNING CORP.
##OWNER=COBLENTZ SOCIETY
Collection (C) 2018 copyright by the U.S. Secretary of Commerce
on behalf of the United States of America. All rights reserved.
##DATE=1966
##NAMES=butyric acid
##CAS REGISTRY NO=107-92-6
##MOLFORM=C4 H8 O2
##SOURCE REFERENCE=COBLENTZ NO. 4820
##$NIST SOURCE=COBLENTZ
##$NIST IMAGE=cob4820
##SPECTROMETER/DATA SYSTEM=PERKIN-ELMER 521 (GRATING)
##INSTRUMENT PARAMETERS=FILTERS AT 3150, 2500, 2000, 1150, 700, 410; GRATING CHANGES AT 2000, 630 CM^-^1
##STATE=SOLUTION (10% IN CCl4 FOR 3800-1300, 10% IN CS2 FOR 1300-650, 10% IN CCl4 FOR 650-250 CM^-^1) VERSUS SOLVENT
##PATH LENGTH=0.011, 0.010, AND 0.011 CM (CsBr CELL)
$$ PURITY 97% BY GLC
##SAMPLING PROCEDURE=TRANSMISSION
##RESOLUTION=4
##DATA PROCESSING=DIGITIZED BY NIST FROM HARD COPY (FROM TWO SEGMENTS)
##XUNITS=1/CM
##YUNITS=TRANSMITTANCE
##XFACTOR=1.000000
##YFACTOR=1
##DELTAX=0.983071
##FIRSTX=254.069
##LASTX=3798.04
##FIRSTY=0.745
##MAXX=3798.04
##MINX=254.069
##MAXY=0.895
##MINY=0
##NPOINTS=3606
##XYDATA=(X++(Y..Y))
254.069000 0.7450 0.7450 0.7450 0.7450 0.7450
258.984357 0.7440 0.7440 0.7430 0.7430 0.7430
263.899714 0.7430 0.7440 0.7430 0.7430 0.7410
268.815070 0.7410 0.7400 0.7400 0.7400 0.7400
273.730427 0.7400 0.7400 0.7410 0.7410 0.7410
278.645784 0.7410 0.7410 0.7410 0.7400 0.7390
283.561141 0.7370 0.7370 0.7370 0.7370 0.7370
288.476498 0.7390 0.7400 0.7400 0.7400 0.7430
293.391854 0.7440 0.7520 0.7600 0.7630 0.7660
298.307211 0.7710 0.7760 0.7820 0.7860 0.7900
303.222568 0.7900 0.7910 0.7970 0.7980 0.8010
308.137925 0.8020 0.8060 0.8090 0.8110 0.8130
313.053282 0.8130 0.8130 0.8130 0.8130 0.8130
317.968639 0.8110 0.8110 0.8110 0.8100 0.8100
322.883995 0.8100 0.8090 0.8090 0.8090 0.8070
327.799352 0.8070 0.8070 0.8060 0.8050 0.8030
332.714709 0.8010 0.7990 0.7980 0.7970 0.7970
337.630066 0.7950 0.7940 0.7910 0.7900 0.7870
342.545423 0.7820 0.7780 0.7750 0.7720 0.7680
347.460779 0.7660 0.7640 0.7600 0.7560 0.7540
352.376136 0.7520 0.7470 0.7410 0.7390 0.7360
357.291493 0.7310 0.7290 0.7270 0.7250 0.7250
362.206850 0.7250 0.7270 0.7270 0.7280 0.7290
367.122207 0.7290 0.7310 0.7320 0.7320 0.7330
372.037563 0.7350 0.7360 0.7370 0.7400 0.7440
376.952920 0.7500 0.7510 0.7560 0.7620 0.7680
381.868277 0.7700 0.7710 0.7740 0.7820 0.7870
386.783634 0.7930 0.7950 0.7980 0.7980 0.7990
391.698991 0.8010 0.8010 0.8020 0.8030 0.8050
396.614348 0.8050 0.8060 0.8060 0.8060 0.8060
401.529704 0.8060 0.8060 0.8060 0.8050 0.8050
406.445061 0.8050 0.8050 0.8050 0.8050 0.8050
411.360418 0.8060 0.8070 0.8070 0.8070 0.8070
416.275775 0.8070 0.8070 0.8060 0.8060 0.8050
421.191132 0.8050 0.8030 0.8020 0.8010 0.7990
426.106488 0.7990 0.7980 0.7970 0.7950 0.7940
431.021845 0.7910 0.7900 0.7900 0.7880 0.7870
435.937202 0.7860 0.7860 0.7860 0.7860 0.7840
440.852559 0.7820 0.7800 0.7790 0.7780 0.7750
445.767916 0.7720 0.7720 0.7710 0.7670 0.7620
450.683272 0.7600 0.7580 0.7550 0.7480 0.7440
455.598629 0.7360 0.7280 0.7200 0.7120 0.7090
460.513986 0.7000 0.6980 0.6920 0.6840 0.6810
465.429343 0.6780 0.6770 0.6730 0.6720 0.6650
470.344700 0.6550 0.6530 0.6490 0.6410 0.6380
475.260056 0.6340 0.6190 0.6080 0.5960 0.5841
480.175413 0.5760 0.5730 0.5530 0.5480 0.5430
485.090770 0.5400 0.5380 0.5380 0.5380 0.5400
490.006127 0.5470 0.5520 0.5570 0.5630 0.5690
494.921484 0.5770 0.5910 0.5940 0.6000 0.6070
499.836841 0.6150 0.6230 0.6330 0.6350 0.6370
504.752197 0.6420 0.6500 0.6570 0.6630 0.6700
509.667554 0.6780 0.6900 0.6940 0.6960 0.7020
514.582911 0.7060 0.7130 0.7210 0.7270 0.7330
519.498268 0.7360 0.7400 0.7450 0.7480 0.7520
524.413625 0.7550 0.7600 0.7620 0.7630 0.7670
529.328981 0.7680 0.7700 0.7710 0.7720 0.7740
534.244338 0.7750 0.7760 0.7780 0.7780 0.7790
539.159695 0.7800 0.7800 0.7800 0.7820 0.7820
544.075052 0.7820 0.7820 0.7820 0.7820 0.7800
548.990409 0.7800 0.7800 0.7790 0.7790 0.7790
553.905765 0.7790 0.7790 0.7790 0.7780 0.7780
558.821122 0.7780 0.7780 0.7780 0.7760 0.7750
563.736479 0.7740 0.7720 0.7710 0.7700 0.7680
568.651836 0.7670 0.7640 0.7620 0.7590 0.7580
573.567193 0.7560 0.7550 0.7480 0.7450 0.7450
578.482550 0.7400 0.7320 0.7290 0.7280 0.7200
583.397906 0.7150 0.7130 0.7040 0.6970 0.6970
588.313263 0.6940 0.6800 0.6740 0.6690 0.6630
593.228620 0.6610 0.6610 0.6580 0.6570 0.6550
598.143977 0.6540 0.6540 0.6540 0.6540 0.6550
603.059334 0.6570 0.6580 0.6590 0.6590 0.6620
607.974690 0.6630 0.6650 0.6680 0.6690 0.6700
612.890047 0.6720 0.6730 0.6740 0.6760 0.6770
617.805404 0.6780 0.6810 0.6820 0.6840 0.6850
622.720761 0.6860 0.6880 0.6890 0.6900 0.6920
627.636118 0.6920 0.6930 0.6960 0.6970 0.6980
632.551474 0.6980 0.7000 0.7020 0.7060 0.7110
637.466831 0.7130 0.7150 0.7160 0.7190 0.7190
642.382188 0.7230 0.7240 0.7240 0.7240 0.7240
647.297545 0.7250 0.7250 0.7250 0.7250 0.7250
652.212902 0.7250 0.7250 0.7240 0.7240 0.7230
657.128258 0.7230 0.7210 0.7210 0.7200 0.7170
662.043615 0.7170 0.7160 0.7160 0.7150 0.7150
666.958972 0.7130 0.7130 0.7130 0.7120 0.7110
671.874329 0.7080 0.7060 0.7050 0.7040 0.7020
676.789686 0.7010 0.7010 0.7010 0.7020 0.7020
681.705043 0.7040 0.7040 0.7060 0.7120 0.7130
686.620399 0.7160 0.7190 0.7200 0.7210 0.7310
691.535756 0.7320 0.7350 0.7410 0.7450 0.7520
696.451113 0.7580 0.7620 0.7670 0.7700 0.7740
701.366470 0.7780 0.7800 0.7820 0.7860 0.7880
706.281827 0.7910 0.7910 0.7930 0.7950 0.7970
711.197183 0.7980 0.7980 0.7980 0.7990 0.7990
716.112540 0.7990 0.7990 0.8010 0.8010 0.8010
721.027897 0.7990 0.7990 0.7990 0.7990 0.7990
725.943254 0.7990 0.8010 0.7990 0.7990 0.7990
730.858611 0.7980 0.7980 0.7980 0.7970 0.7970
735.773967 0.7970 0.7950 0.7950 0.7950 0.7930
740.689324 0.7900 0.7880 0.7870 0.7830 0.7800
745.604681 0.7790 0.7670 0.7630 0.7450 0.7330
750.520038 0.7200 0.7110 0.6901 0.6880 0.6880
755.435395 0.6890 0.6920 0.6940 0.6970 0.7000
760.350752 0.7020 0.7040 0.7060 0.7090 0.7120
765.266108 0.7120 0.7090 0.7050 0.6980 0.6900
770.181465 0.6850 0.6780 0.6660 0.6570 0.6371
775.096822 0.6230 0.5940 0.5790 0.5590 0.5181
780.012179 0.4970 0.4830 0.4750 0.4730 0.4710
784.927536 0.4730 0.4820 0.4900 0.5040 0.5290
789.842892 0.5670 0.6149 0.6290 0.6380 0.6549
794.758249 0.6730 0.6800 0.6820 0.6920 0.6960
799.673606 0.7020 0.7080 0.7120 0.7160 0.7170
804.588963 0.7190 0.7190 0.7200 0.7200 0.7210
809.504320 0.7210 0.7210 0.7200 0.7200 0.7170
814.419676 0.7170 0.7160 0.7130 0.7120 0.7110
819.335033 0.7090 0.7080 0.7060 0.7050 0.7040
824.250390 0.7020 0.7020 0.7000 0.6970 0.6970
829.165747 0.6960 0.6940 0.6920 0.6890 0.6880
834.081104 0.6860 0.6860 0.6850 0.6840 0.6820
838.996460 0.6760 0.6700 0.6680 0.6650 0.6630
843.911817 0.6610 0.6590 0.6580 0.6570 0.6570
848.827174 0.6510 0.6450 0.6390 0.6340 0.6270
853.742531 0.6230 0.6200 0.6190 0.6110 0.6040
858.657888 0.5990 0.5810 0.5730 0.5650 0.5600
863.573245 0.5470 0.5300 0.5260 0.5200 0.5180
868.488601 0.5160 0.5120 0.5080 0.5020 0.4980
873.403958 0.4940 0.4910 0.4850 0.4790 0.4730
878.319315 0.4700 0.4580 0.4500 0.4420 0.4360
883.234672 0.4260 0.4160 0.4030 0.3970 0.3910
888.150029 0.3880 0.3870 0.3850 0.3840 0.3840
893.065385 0.3830 0.3830 0.3810 0.3810 0.3770
897.980742 0.3750 0.3660 0.3580 0.3540 0.3480
902.896099 0.3420 0.3400 0.3330 0.3290 0.3170
907.811456 0.3140 0.3100 0.2940 0.2761 0.2720
912.726813 0.2670 0.2580 0.2510 0.2390 0.2310
917.642169 0.2280 0.2230 0.2080 0.1881 0.1780
922.557526 0.1740 0.1730 0.1680 0.1650 0.1610
927.472883 0.1580 0.1530 0.1420 0.1370 0.1310
932.388240 0.1290 0.1260 0.1250 0.1230 0.1230
937.303597 0.1230 0.1230 0.1250 0.1260 0.1290
942.218954 0.1330 0.1370 0.1420 0.1430 0.1530
947.134310 0.1530 0.1570 0.1610 0.1630 0.1680
952.049667 0.1780 0.1810 0.1960 0.2130 0.2200
956.965024 0.2290 0.2410 0.2540 0.2739 0.2880
961.880381 0.2990 0.3140 0.3290 0.3380 0.3480
966.795738 0.3560 0.3800 0.3999 0.4179 0.4389
971.711094 0.4440 0.4580 0.4710 0.4850 0.4950
976.626451 0.5020 0.5130 0.5210 0.5429 0.5649
981.541808 0.5720 0.5790 0.5910 0.5990 0.6080
986.457165 0.6150 0.6200 0.6270 0.6350 0.6430
991.372522 0.6590 0.6630 0.6700 0.6780 0.6810
996.287878 0.6880 0.6940 0.7000 0.7040 0.7090
1001.203235 0.7130 0.7170 0.7210 0.7280 0.7310
1006.118592 0.7330 0.7350 0.7370 0.7440 0.7470
1011.033949 0.7590 0.7620 0.7630 0.7700 0.7710
1015.949306 0.7710 0.7720 0.7720 0.7720 0.7720
1020.864662 0.7720 0.7720 0.7720 0.7720 0.7710
1025.780019 0.7710 0.7700 0.7670 0.7670 0.7660
1030.695376 0.7660 0.7620 0.7580 0.7550 0.7520
1035.610733 0.7470 0.7350 0.7310 0.7290 0.7200
1040.526090 0.7130 0.7080 0.6980 0.6960 0.6940
1045.441447 0.6960 0.6960 0.6970 0.6970 0.7000
1050.356803 0.7020 0.7050 0.7060 0.7080 0.7120
1055.272160 0.7150 0.7170 0.7200 0.7210 0.7210
1060.187517 0.7210 0.7210 0.7210 0.7200 0.7190
1065.102874 0.7170 0.7130 0.7080 0.7020 0.7000
1070.018231 0.6880 0.6770 0.6720 0.6630 0.6580
1074.933587 0.6490 0.6410 0.6260 0.6180 0.6100
1079.848944 0.5920 0.5720 0.5590 0.5490 0.5440
1084.764301 0.5430 0.5410 0.5400 0.5380 0.5370
1089.679658 0.5250 0.5180 0.5120 0.4950 0.4910
1094.595015 0.4820 0.4770 0.4750 0.4740 0.4750
1099.510371 0.4770 0.4810 0.4850 0.4870 0.4910
1104.425728 0.4950 0.5060 0.5130 0.5200 0.5370
1109.341085 0.5451 0.5751 0.6270 0.6410 0.6510
1114.256442 0.6730 0.6940 0.7130 0.7290 0.7390
1119.171799 0.7510 0.7580 0.7620 0.7700 0.7710
1124.087156 0.7740 0.7750 0.7750 0.7750 0.7740
1129.002512 0.7740 0.7710 0.7680 0.7660 0.7630
1133.917869 0.7620 0.7620 0.7590 0.7560 0.7540
1138.833226 0.7500 0.7470 0.7440 0.7390 0.7350
1143.748583 0.7320 0.7320 0.7310 0.7290 0.7290
1148.663940 0.7280 0.7270 0.7250 0.7230 0.7210
1153.579296 0.7200 0.7160 0.7130 0.7110 0.7110
1158.494653 0.7090 0.6980 0.6880 0.6780 0.6740
1163.410010 0.6690 0.6650 0.6630 0.6540 0.6490
1168.325367 0.6430 0.6340 0.6200 0.6150 0.6100
1173.240724 0.6040 0.5950 0.5910 0.5860 0.5810
1178.156080 0.5790 0.5760 0.5630 0.5530 0.5410
1183.071437 0.5380 0.5380 0.5290 0.5260 0.5170
1187.986794 0.5090 0.5050 0.4930 0.4790 0.4650
1192.902151 0.4580 0.4500 0.4400 0.4300 0.4160
1197.817508 0.4000 0.3990 0.3810 0.3600 0.3380
1202.732864 0.3210 0.3100 0.2830 0.2660 0.2540
1207.648221 0.2320 0.2189 0.1890 0.1730 0.1410
1212.563578 0.1290 0.1160 0.1030 0.0950 0.0810
1217.478935 0.0760 0.0630 0.0560 0.0470 0.0450
1222.394292 0.0450 0.0490 0.0530 0.0590 0.0670
1227.309649 0.0760 0.0830 0.0940 0.1110 0.1140
1232.225005 0.1150 0.1150 0.1150 0.1160 0.1180
1237.140362 0.1180 0.1190 0.1220 0.1290 0.1420
1242.055719 0.1470 0.1550 0.1680 0.1820 0.2009
1246.971076 0.2201 0.2520 0.2660 0.2880 0.2900
1251.886433 0.3020 0.3110 0.3140 0.3140 0.3130
1256.801789 0.3010 0.2970 0.2940 0.2750 0.2630
1261.717146 0.2550 0.2540 0.2480 0.2390 0.2270
1266.632503 0.2130 0.1970 0.1840 0.1680 0.1590
1271.547860 0.1290 0.1200 0.1040 0.1000 0.0880
1276.463217 0.0750 0.0640 0.0610 0.0570 0.0530
1281.378573 0.0520 0.0520 0.0520 0.0520 0.0530
1286.293930 0.0550 0.0560 0.0590 0.0600 0.0670
1291.209287 0.0690 0.0720 0.0760 0.0810 0.0870
1296.124644 0.0910 0.1000 0.1030 0.1080 0.1120
1301.040001 0.1190 0.1260 0.1300 0.1300 0.1310
1305.955358 0.1310 0.1330 0.1330 0.1340 0.1340
1310.870714 0.1340 0.1340 0.1350 0.1380 0.1460
1315.786071 0.1570 0.1720 0.1940 0.2060 0.2370
1320.701428 0.2740 0.3419 0.3680 0.3690 0.3889
1325.616785 0.4091 0.4320 0.4360 0.4380 0.4400
1330.532142 0.4420 0.4420 0.4400 0.4390 0.4270
1335.447498 0.4180 0.4080 0.4030 0.3970 0.3910
1340.362855 0.3890 0.3910 0.3920 0.3950 0.4000
1345.278212 0.4070 0.4200 0.4350 0.4500 0.4660
1350.193569 0.4790 0.4910 0.4970 0.4980 0.5040
1355.108926 0.5090 0.5180 0.5260 0.5340 0.5400
1360.024282 0.5440 0.5590 0.5650 0.5710 0.5760
1364.939639 0.5790 0.5800 0.5800 0.5800 0.5770
1369.854996 0.5760 0.5760 0.5730 0.5710 0.5650
1374.770353 0.5600 0.5550 0.5400 0.5260 0.5240
1379.685710 0.5160 0.4930 0.4541 0.4301 0.4071
1384.601066 0.4040 0.4040 0.4050 0.4190 0.4310
1389.516423 0.4540 0.4610 0.4630 0.4610 0.4590
1394.431780 0.4550 0.4500 0.4460 0.4420 0.4320
1399.347137 0.4070 0.3750 0.3620 0.3460 0.3260
1404.262494 0.3049 0.2799 0.2540 0.2280 0.2020
1409.177851 0.1770 0.1290 0.0990 0.0711 0.0640
1414.093207 0.0550 0.0520 0.0510 0.0520 0.0630
1419.008564 0.0650 0.0710 0.0860 0.0870 0.0950
1423.923921 0.0980 0.1020 0.1110 0.1150 0.1160
1428.839278 0.1220 0.1250 0.1260 0.1290 0.1310
1433.754635 0.1330 0.1370 0.1390 0.1430 0.1490
1438.669991 0.1550 0.1660 0.1760 0.1860 0.1960
1443.585348 0.2010 0.2170 0.2280 0.2370 0.2470
1448.500705 0.2480 0.2520 0.2580 0.2620 0.2600
1453.416062 0.2580 0.2540 0.2510 0.2470 0.2370
1458.331419 0.2310 0.2200 0.1900 0.1880 0.1900
1463.246775 0.2000 0.2110 0.2150 0.2200 0.2210
1468.162132 0.2210 0.2230 0.2230 0.2240 0.2280
1473.077489 0.2822 0.3721 0.4081 0.4500 0.4750
1477.992846 0.5000 0.5080 0.5360 0.5550 0.5829
1482.908203 0.5920 0.6020 0.6080 0.6190 0.6250
1487.823560 0.6330 0.6370 0.6490 0.6550 0.6650
1492.738916 0.6660 0.6690 0.6770 0.6800 0.6850
1497.654273 0.6880 0.6890 0.6920 0.6960 0.6970
1502.569630 0.6980 0.6970 0.7000 0.7010 0.7060
1507.484987 0.7080 0.7090 0.7110 0.7130 0.7170
1512.400344 0.7190 0.7190 0.7200 0.7210 0.7210
1517.315700 0.7240 0.7250 0.7280 0.7280 0.7290
1522.231057 0.7310 0.7350 0.7370 0.7400 0.7440
1527.146414 0.7470 0.7480 0.7500 0.7500 0.7510
1532.061771 0.7510 0.7520 0.7520 0.7540 0.7540
1536.977128 0.7540 0.7540 0.7540 0.7540 0.7540
1541.892484 0.7540 0.7540 0.7540 0.7540 0.7540
1546.807841 0.7520 0.7510 0.7500 0.7500 0.7470
1551.723198 0.7450 0.7450 0.7440 0.7430 0.7410
1556.638555 0.7410 0.7390 0.7370 0.7360 0.7350
1561.553912 0.7330 0.7320 0.7310 0.7310 0.7280
1566.469268 0.7290 0.7280 0.7270 0.7270 0.7250
1571.384625 0.7230 0.7240 0.7210 0.7210 0.7200
1576.299982 0.7190 0.7190 0.7190 0.7190 0.7170
1581.215339 0.7170 0.7160 0.7160 0.7150 0.7150
1586.130696 0.7130 0.7130 0.7120 0.7120 0.7120
1591.046053 0.7110 0.7090 0.7080 0.7020 0.7010
1595.961409 0.7000 0.6980 0.6980 0.6970 0.6960
1600.876766 0.6940 0.6930 0.6920 0.6890 0.6880
1605.792123 0.6860 0.6860 0.6800 0.6770 0.6760
1610.707480 0.6730 0.6720 0.6700 0.6690 0.6680
1615.622837 0.6630 0.6610 0.6580 0.6570 0.6550
1620.538193 0.6540 0.6530 0.6490 0.6470 0.6460
1625.453550 0.6450 0.6340 0.6330 0.6330 0.6300
1630.368907 0.6220 0.6180 0.6150 0.6120 0.6070
1635.284264 0.6020 0.5950 0.5920 0.5900 0.5840
1640.199621 0.5790 0.5730 0.5650 0.5640 0.5610
1645.114977 0.5560 0.5520 0.5490 0.5440 0.5360
1650.030334 0.5260 0.5170 0.5120 0.5080 0.5050
1654.945691 0.5010 0.4930 0.4890 0.4810 0.4750
1659.861048 0.4700 0.4630 0.4440 0.4420 0.4380
1664.776405 0.4320 0.4270 0.4180 0.4120 0.4040
1669.691762 0.3890 0.3810 0.3650 0.3580 0.3540
1674.607118 0.3520 0.3460 0.3360 0.3190 0.3130
1679.522475 0.3069 0.2819 0.2560 0.2470 0.2390
1684.437832 0.2270 0.2110 0.1970 0.1780 0.1650
1689.353189 0.1529 0.1369 0.1070 0.0920 0.0770
1694.268546 0.0640 0.0290 0.0280 0.0240 0.0200
1699.183902 0.0140 0.0120 0.0100 0.0090 0.0090
1704.099259 0.0090 0.0080 0.0080 0.0060 0.0060
1709.014616 0.0050 0.0050 0.0050 0.0050 0.0050
1713.929973 0.0050 0.0050 0.0050 0.0050 0.0060
1718.845330 0.0060 0.0060 0.0060 0.0080 0.0080
1723.760686 0.0080 0.0080 0.0080 0.0090 0.0120
1728.676043 0.0160 0.0180 0.0260 0.0330 0.0360
1733.591400 0.0510 0.0600 0.0750 0.0960 0.1060
1738.506757 0.1200 0.1290 0.1490 0.1650 0.1810
1743.422114 0.1940 0.2000 0.2080 0.2160 0.2240
1748.337470 0.2290 0.2370 0.2500 0.2640 0.2740
1753.252827 0.2800 0.2880 0.2940 0.3030 0.3110
1758.168184 0.3180 0.3190 0.3340 0.3440 0.3500
1763.083541 0.3520 0.3580 0.3690 0.3750 0.3790
1767.998898 0.3840 0.3930 0.4130 0.4240 0.4380
1772.914255 0.4420 0.4480 0.4580 0.4700 0.4780
1777.829611 0.4810 0.4860 0.5000 0.5120 0.5170
1782.744968 0.5260 0.5290 0.5370 0.5430 0.5480
1787.660325 0.5520 0.5610 0.5630 0.5680 0.5710
1792.575682 0.5710 0.5720 0.5730 0.5750 0.5750
1797.491039 0.5760 0.5760 0.5770 0.5790 0.5790
1802.406395 0.5800 0.5810 0.5830 0.5840 0.5880
1807.321752 0.5900 0.5900 0.5910 0.5910 0.5920
1812.237109 0.5940 0.5940 0.5950 0.5960 0.5960
1817.152466 0.5960 0.5980 0.6000 0.6100 0.6160
1822.067823 0.6200 0.6200 0.6230 0.6290 0.6300
1826.983179 0.6310 0.6310 0.6310 0.6330 0.6350
1831.898536 0.6370 0.6390 0.6390 0.6430 0.6460
1836.813893 0.6470 0.6470 0.6490 0.6500 0.6510
1841.729250 0.6510 0.6540 0.6550 0.6590 0.6610
1846.644607 0.6610 0.6610 0.6620 0.6630 0.6630
1851.559964 0.6650 0.6680 0.6680 0.6680 0.6690
1856.475320 0.6690 0.6700 0.6700 0.6720 0.6720
1861.390677 0.6760 0.6760 0.6770 0.6770 0.6780
1866.306034 0.6800 0.6800 0.6810 0.6820 0.6840
1871.221391 0.6850 0.6850 0.6850 0.6860 0.6920
1876.136748 0.6920 0.6920 0.6930 0.6930 0.6940
1881.052104 0.6940 0.6960 0.6960 0.6960 0.6970
1885.967461 0.6980 0.6980 0.7000 0.7000 0.7010
1890.882818 0.7020 0.7020 0.7040 0.7050 0.7050
1895.798175 0.7060 0.7080 0.7080 0.7090 0.7090
1900.713532 0.7090 0.7080 0.7080 0.7080 0.7080
1905.628888 0.7080 0.7080 0.7080 0.7090 0.7110
1910.544245 0.7120 0.7120 0.7130 0.7130 0.7150
1915.459602 0.7160 0.7160 0.7170 0.7190 0.7190
1920.374959 0.7190 0.7190 0.7190 0.7190 0.7170
1925.290316 0.7170 0.7170 0.7170 0.7190 0.7190
1930.205672 0.7200 0.7210 0.7230 0.7240 0.7240
1935.121029 0.7240 0.7240 0.7240 0.7240 0.7240
1940.036386 0.7240 0.7240 0.7240 0.7250 0.7250
1944.951743 0.7250 0.7270 0.7270 0.7270 0.7280
1949.867100 0.7280 0.7280 0.7290 0.7290 0.7290
1954.782457 0.7310 0.7310 0.7310 0.7310 0.7290
1959.697813 0.7280 0.7280 0.7280 0.7310 0.7320
1964.613170 0.7320 0.7330 0.7330 0.7350 0.7330
1969.528527 0.7360 0.7360 0.7370 0.7390 0.7390
1974.443884 0.7390 0.7390 0.7400 0.7400 0.7400
1979.359241 0.7400 0.7400 0.7400 0.7400 0.7400
1984.274597 0.7400 0.7400 0.7410 0.7410 0.7410
1989.189954 0.7430 0.7430 0.7440 0.7440 0.7440
1994.105311 0.7450 0.7450 0.7470 0.7470 0.7480
1999.020668 0.7510 0.7540 0.7560 0.7580 0.7590
2003.936025 0.7600 0.7620 0.7640 0.7655 0.7670
2008.851381 0.7690 0.7710 0.7725 0.7740 0.7745
2013.766738 0.7750 0.7755 0.7760 0.7770 0.7780
2018.682095 0.7780 0.7780 0.7780 0.7780 0.7785
2023.597452 0.7790 0.7790 0.7790 0.7790 0.7790
2028.512809 0.7790 0.7790 0.7790 0.7790 0.7790
2033.428166 0.7790 0.7790 0.7790 0.7790 0.7790
2038.343522 0.7795 0.7800 0.7800 0.7800 0.7800
2043.258879 0.7800 0.7810 0.7820 0.7820 0.7820
2048.174236 0.7825 0.7830 0.7830 0.7830 0.7835
2053.089593 0.7840 0.7835 0.7830 0.7830 0.7830
2058.004950 0.7830 0.7830 0.7830 0.7830 0.7835
2062.920306 0.7840 0.7840 0.7840 0.7840 0.7840
2067.835663 0.7840 0.7840 0.7840 0.7840 0.7840
2072.751020 0.7840 0.7840 0.7840 0.7835 0.7830
2077.666377 0.7830 0.7830 0.7825 0.7820 0.7820
2082.581734 0.7820 0.7810 0.7800 0.7800 0.7800
2087.497090 0.7795 0.7790 0.7790 0.7790 0.7790
2092.412447 0.7790 0.7790 0.7790 0.7785 0.7780
2097.327804 0.7780 0.7780 0.7780 0.7780 0.7780
2102.243161 0.7780 0.7771 0.7761 0.7760 0.7760
2107.158518 0.7755 0.7750 0.7750 0.7750 0.7745
2112.073874 0.7740 0.7740 0.7740 0.7731 0.7721
2116.989231 0.7720 0.7720 0.7715 0.7710 0.7705
2121.904588 0.7700 0.7700 0.7700 0.7691 0.7681
2126.819945 0.7680 0.7680 0.7680 0.7680 0.7680
2131.735302 0.7680 0.7675 0.7670 0.7670 0.7670
2136.650659 0.7670 0.7670 0.7670 0.7670 0.7665
2141.566015 0.7660 0.7660 0.7660 0.7651 0.7641
2146.481372 0.7640 0.7640 0.7640 0.7640 0.7640
2151.396729 0.7640 0.7640 0.7640 0.7640 0.7640
2156.312086 0.7649 0.7659 0.7660 0.7660 0.7665
2161.227443 0.7670 0.7670 0.7670 0.7670 0.7670
2166.142799 0.7670 0.7670 0.7670 0.7670 0.7670
2171.058156 0.7670 0.7670 0.7670 0.7674 0.7679
2175.973513 0.7680 0.7680 0.7680 0.7680 0.7680
2180.888870 0.7680 0.7680 0.7680 0.7676 0.7671
2185.804227 0.7666 0.7661 0.7660 0.7660 0.7651
2190.719583 0.7641 0.7636 0.7631 0.7630 0.7630
2195.634940 0.7630 0.7630 0.7626 0.7621 0.7624
2200.550297 0.7629 0.7626 0.7621 0.7620 0.7620
2205.465654 0.7620 0.7620 0.7620 0.7620 0.7611
2210.381011 0.7601 0.7600 0.7600 0.7596 0.7591
2215.296368 0.7590 0.7590 0.7590 0.7590 0.7577
2220.211724 0.7562 0.7556 0.7551 0.7546 0.7541
2225.127081 0.7531 0.7521 0.7520 0.7520 0.7516
2230.042438 0.7511 0.7506 0.7501 0.7500 0.7500
2234.957795 0.7500 0.7500 0.7491 0.7481 0.7480
2239.873152 0.7480 0.7476 0.7471 0.7470 0.7470
2244.788508 0.7461 0.7451 0.7450 0.7450 0.7450
2249.703865 0.7450 0.7450 0.7450 0.7450 0.7450
2254.619222 0.7450 0.7450 0.7450 0.7450 0.7450
2259.534579 0.7450 0.7450 0.7450 0.7450 0.7450
2264.449936 0.7450 0.7450 0.7446 0.7441 0.7440
2269.365292 0.7440 0.7436 0.7431 0.7430 0.7430
2274.280649 0.7430 0.7430 0.7421 0.7412 0.7410
2279.196006 0.7410 0.7406 0.7401 0.7400 0.7400
2284.111363 0.7396 0.7391 0.7390 0.7390 0.7390
2289.026720 0.7390 0.7390 0.7390 0.7390 0.7390
2293.942076 0.7382 0.7372 0.7370 0.7370 0.7370
2298.857433 0.7370 0.7370 0.7370 0.7366 0.7361
2303.772790 0.7360 0.7360 0.7356 0.7351 0.7350
2308.688147 0.7350 0.7342 0.7332 0.7330 0.7330
2313.603504 0.7326 0.7321 0.7320 0.7320 0.7304
2318.518861 0.7284 0.7276 0.7271 0.7262 0.7252
2323.434217 0.7250 0.7250 0.7242 0.7232 0.7214
2328.349574 0.7194 0.7174 0.7154 0.7138 0.7123
2333.264931 0.7108 0.7093 0.7090 0.7090 0.7090
2338.180288 0.7090 0.7078 0.7063 0.7052 0.7042
2343.095645 0.7040 0.7040 0.7028 0.7013 0.7006
2348.011001 0.7001 0.6992 0.6982 0.6976 0.6971
2352.926358 0.6970 0.6970 0.6966 0.6961 0.6960
2357.841715 0.6960 0.6948 0.6933 0.6926 0.6921
2362.757072 0.6912 0.6902 0.6900 0.6900 0.6900
2367.672429 0.6900 0.6892 0.6882 0.6880 0.6880
2372.587785 0.6872 0.6862 0.6852 0.6842 0.6840
2377.503142 0.6840 0.6828 0.6813 0.6798 0.6783
2382.418499 0.6776 0.6771 0.6770 0.6770 0.6766
2387.333856 0.6761 0.6752 0.6742 0.6736 0.6731
2392.249213 0.6715 0.6694 0.6690 0.6690 0.6678
2397.164570 0.6663 0.6656 0.6651 0.6635 0.6615
2402.079926 0.6595 0.6575 0.6570 0.6570 0.6543
2406.995283 0.6508 0.6489 0.6474 0.6466 0.6461
2411.910640 0.6460 0.6460 0.6441 0.6416 0.6410
2416.825997 0.6410 0.6387 0.6357 0.6346 0.6341
2421.741354 0.6336 0.6331 0.6322 0.6312 0.6310
2426.656710 0.6310 0.6306 0.6301 0.6281 0.6256
2431.572067 0.6239 0.6224 0.6205 0.6185 0.6157
2436.487424 0.6127 0.6116 0.6111 0.6084 0.6049
2441.402781 0.6036 0.6031 0.6030 0.6030 0.6026
2446.318138 0.6021 0.6013 0.6003 0.5993 0.5983
2451.233494 0.5958 0.5927 0.5905 0.5885 0.5880
2456.148851 0.5880 0.5873 0.5863 0.5849 0.5834
2461.064208 0.5819 0.5804 0.5785 0.5765 0.5745
2465.979565 0.5725 0.5709 0.5694 0.5686 0.5681
2470.894922 0.5676 0.5671 0.5659 0.5644 0.5629
2475.810278 0.5614 0.5592 0.5567 0.5542 0.5517
2480.725635 0.5488 0.5458 0.5425 0.5390 0.5366
2485.640992 0.5346 0.5333 0.5323 0.5299 0.5269
2490.556349 0.5242 0.5217 0.5192 0.5167 0.5135
2495.471706 0.5100 0.5076 0.5056 0.5032 0.5007
2500.387063 0.4961 0.4906 0.4865 0.4830 0.4795
2505.302419 0.4760 0.4708 0.4648 0.4612 0.4587
2510.217776 0.4573 0.4563 0.4556 0.4551 0.4536
2515.133133 0.4516 0.4492 0.4467 0.4439 0.4409
2520.048490 0.4343 0.4264 0.4208 0.4163 0.4139
2524.963847 0.4125 0.4117 0.4112 0.4103 0.4093
2529.879203 0.4083 0.4073 0.4063 0.4053 0.4029
2534.794560 0.3999 0.3979 0.3964 0.3943 0.3918
2539.709917 0.3889 0.3859 0.3836 0.3816 0.3807
2544.625274 0.3802 0.3790 0.3775 0.3743 0.3703
2549.540631 0.3663 0.3622 0.3593 0.3568 0.3546
2554.455987 0.3526 0.3506 0.3486 0.3470 0.3455
2559.371344 0.3426 0.3391 0.3356 0.3321 0.3296
2564.286701 0.3276 0.3263 0.3253 0.3243 0.3233
2569.202058 0.3227 0.3222 0.3217 0.3212 0.3203
2574.117415 0.3193 0.3190 0.3190 0.3190 0.3190
2579.032772 0.3187 0.3182 0.3177 0.3172 0.3170
2583.948128 0.3170 0.3163 0.3153 0.3147 0.3142
2588.863485 0.3140 0.3140 0.3137 0.3132 0.3130
2593.778842 0.3130 0.3123 0.3113 0.3107 0.3102
2598.694199 0.3097 0.3092 0.3067 0.3032 0.2994
2603.609556 0.2954 0.2920 0.2890 0.2861 0.2831
2608.524912 0.2807 0.2787 0.2760 0.2730 0.2713
2613.440269 0.2703 0.2690 0.2675 0.2667 0.2662
2618.355626 0.2663 0.2668 0.2670 0.2670 0.2673
2623.270983 0.2678 0.2686 0.2696 0.2700 0.2700
2628.186340 0.2700 0.2700 0.2703 0.2708 0.2710
2633.101696 0.2710 0.2710 0.2710 0.2707 0.2702
2638.017053 0.2694 0.2684 0.2664 0.2639 0.2620
2642.932410 0.2606 0.2587 0.2567 0.2554 0.2544
2647.847767 0.2527 0.2507 0.2484 0.2459 0.2444
2652.763124 0.2434 0.2411 0.2381 0.2357 0.2337
2657.678481 0.2324 0.2314 0.2310 0.2310 0.2304
2662.593837 0.2294 0.2290 0.2290 0.2290 0.2290
2667.509194 0.2290 0.2290 0.2290 0.2290 0.2296
2672.424551 0.2306 0.2310 0.2310 0.2310 0.2310
2677.339908 0.2313 0.2318 0.2320 0.2320 0.2320
2682.255265 0.2320 0.2323 0.2328 0.2336 0.2346
2687.170621 0.2350 0.2350 0.2353 0.2358 0.2360
2692.085978 0.2360 0.2363 0.2368 0.2370 0.2370
2697.001335 0.2376 0.2386 0.2393 0.2398 0.2403
2701.916692 0.2408 0.2416 0.2426 0.2433 0.2438
2706.832049 0.2440 0.2440 0.2440 0.2440 0.2443
2711.747405 0.2448 0.2450 0.2450 0.2456 0.2466
2716.662762 0.2470 0.2470 0.2473 0.2478 0.2480
2721.578119 0.2480 0.2486 0.2496 0.2500 0.2500
2726.493476 0.2500 0.2500 0.2500 0.2500 0.2500
2731.408833 0.2500 0.2500 0.2500 0.2500 0.2500
2736.324189 0.2494 0.2484 0.2480 0.2480 0.2477
2741.239546 0.2472 0.2464 0.2454 0.2447 0.2442
2746.154903 0.2440 0.2440 0.2440 0.2440 0.2440
2751.070260 0.2440 0.2440 0.2440 0.2443 0.2448
2755.985617 0.2450 0.2450 0.2450 0.2450 0.2456
2760.900974 0.2466 0.2470 0.2470 0.2470 0.2470
2765.816330 0.2470 0.2470 0.2470 0.2470 0.2470
2770.731687 0.2470 0.2464 0.2454 0.2450 0.2450
2775.647044 0.2444 0.2434 0.2424 0.2414 0.2407
2780.562401 0.2402 0.2397 0.2392 0.2390 0.2390
2785.477758 0.2384 0.2374 0.2367 0.2362 0.2357
2790.393114 0.2352 0.2344 0.2334 0.2327 0.2322
2795.308471 0.2320 0.2320 0.2309 0.2289 0.2272
2800.223828 0.2257 0.2236 0.2211 0.2189 0.2169
2805.139185 0.2149 0.2129 0.2109 0.2089 0.2072
2810.054542 0.2057 0.2047 0.2042 0.2021 0.1986
2814.969898 0.1967 0.1962 0.1949 0.1929 0.1904
2819.885255 0.1874 0.1847 0.1822 0.1807 0.1802
2824.800612 0.1795 0.1785 0.1769 0.1749 0.1726
2829.715969 0.1701 0.1679 0.1659 0.1642 0.1627
2834.631326 0.1617 0.1612 0.1602 0.1587 0.1577
2839.546683 0.1572 0.1560 0.1540 0.1509 0.1469
2844.462039 0.1450 0.1450 0.1431 0.1396 0.1369
2849.377396 0.1349 0.1332 0.1317 0.1305 0.1295
2854.292753 0.1280 0.1260 0.1245 0.1235 0.1217
2859.208110 0.1192 0.1154 0.1105 0.1065 0.1035
2864.123467 0.1012 0.0997 0.0972 0.0937 0.0897
2869.038823 0.0852 0.0809 0.0769 0.0732 0.0697
2873.954180 0.0660 0.0620 0.0572 0.0517 0.0462
2878.869537 0.0407 0.0357 0.0313 0.0283 0.0268
2883.784894 0.0265 0.0275 0.0290 0.0310 0.0325
2888.700251 0.0335 0.0340 0.0340 0.0337 0.0332
2893.615607 0.0330 0.0330 0.0330 0.0330 0.0328
2898.530964 0.0323 0.0315 0.0305 0.0300 0.0300
2903.446321 0.0298 0.0293 0.0290 0.0290 0.0288
2908.361678 0.0283 0.0280 0.0280 0.0280 0.0280
2913.277035 0.0280 0.0280 0.0275 0.0265 0.0258
2918.192391 0.0253 0.0250 0.0250 0.0250 0.0250
2923.107748 0.0243 0.0228 0.0220 0.0220 0.0210
2928.023105 0.0190 0.0175 0.0165 0.0153 0.0138
2932.938462 0.0128 0.0123 0.0113 0.0098 0.0090
2937.853819 0.0090 0.0092 0.0097 0.0100 0.0100
2942.769176 0.0105 0.0115 0.0120 0.0120 0.0122
2947.684532 0.0127 0.0130 0.0130 0.0130 0.0130
2952.599889 0.0130 0.0130 0.0130 0.0130 0.0130
2957.515246 0.0130 0.0128 0.0123 0.0115 0.0105
2962.430603 0.0098 0.0093 0.0083 0.0068 0.0051
2967.345960 0.0031 0.0015 0.0005 0.0000 0.0000
2972.261316 0.0000 0.0000 0.0000 0.0000 0.0000
2977.176673 0.0000 0.0002 0.0007 0.0017 0.0032
2982.092030 0.0049 0.0069 0.0101 0.0146 0.0172
2987.007387 0.0177 0.0187 0.0202 0.0228 0.0268
2991.922744 0.0297 0.0312 0.0320 0.0320 0.0331
2996.838100 0.0356 0.0379 0.0399 0.0432 0.0482
3001.753457 0.0519 0.0539 0.0550 0.0550 0.0552
3006.668814 0.0557 0.0567 0.0582 0.0590 0.0590
3011.584171 0.0590 0.0590 0.0590 0.0590 0.0592
3016.499528 0.0597 0.0600 0.0600 0.0598 0.0593
3021.414885 0.0590 0.0590 0.0586 0.0576 0.0570
3026.330241 0.0570 0.0568 0.0563 0.0560 0.0560
3031.245598 0.0560 0.0560 0.0560 0.0560 0.0558
3036.160955 0.0553 0.0550 0.0550 0.0550 0.0550
3041.076312 0.0550 0.0550 0.0552 0.0557 0.0562
3045.991669 0.0567 0.0574 0.0584 0.0590 0.0590
3050.907025 0.0592 0.0597 0.0602 0.0607 0.0610
3055.822382 0.0610 0.0614 0.0624 0.0632 0.0637
3060.737739 0.0640 0.0640 0.0642 0.0647 0.0656
3065.653096 0.0671 0.0680 0.0680 0.0682 0.0687
3070.568453 0.0694 0.0704 0.0714 0.0724 0.0730
3075.483809 0.0730 0.0730 0.0730 0.0730 0.0730
3080.399166 0.0730 0.0730 0.0730 0.0730 0.0734
3085.314523 0.0744 0.0750 0.0750 0.0752 0.0757
3090.229880 0.0762 0.0767 0.0770 0.0770 0.0774
3095.145237 0.0784 0.0790 0.0790 0.0790 0.0790
3100.060593 0.0792 0.0797 0.0800 0.0800 0.0802
3104.975950 0.0807 0.0814 0.0824 0.0830 0.0830
3109.891307 0.0832 0.0837 0.0840 0.0840 0.0846
3114.806664 0.0861 0.0876 0.0891 0.0902 0.0907
3119.722021 0.0910 0.0910 0.0920 0.0945 0.0964
3124.637378 0.0974 0.0982 0.0987 0.0990 0.0990
3129.552734 0.0992 0.0997 0.1011 0.1041 0.1064
3134.468091 0.1074 0.1084 0.1094 0.1104 0.1114
3139.383448 0.1125 0.1140 0.1157 0.1177 0.1196
3144.298805 0.1211 0.1227 0.1247 0.1262 0.1267
3149.214162 0.1275 0.1290 0.1305 0.1320 0.1334
3154.129518 0.1344 0.1355 0.1370 0.1387 0.1407
3159.044875 0.1432 0.1467 0.1494 0.1504 0.1515
3163.960232 0.1530 0.1545 0.1560 0.1570 0.1570
3168.875589 0.1572 0.1577 0.1580 0.1580 0.1585
3173.790946 0.1600 0.1618 0.1643 0.1665 0.1680
3178.706302 0.1697 0.1717 0.1735 0.1750 0.1767
3183.621659 0.1787 0.1803 0.1813 0.1834 0.1874
3188.537016 0.1910 0.1940 0.1962 0.1967 0.1972
3193.452373 0.1977 0.1983 0.1993 0.2008 0.2033
3198.367730 0.2055 0.2070 0.2088 0.2113 0.2135
3203.283087 0.2150 0.2165 0.2180 0.2193 0.2203
3208.198443 0.2215 0.2230 0.2245 0.2260 0.2278
3213.113800 0.2303 0.2328 0.2353 0.2375 0.2390
3218.029157 0.2416 0.2466 0.2502 0.2507 0.2518
3222.944514 0.2543 0.2566 0.2586 0.2611 0.2646
3227.859871 0.2681 0.2716 0.2746 0.2766 0.2783
3232.775227 0.2793 0.2809 0.2839 0.2871 0.2906
3237.690584 0.2936 0.2956 0.2973 0.2983 0.2999
3242.605941 0.3029 0.3059 0.3089 0.3115 0.3130
3247.521298 0.3152 0.3192 0.3228 0.3252 0.3273
3252.436655 0.3283 0.3297 0.3322 0.3346 0.3366
3257.352011 0.3386 0.3406 0.3437 0.3492 0.3538
3262.267368 0.3563 0.3586 0.3606 0.3626 0.3646
3267.182725 0.3669 0.3699 0.3721 0.3726 0.3741
3272.098082 0.3781 0.3821 0.3861 0.3896 0.3916
3277.013439 0.3933 0.3943 0.3965 0.4015 0.4060
3281.928795 0.4095 0.4126 0.4146 0.4174 0.4224
3286.844152 0.4261 0.4266 0.4277 0.4302 0.4330
3291.759509 0.4365 0.4397 0.4422 0.4444 0.4459
3296.674866 0.4479 0.4515 0.4553 0.4598 0.4641
3301.590223 0.4681 0.4720 0.4755 0.4787 0.4812
3306.505580 0.4838 0.4868 0.4893 0.4903 0.4922
3311.420936 0.4967 0.5005 0.5025 0.5046 0.5071
3316.336293 0.5094 0.5109 0.5128 0.5158 0.5189
3321.251650 0.5224 0.5251 0.5256 0.5263 0.5273
3326.167007 0.5288 0.5318 0.5345 0.5365 0.5386
3331.082364 0.5411 0.5431 0.5436 0.5445 0.5465
3335.997720 0.5484 0.5499 0.5515 0.5535 0.5560
3340.913077 0.5600 0.5631 0.5636 0.5644 0.5659
3345.828434 0.5675 0.5695 0.5715 0.5735 0.5751
3350.743791 0.5756 0.5761 0.5766 0.5772 0.5782
3355.659148 0.5792 0.5802 0.5819 0.5854 0.5882
3360.574504 0.5892 0.5915 0.5975 0.6021 0.6026
3365.489861 0.6038 0.6073 0.6106 0.6131 0.6156
3370.405218 0.6181 0.6206 0.6231 0.6257 0.6287
3375.320575 0.6315 0.6335 0.6357 0.6387 0.6417
3380.235932 0.6447 0.6477 0.6507 0.6539 0.6579
3385.151289 0.6612 0.6622 0.6633 0.6648 0.6664
3390.066645 0.6684 0.6709 0.6749 0.6782 0.6792
3394.982002 0.6801 0.6806 0.6813 0.6828 0.6850
3399.897359 0.6895 0.6938 0.6973 0.7004 0.7024
3404.812716 0.7042 0.7052 0.7062 0.7072 0.7080
3409.728073 0.7080 0.7081 0.7086 0.7093 0.7108
3414.643429 0.7123 0.7138 0.7151 0.7156 0.7169
3419.558786 0.7209 0.7243 0.7258 0.7271 0.7276
3424.474143 0.7281 0.7286 0.7293 0.7308 0.7325
3429.389500 0.7350 0.7374 0.7394 0.7413 0.7428
3434.304857 0.7444 0.7464 0.7482 0.7492 0.7501
3439.220213 0.7506 0.7513 0.7528 0.7546 0.7576
3444.135570 0.7603 0.7618 0.7631 0.7636 0.7642
3449.050927 0.7652 0.7660 0.7660 0.7661 0.7666
3453.966284 0.7673 0.7688 0.7700 0.7700 0.7702
3458.881641 0.7712 0.7724 0.7744 0.7764 0.7784
3463.796997 0.7800 0.7800 0.7802 0.7812 0.7820
3468.712354 0.7820 0.7820 0.7820 0.7821 0.7826
3473.627711 0.7833 0.7848 0.7862 0.7872 0.7882
3478.543068 0.7892 0.7900 0.7900 0.7901 0.7906
3483.458425 0.7910 0.7910 0.7912 0.7922 0.7930
3488.373782 0.7930 0.7931 0.7936 0.7941 0.7946
3493.289138 0.7952 0.7962 0.7970 0.7970 0.7972
3498.204495 0.7982 0.7990 0.7990 0.7990 0.7990
3503.119852 0.7990 0.7990 0.7988 0.7978 0.7970
3508.035209 0.7970 0.7968 0.7958 0.7950 0.7950
3512.950566 0.7949 0.7944 0.7939 0.7934 0.7928
3517.865922 0.7918 0.7908 0.7893 0.7878 0.7868
3522.781279 0.7858 0.7848 0.7839 0.7834 0.7829
3527.696636 0.7824 0.7819 0.7809 0.7800 0.7800
3532.611993 0.7801 0.7811 0.7821 0.7826 0.7832
3537.527350 0.7847 0.7867 0.7912 0.7954 0.7984
3542.442706 0.8016 0.8061 0.8103 0.8123 0.8145
3547.358063 0.8185 0.8223 0.8248 0.8273 0.8293
3552.273420 0.8311 0.8321 0.8332 0.8347 0.8361
3557.188777 0.8366 0.8373 0.8393 0.8412 0.8427
3562.104134 0.8440 0.8440 0.8440 0.8440 0.8441
3567.019491 0.8446 0.8451 0.8456 0.8460 0.8460
3571.934847 0.8461 0.8471 0.8481 0.8491 0.8500
3576.850204 0.8500 0.8501 0.8511 0.8521 0.8526
3581.765561 0.8530 0.8530 0.8530 0.8530 0.8530
3586.680918 0.8530 0.8531 0.8536 0.8541 0.8551
3591.596275 0.8561 0.8566 0.8570 0.8570 0.8571
3596.511631 0.8576 0.8581 0.8591 0.8601 0.8606
3601.426988 0.8611 0.8616 0.8621 0.8631 0.8640
3606.342345 0.8640 0.8640 0.8640 0.8640 0.8640
3611.257702 0.8640 0.8640 0.8641 0.8646 0.8650
3616.173059 0.8650 0.8650 0.8650 0.8650 0.8655
3621.088415 0.8661 0.8671 0.8680 0.8685 0.8690
3626.003772 0.8690 0.8690 0.8685 0.8680 0.8680
3630.919129 0.8680 0.8680 0.8680 0.8680 0.8680
3635.834486 0.8680 0.8680 0.8685 0.8690 0.8695
3640.749843 0.8700 0.8700 0.8700 0.8700 0.8700
3645.665199 0.8700 0.8700 0.8695 0.8689 0.8674
3650.580556 0.8660 0.8655 0.8650 0.8650 0.8650
3655.495913 0.8650 0.8650 0.8645 0.8639 0.8629
3660.411270 0.8619 0.8609 0.8599 0.8589 0.8580
3665.326627 0.8580 0.8580 0.8580 0.8580 0.8580
3670.241984 0.8580 0.8575 0.8570 0.8570 0.8570
3675.157340 0.8575 0.8581 0.8591 0.8601 0.8611
3680.072697 0.8621 0.8636 0.8651 0.8666 0.8680
3684.988054 0.8680 0.8681 0.8691 0.8700 0.8700
3689.903411 0.8700 0.8711 0.8720 0.8725 0.8731
3694.818768 0.8746 0.8761 0.8776 0.8791 0.8801
3699.734124 0.8811 0.8826 0.8840 0.8845 0.8850
3704.649481 0.8860 0.8870 0.8870 0.8870 0.8870
3709.564838 0.8870 0.8870 0.8870 0.8870 0.8871
3714.480195 0.8891 0.8910 0.8915 0.8920 0.8925
3719.395552 0.8930 0.8930 0.8930 0.8925 0.8920
3724.310908 0.8920 0.8920 0.8925 0.8930 0.8930
3729.226265 0.8930 0.8930 0.8930 0.8940 0.8950
3734.141622 0.8950 0.8950 0.8940 0.8930 0.8930
3739.056979 0.8930 0.8930 0.8930 0.8930 0.8930
3743.972336 0.8925 0.8920 0.8920 0.8920 0.8915
3748.887693 0.8910 0.8910 0.8910 0.8910 0.8910
3753.803049 0.8910 0.8910 0.8915 0.8920 0.8925
3758.718406 0.8930 0.8930 0.8930 0.8930 0.8930
3763.633763 0.8930 0.8930 0.8930 0.8930 0.8930
3768.549120 0.8930 0.8930 0.8930 0.8925 0.8920
3773.464477 0.8920 0.8920 0.8920 0.8920 0.8920
3778.379833 0.8920 0.8915 0.8910 0.8915 0.8920
3783.295190 0.8920 0.8920 0.8925 0.8930 0.8930
3788.210547 0.8930 0.8930 0.8930 0.8930 0.8930
3793.125904 0.8930 0.8930 0.8930 0.8930 0.8940
3798.041261 0.8950
##END=
