##TITLE=2-PENTANONE
##JCAMP-DX=4.24
##DATA TYPE=INFRARED SPECTRUM
##CLASS=COBLENTZ
##ORIGIN=DOW CHEMICAL COMPANY
##OWNER=COBLENTZ SOCIETY
Collection (C) 2018 copyright by the U.S. Secretary of Commerce
on behalf of the United States of America. All rights reserved.
##DATE=1964
##NAMES=METHYL-n-PROPYL KETONE
##CAS REGISTRY NO=107-87-9
##MOLFORM=C5 H10 O
##SOURCE REFERENCE=COBLENTZ NO. 8783
##$NIST SOURCE=COBLENTZ
##$NIST IMAGE=cob-r8783
##SPECTROMETER/DATA SYSTEM=DOW KBr FOREPRISM-GRATING
##INSTRUMENT PARAMETERS=GRATING CHANGED AT 5.0, 7.5, 15.0 MICRON
##STATE=GAS (20 mmHg, N2 ADDED, TOTAL PRESSURE 600 mmHg)
##PATH LENGTH=5 CM
##SAMPLING PROCEDURE=TRANSMISSION
##RESOLUTION=2
##DATA PROCESSING=DIGITIZED BY NIST FROM HARD COPY (FROM TWO SEGMENTS)
##XUNITS=1/CM
##YUNITS=TRANSMITTANCE
##XFACTOR=1.000000
##YFACTOR=1
##DELTAX=0.937502
##FIRSTX=382.813
##LASTX=3778.44
##FIRSTY=0.973
##MAXX=3778.44
##MINX=382.813
##MAXY=1.001
##MINY=0.160008
##NPOINTS=3623
##XYDATA=(X++(Y..Y))
382.813000 0.9730 0.9720 0.9720 0.9710 0.9710
387.500508 0.9690 0.9690 0.9690 0.9680 0.9680
392.188016 0.9660 0.9660 0.9650 0.9630 0.9630
396.875524 0.9620 0.9620 0.9600 0.9600 0.9590
401.563032 0.9590 0.9570 0.9570 0.9570 0.9560
406.250539 0.9560 0.9550 0.9550 0.9530 0.9530
410.938047 0.9530 0.9530 0.9500 0.9500 0.9490
415.625555 0.9490 0.9470 0.9470 0.9470 0.9490
420.313063 0.9470 0.9470 0.9490 0.9490 0.9490
425.000571 0.9490 0.9490 0.9490 0.9490 0.9490
429.688079 0.9490 0.9490 0.9490 0.9490 0.9490
434.375587 0.9490 0.9490 0.9490 0.9490 0.9490
439.063095 0.9490 0.9490 0.9500 0.9500 0.9500
443.750602 0.9500 0.9500 0.9500 0.9500 0.9500
448.438110 0.9500 0.9500 0.9500 0.9500 0.9520
453.125618 0.9520 0.9520 0.9520 0.9530 0.9530
457.813126 0.9530 0.9530 0.9550 0.9550 0.9550
462.500634 0.9550 0.9550 0.9550 0.9550 0.9550
467.188142 0.9550 0.9550 0.9550 0.9550 0.9550
471.875650 0.9550 0.9550 0.9550 0.9550 0.9550
476.563158 0.9550 0.9550 0.9530 0.9530 0.9530
481.250666 0.9530 0.9520 0.9500 0.9500 0.9500
485.938173 0.9490 0.9490 0.9470 0.9470 0.9460
490.625681 0.9460 0.9440 0.9430 0.9430 0.9420
495.313189 0.9400 0.9400 0.9390 0.9370 0.9370
500.000697 0.9360 0.9330 0.9310 0.9280 0.9260
504.688205 0.9240 0.9230 0.9210 0.9200 0.9180
509.375713 0.9170 0.9150 0.9130 0.9130 0.9110
514.063221 0.9100 0.9080 0.9080 0.9070 0.9070
518.750729 0.9050 0.9050 0.9040 0.9040 0.9040
523.438236 0.9050 0.9050 0.9050 0.9070 0.9070
528.125744 0.9070 0.9080 0.9080 0.9100 0.9110
532.813252 0.9130 0.9140 0.9140 0.9150 0.9170
537.500760 0.9180 0.9200 0.9210 0.9210 0.9240
542.188268 0.9260 0.9270 0.9270 0.9280 0.9280
546.875776 0.9300 0.9300 0.9310 0.9310 0.9310
551.563284 0.9310 0.9310 0.9310 0.9310 0.9300
556.250792 0.9300 0.9300 0.9280 0.9270 0.9270
560.938299 0.9260 0.9260 0.9260 0.9240 0.9230
565.625807 0.9230 0.9210 0.9200 0.9180 0.9180
570.313315 0.9170 0.9170 0.9150 0.9130 0.9110
575.000823 0.9080 0.9050 0.9020 0.8970 0.8920
579.688331 0.8780 0.8710 0.8680 0.8630 0.8590
584.375839 0.8560 0.8560 0.8560 0.8550 0.8550
589.063347 0.8550 0.8550 0.8550 0.8550 0.8560
593.750855 0.8570 0.8570 0.8590 0.8600 0.8620
598.438363 0.8660 0.8680 0.8780 0.8890 0.9050
603.125870 0.9150 0.9260 0.9310 0.9370 0.9420
607.813378 0.9460 0.9500 0.9500 0.9520 0.9530
612.500886 0.9550 0.9560 0.9570 0.9590 0.9600
617.188394 0.9620 0.9620 0.9630 0.9650 0.9650
621.875902 0.9660 0.9660 0.9680 0.9690 0.9690
626.563410 0.9710 0.9710 0.9720 0.9720 0.9720
631.250918 0.9730 0.9730 0.9730 0.9750 0.9750
635.938426 0.9760 0.9760 0.9780 0.9780 0.9780
640.625933 0.9790 0.9810 0.9820 0.9840 0.9850
645.313441 0.9850 0.9860 0.9860 0.9860 0.9880
650.000949 0.9880 0.9880 0.9890 0.9890 0.9890
654.688457 0.9890 0.9890 0.9890 0.9890 0.9890
659.375965 0.9890 0.9890 0.9890 0.9890 0.9880
664.063473 0.9880 0.9880 0.9880 0.9880 0.9880
668.750981 0.9880 0.9880 0.9860 0.9850 0.9850
673.438489 0.9850 0.9840 0.9840 0.9840 0.9840
678.125997 0.9820 0.9820 0.9820 0.9810 0.9810
682.813504 0.9810 0.9810 0.9810 0.9810 0.9810
687.501012 0.9790 0.9790 0.9790 0.9790 0.9790
692.188520 0.9780 0.9760 0.9750 0.9730 0.9680
696.876028 0.9441 0.9440 0.9530 0.9679 0.9780
701.563536 0.9790 0.9790 0.9790 0.9780 0.9780
706.251044 0.9760 0.9750 0.9750 0.9730 0.9720
710.938552 0.9710 0.9690 0.9660 0.9650 0.9630
715.626060 0.9590 0.9560 0.9530 0.9520 0.9500
720.313567 0.9490 0.9490 0.9470 0.9460 0.9460
725.001075 0.9460 0.9440 0.9440 0.9430 0.9430
729.688583 0.9430 0.9440 0.9440 0.9460 0.9490
734.376091 0.9500 0.9520 0.9550 0.9560 0.9590
739.063599 0.9650 0.9680 0.9710 0.9750 0.9790
743.751107 0.9820 0.9840 0.9860 0.9880 0.9910
748.438615 0.9920 0.9940 0.9950 0.9970 0.9970
753.126123 0.9980 1.0000 1.0000 1.0000 1.0010
757.813630 1.0010 1.0010 1.0010 1.0010 1.0010
762.501138 1.0010 1.0010 1.0010 1.0010 1.0010
767.188646 1.0010 1.0010 1.0010 1.0010 1.0010
771.876154 1.0010 1.0000 1.0000 1.0000 1.0000
776.563662 0.9980 0.9980 0.9980 0.9980 0.9970
781.251170 0.9970 0.9940 0.9920 0.9910 0.9890
785.938678 0.9890 0.9880 0.9880 0.9880 0.9880
790.626186 0.9880 0.9880 0.9860 0.9820 0.9810
795.313694 0.9810 0.9810 0.9810 0.9810 0.9810
800.001201 0.9820 0.9820 0.9840 0.9840 0.9840
804.688709 0.9840 0.9840 0.9840 0.9840 0.9840
809.376217 0.9840 0.9820 0.9820 0.9820 0.9820
814.063725 0.9820 0.9820 0.9810 0.9810 0.9810
818.751233 0.9790 0.9790 0.9790 0.9780 0.9780
823.438741 0.9780 0.9760 0.9760 0.9760 0.9750
828.126249 0.9750 0.9730 0.9730 0.9730 0.9750
832.813757 0.9760 0.9780 0.9780 0.9780 0.9760
837.501264 0.9760 0.9750 0.9730 0.9720 0.9720
842.188772 0.9710 0.9690 0.9660 0.9630 0.9620
846.876280 0.9590 0.9560 0.9550 0.9500 0.9470
851.563788 0.9420 0.9390 0.9390 0.9400 0.9420
856.251296 0.9430 0.9430 0.9430 0.9420 0.9420
860.938804 0.9430 0.9430 0.9460 0.9430 0.9340
865.626312 0.9330 0.9330 0.9330 0.9360 0.9420
870.313820 0.9430 0.9490 0.9550 0.9560 0.9560
875.001328 0.9560 0.9550 0.9550 0.9530 0.9520
879.688835 0.9470 0.9460 0.9440 0.9430 0.9420
884.376343 0.9420 0.9400 0.9390 0.9370 0.9360
889.063851 0.9340 0.9330 0.9280 0.9230 0.9200
893.751359 0.9180 0.9150 0.9150 0.9170 0.9170
898.438867 0.9180 0.9200 0.9210 0.9230 0.9230
903.126375 0.9240 0.9260 0.9260 0.9260 0.9270
907.813883 0.9270 0.9280 0.9300 0.9340 0.9360
912.501391 0.9370 0.9430 0.9490 0.9530 0.9550
917.188898 0.9560 0.9560 0.9560 0.9560 0.9550
921.876406 0.9550 0.9550 0.9530 0.9530 0.9530
926.563914 0.9520 0.9520 0.9500 0.9490 0.9470
931.251422 0.9470 0.9460 0.9440 0.9430 0.9420
935.938930 0.9400 0.9390 0.9370 0.9360 0.9340
940.626438 0.9330 0.9310 0.9260 0.9180 0.9150
945.313946 0.9130 0.9050 0.8970 0.8910 0.8880
950.001454 0.8840 0.8790 0.8750 0.8710 0.8660
954.688961 0.8630 0.8620 0.8600 0.8590 0.8570
959.376469 0.8560 0.8560 0.8550 0.8550 0.8550
964.063977 0.8560 0.8590 0.8620 0.8630 0.8660
968.751485 0.8690 0.8720 0.8730 0.8790 0.8850
973.438993 0.8890 0.8920 0.8940 0.8950 0.8970
978.126501 0.9010 0.9020 0.9040 0.9070 0.9080
982.814009 0.9100 0.9110 0.9130 0.9140 0.9150
987.501517 0.9170 0.9170 0.9180 0.9180 0.9200
992.189025 0.9200 0.9210 0.9210 0.9230 0.9230
996.876532 0.9240 0.9240 0.9260 0.9260 0.9260
1001.564040 0.9270 0.9270 0.9280 0.9280 0.9280
1006.251548 0.9300 0.9300 0.9300 0.9310 0.9310
1010.939056 0.9310 0.9310 0.9330 0.9330 0.9340
1015.626564 0.9340 0.9340 0.9360 0.9360 0.9360
1020.314072 0.9370 0.9370 0.9370 0.9370 0.9360
1025.001580 0.9340 0.9340 0.9340 0.9330 0.9310
1029.689088 0.9300 0.9280 0.9270 0.9260 0.9260
1034.376595 0.9260 0.9270 0.9310 0.9310 0.9330
1039.064103 0.9330 0.9330 0.9310 0.9300 0.9270
1043.751611 0.9260 0.9240 0.9230 0.9230 0.9230
1048.439119 0.9230 0.9230 0.9240 0.9240 0.9240
1053.126627 0.9240 0.9230 0.9230 0.9210 0.9210
1057.814135 0.9210 0.9210 0.9210 0.9230 0.9230
1062.501643 0.9230 0.9230 0.9240 0.9260 0.9260
1067.189151 0.9260 0.9260 0.9260 0.9270 0.9270
1071.876659 0.9270 0.9260 0.9260 0.9240 0.9240
1076.564166 0.9230 0.9230 0.9210 0.9210 0.9200
1081.251674 0.9180 0.9180 0.9170 0.9150 0.9150
1085.939182 0.9140 0.9130 0.9130 0.9100 0.9100
1090.626690 0.9080 0.9080 0.9070 0.9070 0.9050
1095.314198 0.9040 0.9020 0.9020 0.9010 0.9010
1100.001706 0.9000 0.9000 0.8980 0.8970 0.8970
1104.689214 0.8970 0.8970 0.8980 0.8980 0.8980
1109.376722 0.9000 0.9010 0.9010 0.9010 0.9020
1114.064229 0.9020 0.9020 0.9040 0.9040 0.9040
1118.751737 0.9050 0.9050 0.9050 0.9050 0.9050
1123.439245 0.9050 0.9050 0.9050 0.9050 0.9050
1128.126753 0.9040 0.9040 0.9040 0.9020 0.9020
1132.814261 0.9000 0.9000 0.8980 0.8970 0.8940
1137.501769 0.8940 0.8940 0.8910 0.8880 0.8810
1142.189277 0.8730 0.8680 0.8620 0.8570 0.8500
1146.876785 0.8390 0.8280 0.8170 0.8040 0.7910
1151.564292 0.7720 0.7500 0.7270 0.7050 0.6820
1156.251800 0.6600 0.6390 0.6151 0.5921 0.5691
1160.939308 0.5500 0.5310 0.5080 0.4980 0.4850
1165.626816 0.4730 0.4690 0.4630 0.4620 0.4550
1170.314324 0.4520 0.4500 0.4500 0.4520 0.4560
1175.001832 0.4620 0.4650 0.4680 0.4760 0.4850
1179.689340 0.4950 0.5080 0.5550 0.5760 0.5950
1184.376848 0.6130 0.6270 0.6400 0.6550 0.6709
1189.064356 0.6860 0.6940 0.7070 0.7230 0.7360
1193.751863 0.7470 0.7560 0.7650 0.7730 0.7790
1198.439371 0.7860 0.7940 0.7950 0.8000 0.8050
1203.126879 0.8110 0.8170 0.8230 0.8270 0.8330
1207.814387 0.8360 0.8400 0.8430 0.8490 0.8520
1212.501895 0.8560 0.8590 0.8620 0.8650 0.8660
1217.189403 0.8680 0.8690 0.8690 0.8690 0.8690
1221.876911 0.8680 0.8660 0.8660 0.8650 0.8630
1226.564419 0.8620 0.8600 0.8570 0.8570 0.8560
1231.251926 0.8550 0.8530 0.8460 0.8430 0.8430
1235.939434 0.8430 0.8420 0.8420 0.8420 0.8420
1240.626942 0.8400 0.8400 0.8400 0.8400 0.8420
1245.314450 0.8420 0.8420 0.8430 0.8440 0.8460
1250.001958 0.8460 0.8470 0.8500 0.8520 0.8520
1254.689466 0.8520 0.8520 0.8520 0.8530 0.8530
1259.376974 0.8530 0.8520 0.8520 0.8500 0.8470
1264.064482 0.8430 0.8400 0.8360 0.8340 0.8330
1268.751990 0.8310 0.8310 0.8280 0.8280 0.8270
1273.439497 0.8260 0.8240 0.8240 0.8240 0.8240
1278.127005 0.8230 0.8230 0.8230 0.8230 0.8210
1282.814513 0.8210 0.8210 0.8210 0.8210 0.8200
1287.502021 0.8200 0.8200 0.8200 0.8200 0.8180
1292.189529 0.8170 0.8170 0.8150 0.8140 0.8140
1296.877037 0.8140 0.8150 0.8170 0.8180 0.8200
1301.564545 0.8210 0.8230 0.8240 0.8260 0.8270
1306.252053 0.8300 0.8310 0.8360 0.8370 0.8400
1310.939560 0.8430 0.8470 0.8500 0.8530 0.8550
1315.627068 0.8570 0.8620 0.8620 0.8630 0.8660
1320.314576 0.8680 0.8690 0.8710 0.8720 0.8720
1325.002084 0.8730 0.8730 0.8730 0.8730 0.8720
1329.689592 0.8710 0.8680 0.8630 0.8570 0.8520
1334.377100 0.8460 0.8430 0.8340 0.8280 0.8170
1339.064608 0.8110 0.7980 0.7920 0.7780 0.7680
1343.752116 0.7550 0.7390 0.7230 0.7051 0.6881
1348.439623 0.6720 0.6550 0.6390 0.6230 0.5940
1353.127131 0.5710 0.5550 0.5440 0.5330 0.5141
1357.814639 0.5020 0.4890 0.4600 0.4530 0.4430
1362.502147 0.4330 0.4230 0.4140 0.4130 0.4130
1367.189655 0.4140 0.4150 0.4180 0.4240 0.4260
1371.877163 0.4340 0.4430 0.4490 0.4560 0.4630
1376.564671 0.4720 0.4810 0.4950 0.5080 0.5210
1381.252179 0.5679 0.5970 0.6130 0.6260 0.6439
1385.939687 0.6710 0.6950 0.7180 0.7340 0.7420
1390.627194 0.7530 0.7620 0.7680 0.7720 0.7730
1395.314702 0.7750 0.7790 0.7850 0.7890 0.7920
1400.002210 0.7940 0.7970 0.7980 0.7970 0.7950
1404.689718 0.7860 0.7840 0.7820 0.7780 0.7750
1409.377226 0.7720 0.7710 0.7620 0.7570 0.7550
1414.064734 0.7550 0.7520 0.7490 0.7430 0.7300
1418.752242 0.7270 0.7240 0.7210 0.7180 0.7200
1423.439750 0.7210 0.7210 0.7210 0.7210 0.7230
1428.127257 0.7230 0.7230 0.7230 0.7230 0.7230
1432.814765 0.7230 0.7230 0.7240 0.7240 0.7240
1437.502273 0.7240 0.7240 0.7260 0.7260 0.7310
1442.189781 0.7310 0.7310 0.7300 0.7300 0.7280
1446.877289 0.7270 0.7270 0.7240 0.7230 0.7210
1451.564797 0.7200 0.7180 0.7170 0.7140 0.7130
1456.252305 0.7130 0.7110 0.7110 0.7130 0.7140
1460.939813 0.7150 0.7270 0.7310 0.7330 0.7330
1465.627321 0.7330 0.7330 0.7390 0.7440 0.7520
1470.314828 0.7570 0.7600 0.7680 0.7750 0.7790
1475.002336 0.7840 0.7920 0.7970 0.8040 0.8100
1479.689844 0.8140 0.8200 0.8230 0.8300 0.8370
1484.377352 0.8430 0.8470 0.8500 0.8530 0.8550
1489.064860 0.8590 0.8620 0.8630 0.8690 0.8730
1493.752368 0.8780 0.8820 0.8810 0.8790 0.8790
1498.439876 0.8810 0.8860 0.8880 0.8890 0.8950
1503.127384 0.8970 0.8970 0.8950 0.8940 0.8890
1507.814891 0.8790 0.8790 0.8840 0.8940 0.9000
1512.502399 0.9000 0.9010 0.9010 0.9010 0.9000
1517.189907 0.9000 0.8950 0.8920 0.8920 0.8910
1521.877415 0.8910 0.8890 0.8910 0.8970 0.9010
1526.564923 0.9010 0.9020 0.9020 0.9040 0.9050
1531.252431 0.9050 0.9050 0.9040 0.9000 0.8970
1535.939939 0.8940 0.8910 0.8920 0.9040 0.9040
1540.627447 0.8790 0.8780 0.8810 0.8860 0.8910
1545.314955 0.8950 0.9000 0.9010 0.9010 0.9040
1550.002462 0.9050 0.9050 0.9050 0.9050 0.9050
1554.689970 0.9040 0.9040 0.9020 0.9000 0.9000
1559.377478 0.9000 0.8840 0.8690 0.8840 0.8970
1564.064986 0.8980 0.9010 0.9020 0.9050 0.9070
1568.752494 0.9070 0.9070 0.9050 0.9000 0.8970
1573.440002 0.8970 0.9010 0.9050 0.9040 0.9000
1578.127510 0.8970 0.8980 0.9070 0.9110 0.9150
1582.815018 0.9170 0.9180 0.9180 0.9180 0.9180
1587.502525 0.9200 0.9200 0.9200 0.9200 0.9210
1592.190033 0.9210 0.9210 0.9210 0.9210 0.9230
1596.877541 0.9230 0.9230 0.9230 0.9240 0.9240
1601.565049 0.9240 0.9240 0.9260 0.9260 0.9260
1606.252557 0.9270 0.9270 0.9270 0.9270 0.9270
1610.940065 0.9280 0.9280 0.9280 0.9280 0.9280
1615.627573 0.9270 0.9260 0.9150 0.9070 0.9040
1620.315081 0.9100 0.9150 0.9180 0.9200 0.9210
1625.002588 0.9230 0.9240 0.9240 0.9260 0.9260
1629.690096 0.9270 0.9270 0.9270 0.9260 0.9260
1634.377604 0.9210 0.9170 0.9140 0.9100 0.9150
1639.065112 0.9150 0.9260 0.9300 0.9310 0.9310
1643.752620 0.9310 0.9280 0.9270 0.9180 0.9140
1648.440128 0.9110 0.9130 0.9150 0.9200 0.9210
1653.127636 0.9210 0.8820 0.8720 0.8820 0.8920
1657.815144 0.9070 0.9150 0.9230 0.9230 0.9210
1662.502652 0.9200 0.9200 0.9180 0.9180 0.9170
1667.190159 0.9170 0.9170 0.9140 0.9110 0.9070
1671.877667 0.9040 0.9010 0.9020 0.9080 0.9080
1676.565175 0.8970 0.8940 0.8950 0.9000 0.9000
1681.252683 0.8970 0.8890 0.8820 0.8720 0.8600
1685.940191 0.8560 0.8600 0.8600 0.8710 0.8760
1690.627699 0.8730 0.8730 0.8660 0.8660 0.8650
1695.315207 0.8630 0.8569 0.8170 0.8140 0.8170
1700.002715 0.8340 0.8240 0.7980 0.7940 0.7970
1704.690222 0.8040 0.7950 0.7690 0.7500 0.7400
1709.377730 0.7270 0.7140 0.6940 0.6681 0.6371
1714.065238 0.6109 0.5790 0.5620 0.5430 0.5070
1718.752746 0.4690 0.4330 0.4011 0.3751 0.3551
1723.440254 0.3149 0.2630 0.2440 0.2280 0.2200
1728.127762 0.1950 0.1850 0.1810 0.1660 0.1630
1732.815270 0.1650 0.1720 0.1780 0.1860 0.1840
1737.502778 0.1780 0.1730 0.1690 0.1630 0.1600
1742.190286 0.1630 0.1790 0.1950 0.2040 0.2170
1746.877793 0.2500 0.2820 0.2860 0.2950 0.3229
1751.565301 0.3502 0.4271 0.4790 0.4890 0.5100
1756.252809 0.5660 0.5890 0.6110 0.6399 0.6619
1760.940317 0.6851 0.7071 0.7340 0.7620 0.7890
1765.627825 0.8140 0.8200 0.8310 0.8370 0.8430
1770.315333 0.8500 0.8550 0.8460 0.8490 0.8690
1775.002841 0.8730 0.8750 0.8810 0.8820 0.8840
1779.690349 0.8850 0.8890 0.8910 0.8920 0.8940
1784.377856 0.8950 0.8950 0.8970 0.8980 0.8980
1789.065364 0.8980 0.8980 0.8980 0.9000 0.9020
1793.752872 0.9070 0.9100 0.9100 0.9110 0.9130
1798.440380 0.9130 0.9130 0.9140 0.9150 0.9150
1803.127888 0.9170 0.9180 0.9200 0.9200 0.9210
1807.815396 0.9230 0.9230 0.9240 0.9240 0.9240
1812.502904 0.9240 0.9240 0.9260 0.9260 0.9260
1817.190412 0.9270 0.9270 0.9270 0.9270 0.9270
1821.877919 0.9270 0.9270 0.9270 0.9270 0.9270
1826.565427 0.9270 0.9270 0.9270 0.9270 0.9280
1831.252935 0.9300 0.9310 0.9310 0.9310 0.9330
1835.940443 0.9330 0.9330 0.9330 0.9330 0.9330
1840.627951 0.9330 0.9310 0.9310 0.9280 0.9260
1845.315459 0.9270 0.9280 0.9300 0.9310 0.9330
1850.002967 0.9330 0.9330 0.9330 0.9330 0.9330
1854.690475 0.9330 0.9330 0.9330 0.9330 0.9330
1859.377983 0.9330 0.9330 0.9330 0.9330 0.9330
1864.065490 0.9330 0.9330 0.9330 0.9330 0.9310
1868.752998 0.9310 0.9300 0.9280 0.9300 0.9330
1873.440506 0.9330 0.9340 0.9340 0.9340 0.9340
1878.128014 0.9340 0.9340 0.9340 0.9340 0.9340
1882.815522 0.9340 0.9360 0.9360 0.9360 0.9360
1887.503030 0.9360 0.9360 0.9360 0.9360 0.9360
1892.190538 0.9360 0.9360 0.9360 0.9360 0.9360
1896.878046 0.9360 0.9360 0.9360 0.9340 0.9340
1901.565553 0.9340 0.9340 0.9340 0.9340 0.9340
1906.253061 0.9340 0.9340 0.9340 0.9340 0.9340
1910.940569 0.9340 0.9340 0.9340 0.9340 0.9330
1915.628077 0.9330 0.9330 0.9330 0.9310 0.9310
1920.315585 0.9310 0.9310 0.9310 0.9330 0.9330
1925.003093 0.9330 0.9340 0.9340 0.9340 0.9360
1929.690601 0.9360 0.9360 0.9360 0.9360 0.9340
1934.378109 0.9340 0.9340 0.9340 0.9340 0.9340
1939.065617 0.9340 0.9360 0.9360 0.9360 0.9360
1943.753124 0.9360 0.9360 0.9360 0.9360 0.9360
1948.440632 0.9340 0.9340 0.9340 0.9360 0.9360
1953.128140 0.9360 0.9360 0.9360 0.9360 0.9360
1957.815648 0.9360 0.9360 0.9360 0.9360 0.9360
1962.503156 0.9370 0.9370 0.9370 0.9370 0.9370
1967.190664 0.9370 0.9370 0.9370 0.9370 0.9370
1971.878172 0.9370 0.9370 0.9370 0.9370 0.9370
1976.565680 0.9370 0.9370 0.9370 0.9370 0.9370
1981.253187 0.9370 0.9370 0.9370 0.9370 0.9370
1985.940695 0.9370 0.9370 0.9370 0.9370 0.9370
1990.628203 0.9370 0.9360 0.9360 0.9360 0.9360
1995.315711 0.9360 0.9360 0.9360 0.9360 0.9340
2000.003219 0.9340 0.9340 0.9340 0.9340 0.9340
2004.690727 0.9340 0.9340 0.9340 0.9340 0.9340
2009.378235 0.9340 0.9340 0.9340 0.9340 0.9340
2014.065743 0.9340 0.9340 0.9335 0.9330 0.9330
2018.753250 0.9330 0.9330 0.9330 0.9320 0.9310
2023.440758 0.9310 0.9310 0.9310 0.9310 0.9310
2028.128266 0.9310 0.9310 0.9310 0.9305 0.9300
2032.815774 0.9300 0.9300 0.9300 0.9300 0.9300
2037.503282 0.9300 0.9300 0.9300 0.9300 0.9300
2042.190790 0.9300 0.9300 0.9300 0.9300 0.9300
2046.878298 0.9300 0.9300 0.9300 0.9300 0.9300
2051.565806 0.9300 0.9300 0.9300 0.9300 0.9300
2056.253314 0.9300 0.9300 0.9300 0.9300 0.9300
2060.940821 0.9305 0.9310 0.9310 0.9310 0.9310
2065.628329 0.9310 0.9310 0.9310 0.9310 0.9310
2070.315837 0.9310 0.9310 0.9310 0.9310 0.9310
2075.003345 0.9310 0.9310 0.9310 0.9310 0.9310
2079.690853 0.9310 0.9310 0.9310 0.9310 0.9310
2084.378361 0.9310 0.9310 0.9310 0.9310 0.9310
2089.065869 0.9310 0.9310 0.9310 0.9310 0.9320
2093.753377 0.9330 0.9330 0.9330 0.9330 0.9330
2098.440884 0.9330 0.9330 0.9330 0.9330 0.9330
2103.128392 0.9330 0.9330 0.9330 0.9330 0.9330
2107.815900 0.9330 0.9330 0.9330 0.9330 0.9320
2112.503408 0.9310 0.9310 0.9310 0.9310 0.9310
2117.190916 0.9305 0.9300 0.9300 0.9300 0.9300
2121.878424 0.9300 0.9300 0.9300 0.9290 0.9280
2126.565932 0.9280 0.9280 0.9275 0.9270 0.9270
2131.253440 0.9270 0.9270 0.9270 0.9270 0.9270
2135.940948 0.9270 0.9270 0.9270 0.9270 0.9270
2140.628455 0.9270 0.9270 0.9270 0.9270 0.9270
2145.315963 0.9270 0.9270 0.9275 0.9280 0.9280
2150.003471 0.9280 0.9280 0.9280 0.9280 0.9280
2154.690979 0.9280 0.9280 0.9280 0.9280 0.9280
2159.378487 0.9281 0.9291 0.9300 0.9300 0.9300
2164.065995 0.9300 0.9300 0.9300 0.9300 0.9300
2168.753503 0.9300 0.9300 0.9300 0.9305 0.9310
2173.441011 0.9310 0.9310 0.9310 0.9310 0.9310
2178.128518 0.9310 0.9310 0.9310 0.9310 0.9310
2182.816026 0.9310 0.9311 0.9321 0.9330 0.9330
2187.503534 0.9329 0.9319 0.9310 0.9310 0.9310
2192.191042 0.9310 0.9310 0.9310 0.9310 0.9310
2196.878550 0.9310 0.9310 0.9310 0.9310 0.9311
2201.566058 0.9321 0.9330 0.9330 0.9330 0.9330
2206.253566 0.9330 0.9330 0.9330 0.9330 0.9330
2210.941074 0.9335 0.9340 0.9340 0.9340 0.9340
2215.628581 0.9340 0.9340 0.9340 0.9340 0.9340
2220.316089 0.9340 0.9340 0.9340 0.9340 0.9340
2225.003597 0.9340 0.9340 0.9340 0.9340 0.9339
2229.691105 0.9334 0.9330 0.9330 0.9330 0.9330
2234.378613 0.9330 0.9330 0.9330 0.9330 0.9330
2239.066121 0.9330 0.9330 0.9330 0.9330 0.9330
2243.753629 0.9329 0.9319 0.9310 0.9310 0.9310
2248.441137 0.9310 0.9310 0.9310 0.9310 0.9310
2253.128645 0.9310 0.9310 0.9310 0.9310 0.9310
2257.816152 0.9310 0.9310 0.9310 0.9310 0.9310
2262.503660 0.9310 0.9310 0.9310 0.9310 0.9311
2267.191168 0.9321 0.9330 0.9330 0.9330 0.9330
2271.878676 0.9331 0.9336 0.9340 0.9340 0.9340
2276.566184 0.9340 0.9341 0.9351 0.9360 0.9360
2281.253692 0.9360 0.9360 0.9360 0.9360 0.9359
2285.941200 0.9349 0.9340 0.9340 0.9340 0.9340
2290.628708 0.9340 0.9340 0.9340 0.9340 0.9340
2295.316215 0.9340 0.9340 0.9340 0.9340 0.9340
2300.003723 0.9340 0.9340 0.9340 0.9340 0.9340
2304.691231 0.9340 0.9340 0.9340 0.9340 0.9340
2309.378739 0.9340 0.9340 0.9340 0.9340 0.9340
2314.066247 0.9340 0.9340 0.9340 0.9340 0.9340
2318.753755 0.9340 0.9340 0.9340 0.9340 0.9340
2323.441263 0.9340 0.9340 0.9340 0.9340 0.9340
2328.128771 0.9340 0.9340 0.9341 0.9351 0.9360
2332.816279 0.9360 0.9360 0.9360 0.9360 0.9360
2337.503786 0.9360 0.9360 0.9360 0.9360 0.9360
2342.191294 0.9360 0.9361 0.9366 0.9370 0.9370
2346.878802 0.9370 0.9370 0.9370 0.9370 0.9370
2351.566310 0.9370 0.9370 0.9370 0.9372 0.9382
2356.253818 0.9390 0.9390 0.9390 0.9390 0.9390
2360.941326 0.9390 0.9390 0.9390 0.9390 0.9390
2365.628834 0.9388 0.9378 0.9370 0.9370 0.9370
2370.316342 0.9370 0.9372 0.9382 0.9390 0.9390
2375.003849 0.9390 0.9390 0.9391 0.9396 0.9400
2379.691357 0.9400 0.9400 0.9400 0.9400 0.9400
2384.378865 0.9400 0.9400 0.9400 0.9400 0.9400
2389.066373 0.9400 0.9400 0.9400 0.9400 0.9400
2393.753881 0.9400 0.9400 0.9400 0.9400 0.9400
2398.441389 0.9400 0.9400 0.9400 0.9400 0.9400
2403.128897 0.9400 0.9400 0.9400 0.9400 0.9400
2407.816405 0.9400 0.9400 0.9400 0.9402 0.9412
2412.503913 0.9420 0.9420 0.9420 0.9420 0.9420
2417.191420 0.9420 0.9420 0.9420 0.9420 0.9420
2421.878928 0.9420 0.9420 0.9420 0.9420 0.9420
2426.566436 0.9420 0.9420 0.9420 0.9420 0.9420
2431.253944 0.9420 0.9420 0.9420 0.9420 0.9420
2435.941452 0.9420 0.9418 0.9408 0.9400 0.9400
2440.628960 0.9400 0.9400 0.9400 0.9400 0.9400
2445.316468 0.9400 0.9400 0.9400 0.9400 0.9400
2450.003976 0.9400 0.9400 0.9400 0.9400 0.9400
2454.691483 0.9400 0.9400 0.9400 0.9400 0.9400
2459.378991 0.9400 0.9400 0.9400 0.9400 0.9400
2464.066499 0.9400 0.9400 0.9400 0.9400 0.9400
2468.754007 0.9402 0.9412 0.9420 0.9420 0.9420
2473.441515 0.9420 0.9420 0.9420 0.9420 0.9420
2478.129023 0.9420 0.9420 0.9420 0.9420 0.9420
2482.816531 0.9420 0.9421 0.9426 0.9430 0.9430
2487.504039 0.9430 0.9430 0.9430 0.9430 0.9430
2492.191546 0.9430 0.9430 0.9430 0.9430 0.9430
2496.879054 0.9430 0.9430 0.9431 0.9436 0.9440
2501.566562 0.9440 0.9440 0.9440 0.9440 0.9440
2506.254070 0.9440 0.9440 0.9440 0.9440 0.9440
2510.941578 0.9440 0.9440 0.9440 0.9440 0.9440
2515.629086 0.9440 0.9440 0.9440 0.9440 0.9440
2520.316594 0.9440 0.9440 0.9440 0.9440 0.9440
2525.004102 0.9440 0.9440 0.9439 0.9434 0.9430
2529.691610 0.9430 0.9431 0.9436 0.9440 0.9440
2534.379117 0.9440 0.9440 0.9440 0.9440 0.9440
2539.066625 0.9440 0.9440 0.9440 0.9442 0.9453
2543.754133 0.9460 0.9460 0.9460 0.9460 0.9460
2548.441641 0.9460 0.9460 0.9460 0.9460 0.9460
2553.129149 0.9460 0.9460 0.9460 0.9460 0.9460
2557.816657 0.9460 0.9460 0.9460 0.9460 0.9460
2562.504165 0.9457 0.9447 0.9440 0.9440 0.9440
2567.191673 0.9440 0.9440 0.9440 0.9439 0.9434
2571.879180 0.9430 0.9430 0.9430 0.9430 0.9430
2576.566688 0.9430 0.9430 0.9430 0.9430 0.9430
2581.254196 0.9430 0.9430 0.9430 0.9430 0.9431
2585.941704 0.9436 0.9440 0.9440 0.9440 0.9440
2590.629212 0.9440 0.9440 0.9440 0.9440 0.9440
2595.316720 0.9440 0.9440 0.9440 0.9440 0.9440
2600.004228 0.9440 0.9440 0.9440 0.9440 0.9440
2604.691736 0.9440 0.9440 0.9440 0.9440 0.9440
2609.379244 0.9440 0.9440 0.9439 0.9434 0.9430
2614.066751 0.9430 0.9430 0.9430 0.9430 0.9430
2618.754259 0.9430 0.9430 0.9430 0.9430 0.9430
2623.441767 0.9430 0.9431 0.9436 0.9440 0.9440
2628.129275 0.9440 0.9440 0.9440 0.9440 0.9440
2632.816783 0.9440 0.9443 0.9453 0.9460 0.9460
2637.504291 0.9462 0.9467 0.9470 0.9470 0.9473
2642.191799 0.9483 0.9490 0.9490 0.9490 0.9490
2646.879307 0.9490 0.9490 0.9490 0.9490 0.9490
2651.566814 0.9490 0.9490 0.9490 0.9490 0.9490
2656.254322 0.9490 0.9490 0.9487 0.9477 0.9470
2660.941830 0.9470 0.9470 0.9470 0.9470 0.9470
2665.629338 0.9470 0.9470 0.9470 0.9470 0.9470
2670.316846 0.9470 0.9468 0.9463 0.9460 0.9460
2675.004354 0.9460 0.9460 0.9457 0.9447 0.9440
2679.691862 0.9440 0.9440 0.9440 0.9438 0.9433
2684.379370 0.9430 0.9430 0.9430 0.9430 0.9430
2689.066877 0.9430 0.9430 0.9430 0.9430 0.9430
2693.754385 0.9430 0.9430 0.9430 0.9430 0.9430
2698.441893 0.9430 0.9430 0.9430 0.9430 0.9430
2703.129401 0.9430 0.9430 0.9430 0.9430 0.9430
2707.816909 0.9430 0.9428 0.9423 0.9420 0.9420
2712.504417 0.9420 0.9420 0.9420 0.9420 0.9420
2717.191925 0.9420 0.9420 0.9420 0.9417 0.9407
2721.879433 0.9400 0.9400 0.9400 0.9400 0.9398
2726.566941 0.9393 0.9390 0.9390 0.9390 0.9390
2731.254448 0.9386 0.9376 0.9370 0.9370 0.9370
2735.941956 0.9370 0.9370 0.9370 0.9370 0.9370
2740.629464 0.9368 0.9363 0.9360 0.9360 0.9360
2745.316972 0.9360 0.9360 0.9360 0.9360 0.9360
2750.004480 0.9360 0.9360 0.9360 0.9360 0.9360
2754.691988 0.9360 0.9362 0.9367 0.9370 0.9370
2759.379496 0.9370 0.9370 0.9374 0.9384 0.9390
2764.067004 0.9390 0.9390 0.9390 0.9390 0.9390
2768.754511 0.9390 0.9390 0.9390 0.9390 0.9390
2773.442019 0.9390 0.9386 0.9376 0.9370 0.9370
2778.129527 0.9370 0.9370 0.9370 0.9370 0.9368
2782.817035 0.9363 0.9360 0.9360 0.9356 0.9346
2787.504543 0.9340 0.9340 0.9338 0.9333 0.9330
2792.192051 0.9330 0.9326 0.9316 0.9308 0.9303
2796.879559 0.9294 0.9279 0.9264 0.9249 0.9238
2801.567067 0.9233 0.9226 0.9216 0.9208 0.9203
2806.254575 0.9196 0.9186 0.9174 0.9159 0.9148
2810.942082 0.9143 0.9138 0.9133 0.9126 0.9116
2815.629590 0.9108 0.9103 0.9096 0.9086 0.9078
2820.317098 0.9073 0.9070 0.9070 0.9066 0.9056
2825.004606 0.9050 0.9050 0.9048 0.9043 0.9040
2829.692114 0.9040 0.9034 0.9019 0.9008 0.9003
2834.379622 0.8996 0.8986 0.8978 0.8973 0.8966
2839.067130 0.8956 0.8948 0.8943 0.8936 0.8926
2843.754638 0.8920 0.8920 0.8918 0.8913 0.8910
2848.442145 0.8910 0.8910 0.8910 0.8906 0.8896
2853.129653 0.8888 0.8883 0.8876 0.8866 0.8846
2857.817161 0.8811 0.8776 0.8741 0.8714 0.8699
2862.504669 0.8675 0.8640 0.8583 0.8493 0.8411
2867.192177 0.8341 0.8286 0.8251 0.8209 0.8160
2871.879685 0.8081 0.7961 0.7831 0.7686 0.7547
2876.567193 0.7417 0.7320 0.7270 0.7162 0.6970
2881.254701 0.6769 0.6554 0.6350 0.6160 0.6014
2885.942208 0.5929 0.5861 0.5816 0.5775 0.5740
2890.629716 0.5684 0.5600 0.5531 0.5486 0.5441
2895.317224 0.5396 0.5370 0.5370 0.5416 0.5527
2900.004732 0.5599 0.5619 0.5636 0.5651 0.5673
2904.692240 0.5703 0.5733 0.5763 0.5793 0.5823
2909.379748 0.5851 0.5876 0.5903 0.5933 0.5954
2914.067256 0.5964 0.5972 0.5977 0.5984 0.5994
2918.754764 0.6000 0.6000 0.5996 0.5986 0.5978
2923.442272 0.5973 0.5966 0.5956 0.5930 0.5885
2928.129779 0.5851 0.5831 0.5800 0.5755 0.5702
2932.817287 0.5637 0.5589 0.5564 0.5533 0.5492
2937.504795 0.5463 0.5448 0.5415 0.5360 0.5267
2942.192303 0.5127 0.5005 0.4905 0.4843 0.4828
2946.879811 0.4820 0.4820 0.4811 0.4791 0.4767
2951.567319 0.4737 0.4687 0.4612 0.4546 0.4490
2956.254827 0.4439 0.4394 0.4349 0.4304 0.4264
2960.942335 0.4229 0.4185 0.4130 0.4066 0.3991
2965.629842 0.3918 0.3848 0.3792 0.3752 0.3646
2970.317350 0.3462 0.3245 0.2990 0.2811 0.2726
2975.004858 0.2720 0.2805 0.2859 0.2879 0.2904
2979.692366 0.2934 0.2962 0.2987 0.3026 0.3080
2984.379874 0.3133 0.3183 0.3254 0.3349 0.3444
2989.067382 0.3539 0.3693 0.3918 0.4121 0.4298
2993.754890 0.4662 0.5232 0.5578 0.5678 0.5811
2998.442398 0.5981 0.6153 0.6328 0.6500 0.6670
3003.129906 0.6847 0.7032 0.7222 0.7417 0.7588
3007.817413 0.7733 0.7812 0.7817 0.7827 0.7842
3012.504921 0.7867 0.7902 0.7927 0.7942 0.7955
3017.192429 0.7965 0.7972 0.7977 0.7990 0.8010
3021.879937 0.8032 0.8057 0.8096 0.8151 0.8199
3026.567445 0.8239 0.8279 0.8319 0.8364 0.8415
3031.254953 0.8470 0.8530 0.8590 0.8650 0.8700
3035.942461 0.8740 0.8782 0.8827 0.8865 0.8895
3040.629969 0.8917 0.8932 0.8940 0.8940 0.8947
3045.317476 0.8962 0.8972 0.8977 0.8987 0.9003
3050.004984 0.9013 0.9018 0.9028 0.9043 0.9058
3054.692492 0.9073 0.9080 0.9080 0.9088 0.9103
3059.380000 0.9115 0.9125 0.9132 0.9137 0.9147
3064.067508 0.9162 0.9172 0.9177 0.9185 0.9195
3068.755016 0.9203 0.9208 0.9215 0.9225 0.9233
3073.442524 0.9238 0.9245 0.9255 0.9263 0.9268
3078.130032 0.9273 0.9278 0.9285 0.9295 0.9303
3082.817539 0.9308 0.9318 0.9333 0.9340 0.9340
3087.505047 0.9345 0.9355 0.9360 0.9360 0.9363
3092.192555 0.9368 0.9370 0.9370 0.9375 0.9385
3096.880063 0.9390 0.9390 0.9393 0.9398 0.9400
3101.567571 0.9400 0.9405 0.9415 0.9423 0.9428
3106.255079 0.9433 0.9438 0.9440 0.9440 0.9445
3110.942587 0.9455 0.9463 0.9468 0.9475 0.9485
3115.630095 0.9493 0.9498 0.9500 0.9500 0.9500
3120.317603 0.9500 0.9505 0.9515 0.9523 0.9528
3125.005110 0.9530 0.9530 0.9530 0.9530 0.9530
3129.692618 0.9530 0.9530 0.9530 0.9530 0.9530
3134.380126 0.9530 0.9530 0.9527 0.9522 0.9520
3139.067634 0.9520 0.9515 0.9505 0.9500 0.9500
3143.755142 0.9497 0.9492 0.9490 0.9490 0.9490
3148.442650 0.9490 0.9490 0.9490 0.9490 0.9490
3153.130158 0.9490 0.9490 0.9490 0.9490 0.9490
3157.817666 0.9490 0.9490 0.9490 0.9490 0.9490
3162.505173 0.9493 0.9498 0.9500 0.9500 0.9500
3167.192681 0.9500 0.9500 0.9500 0.9500 0.9500
3171.880189 0.9506 0.9516 0.9520 0.9520 0.9520
3176.567697 0.9520 0.9523 0.9528 0.9530 0.9530
3181.255205 0.9530 0.9530 0.9536 0.9546 0.9553
3185.942713 0.9558 0.9560 0.9560 0.9560 0.9560
3190.630221 0.9560 0.9560 0.9560 0.9560 0.9560
3195.317729 0.9560 0.9563 0.9568 0.9570 0.9570
3200.005237 0.9570 0.9570 0.9570 0.9570 0.9570
3204.692744 0.9570 0.9570 0.9570 0.9570 0.9570
3209.380252 0.9576 0.9586 0.9590 0.9590 0.9593
3214.067760 0.9598 0.9600 0.9600 0.9600 0.9600
3218.755268 0.9606 0.9616 0.9620 0.9620 0.9620
3223.442776 0.9620 0.9620 0.9620 0.9620 0.9620
3228.130284 0.9620 0.9620 0.9623 0.9628 0.9630
3232.817792 0.9630 0.9630 0.9630 0.9630 0.9630
3237.505300 0.9630 0.9630 0.9630 0.9630 0.9630
3242.192807 0.9630 0.9630 0.9630 0.9630 0.9630
3246.880315 0.9630 0.9630 0.9630 0.9630 0.9630
3251.567823 0.9630 0.9630 0.9630 0.9630 0.9630
3256.255331 0.9630 0.9630 0.9630 0.9630 0.9627
3260.942839 0.9622 0.9620 0.9620 0.9620 0.9620
3265.630347 0.9620 0.9620 0.9620 0.9620 0.9620
3270.317855 0.9620 0.9620 0.9620 0.9620 0.9620
3275.005363 0.9620 0.9620 0.9620 0.9620 0.9620
3279.692870 0.9620 0.9623 0.9628 0.9630 0.9630
3284.380378 0.9630 0.9630 0.9630 0.9630 0.9636
3289.067886 0.9646 0.9650 0.9650 0.9650 0.9650
3293.755394 0.9650 0.9650 0.9650 0.9650 0.9650
3298.442902 0.9650 0.9650 0.9650 0.9650 0.9650
3303.130410 0.9650 0.9650 0.9650 0.9650 0.9650
3307.817918 0.9650 0.9650 0.9650 0.9650 0.9650
3312.505426 0.9650 0.9650 0.9650 0.9650 0.9650
3317.192934 0.9650 0.9650 0.9650 0.9650 0.9650
3321.880441 0.9653 0.9658 0.9660 0.9660 0.9660
3326.567949 0.9660 0.9660 0.9660 0.9660 0.9660
3331.255457 0.9660 0.9660 0.9660 0.9660 0.9660
3335.942965 0.9660 0.9660 0.9660 0.9660 0.9660
3340.630473 0.9660 0.9660 0.9660 0.9660 0.9660
3345.317981 0.9660 0.9660 0.9660 0.9660 0.9660
3350.005489 0.9660 0.9660 0.9660 0.9660 0.9660
3354.692997 0.9660 0.9660 0.9660 0.9660 0.9660
3359.380504 0.9660 0.9660 0.9657 0.9652 0.9650
3364.068012 0.9650 0.9644 0.9634 0.9630 0.9630
3368.755520 0.9630 0.9630 0.9627 0.9622 0.9620
3373.443028 0.9620 0.9623 0.9628 0.9630 0.9630
3378.130536 0.9627 0.9622 0.9620 0.9620 0.9620
3382.818044 0.9620 0.9620 0.9620 0.9620 0.9620
3387.505552 0.9613 0.9603 0.9607 0.9617 0.9620
3392.193060 0.9620 0.9620 0.9620 0.9620 0.9620
3396.880568 0.9620 0.9620 0.9623 0.9628 0.9630
3401.568075 0.9630 0.9630 0.9630 0.9630 0.9630
3406.255583 0.9630 0.9630 0.9630 0.9630 0.9630
3410.943091 0.9630 0.9627 0.9622 0.9620 0.9620
3415.630599 0.9610 0.9595 0.9590 0.9590 0.9590
3420.318107 0.9590 0.9583 0.9573 0.9570 0.9570
3425.005615 0.9567 0.9562 0.9560 0.9560 0.9560
3429.693123 0.9560 0.9560 0.9560 0.9560 0.9560
3434.380631 0.9557 0.9552 0.9530 0.9500 0.9483
3439.068138 0.9473 0.9457 0.9437 0.9427 0.9422
3443.755646 0.9410 0.9395 0.9390 0.9390 0.9383
3448.443154 0.9373 0.9370 0.9370 0.9370 0.9370
3453.130662 0.9370 0.9370 0.9377 0.9387 0.9390
3457.818170 0.9390 0.9390 0.9390 0.9390 0.9390
3462.505678 0.9401 0.9416 0.9420 0.9420 0.9427
3467.193186 0.9437 0.9450 0.9465 0.9480 0.9495
3471.880694 0.9507 0.9517 0.9530 0.9545 0.9553
3476.568202 0.9558 0.9560 0.9560 0.9570 0.9586
3481.255709 0.9601 0.9616 0.9620 0.9620 0.9624
3485.943217 0.9629 0.9630 0.9630 0.9637 0.9647
3490.630725 0.9650 0.9650 0.9654 0.9659 0.9660
3495.318233 0.9660 0.9660 0.9660 0.9660 0.9660
3500.005741 0.9660 0.9660 0.9660 0.9660 0.9660
3504.693249 0.9660 0.9660 0.9660 0.9660 0.9660
3509.380757 0.9660 0.9660 0.9660 0.9660 0.9660
3514.068265 0.9660 0.9660 0.9660 0.9656 0.9651
3518.755772 0.9650 0.9650 0.9650 0.9650 0.9643
3523.443280 0.9633 0.9630 0.9630 0.9630 0.9630
3528.130788 0.9630 0.9630 0.9630 0.9630 0.9641
3532.818296 0.9656 0.9667 0.9677 0.9680 0.9680
3537.505804 0.9680 0.9680 0.9680 0.9680 0.9680
3542.193312 0.9680 0.9680 0.9680 0.9680 0.9680
3546.880820 0.9680 0.9680 0.9680 0.9680 0.9684
3551.568328 0.9689 0.9686 0.9681 0.9680 0.9680
3556.255835 0.9680 0.9680 0.9680 0.9680 0.9673
3560.943343 0.9663 0.9656 0.9651 0.9650 0.9650
3565.630851 0.9650 0.9650 0.9650 0.9650 0.9650
3570.318359 0.9650 0.9665 0.9685 0.9690 0.9690
3575.005867 0.9679 0.9664 0.9668 0.9678 0.9680
3579.693375 0.9680 0.9672 0.9662 0.9656 0.9651
3584.380883 0.9650 0.9650 0.9650 0.9650 0.9650
3589.068391 0.9650 0.9654 0.9659 0.9668 0.9678
3593.755899 0.9680 0.9680 0.9680 0.9680 0.9680
3598.443406 0.9680 0.9680 0.9680 0.9672 0.9662
3603.130914 0.9656 0.9651 0.9650 0.9650 0.9642
3607.818422 0.9632 0.9626 0.9621 0.9620 0.9620
3612.505930 0.9620 0.9620 0.9620 0.9620 0.9620
3617.193438 0.9620 0.9624 0.9629 0.9630 0.9630
3621.880946 0.9599 0.9559 0.9554 0.9559 0.9594
3626.568454 0.9639 0.9650 0.9650 0.9627 0.9597
3631.255962 0.9567 0.9537 0.9526 0.9521 0.9532
3635.943469 0.9547 0.9593 0.9648 0.9668 0.9678
3640.630977 0.9672 0.9662 0.9656 0.9651 0.9642
3645.318485 0.9632 0.9630 0.9630 0.9599 0.9558
3650.005993 0.9542 0.9532 0.9538 0.9548 0.9558
3654.693501 0.9568 0.9578 0.9588 0.9602 0.9617
3659.381009 0.9636 0.9656 0.9668 0.9678 0.9672
3664.068517 0.9662 0.9656 0.9651 0.9642 0.9632
3668.756025 0.9626 0.9621 0.9608 0.9593 0.9578
3673.443533 0.9563 0.9556 0.9551 0.9542 0.9532
3678.131040 0.9538 0.9548 0.9558 0.9568 0.9594
3682.818548 0.9624 0.9638 0.9648 0.9638 0.9623
3687.506056 0.9612 0.9602 0.9600 0.9600 0.9588
3692.193564 0.9573 0.9578 0.9588 0.9594 0.9599
3696.881072 0.9608 0.9618 0.9624 0.9629 0.9638
3701.568580 0.9648 0.9642 0.9632 0.9630 0.9630
3706.256088 0.9630 0.9630 0.9626 0.9621 0.9608
3710.943596 0.9593 0.9590 0.9590 0.9578 0.9563
3715.631103 0.9564 0.9569 0.9594 0.9624 0.9638
3720.318611 0.9648 0.9650 0.9650 0.9650 0.9650
3725.006119 0.9650 0.9650 0.9650 0.9650 0.9642
3729.693627 0.9632 0.9626 0.9621 0.9608 0.9593
3734.381135 0.9578 0.9563 0.9556 0.9551 0.9554
3739.068643 0.9559 0.9572 0.9587 0.9602 0.9618
3743.756151 0.9612 0.9602 0.9596 0.9591 0.9573
3748.443659 0.9553 0.9542 0.9532 0.9530 0.9530
3753.131166 0.9530 0.9530 0.9530 0.9530 0.9547
3757.818674 0.9567 0.9595 0.9625 0.9643 0.9658
3762.506182 0.9668 0.9678 0.9680 0.9680 0.9680
3767.193690 0.9680 0.9680 0.9680 0.9680 0.9680
3771.881198 0.9680 0.9680 0.9680 0.9680 0.9680
3776.568706 0.9680 0.9680 0.9680
##END=
