##TITLE=Ether, methyl vinyl
##JCAMP-DX=4.24
##DATA TYPE=INFRARED SPECTRUM
##CLASS=COBLENTZ
##ORIGIN=DOW CHEMICAL COMPANY
##OWNER=Copyright (C) 1987 by the Coblentz Society
Collection (C) 2018 copyright by the U.S. Secretary of Commerce
on behalf of the United States of America. All rights reserved.
##DATE=1964
##NAMES=methyl vinyl ether
1-methoxyethylene
ETHENE, METHOXY
##CAS REGISTRY NO=107-25-5
##MOLFORM=C3 H6 O
##SOURCE REFERENCE=COBLENTZ NO. 8803
##$NIST SOURCE=COBLENTZ
##$NIST IMAGE=cob8803
##SPECTROMETER/DATA SYSTEM=DOW KBr FOREPRISM-GRATING
##INSTRUMENT PARAMETERS=GRATING CHANGED AT 5.0, 7.5, 15.0 MICRON
##STATE=GAS (100 mmHg, N2 ADDED, TOTAL PRESSURE 600 mmHg)
##PATH LENGTH=5 CM
##SAMPLING PROCEDURE=TRANSMISSION
##RESOLUTION=2
##DATA PROCESSING=DIGITIZED BY COBLENTZ SOCIETY (BATCH II) FROM HARD COPY
##XUNITS=1/CM
##YUNITS=TRANSMITTANCE
##XFACTOR=1.0
##YFACTOR=1
##FIRSTX=461
##LASTX=3794
##FIRSTY=0.8353
##MAXX=3794
##MINX=461
##MAXY=0.8854
##MINY=0.0044
##NPOINTS=3334
##XYDATA=(X++(Y..Y))
461.000000 0.8353 0.8363 0.8373 0.8383 0.8387
466.000000 0.8392 0.8396 0.8400 0.8405 0.8409
471.000000 0.8413 0.8415 0.8416 0.8417 0.8418
476.000000 0.8419 0.8420 0.8422 0.8423 0.8424
481.000000 0.8425 0.8426 0.8427 0.8428 0.8429
486.000000 0.8430 0.8431 0.8431 0.8430 0.8430
491.000000 0.8430 0.8430 0.8430 0.8430 0.8429
496.000000 0.8429 0.8429 0.8429 0.8429 0.8429
501.000000 0.8429 0.8428 0.8428 0.8428 0.8428
506.000000 0.8427 0.8426 0.8425 0.8424 0.8423
511.000000 0.8422 0.8422 0.8421 0.8420 0.8419
516.000000 0.8418 0.8405 0.8416 0.8415 0.8414
521.000000 0.8412 0.8411 0.8410 0.8409 0.8407
526.000000 0.8406 0.8405 0.8403 0.8402 0.8401
531.000000 0.8400 0.8397 0.8393 0.8388 0.8384
536.000000 0.8379 0.8374 0.8370 0.8365 0.8361
541.000000 0.8356 0.8351 0.8347 0.8342 0.8337
546.000000 0.8333 0.8329 0.8325 0.8321 0.8317
551.000000 0.8313 0.8309 0.8305 0.8301 0.8297
556.000000 0.8294 0.8286 0.8276 0.8265 0.8255
561.000000 0.8244 0.8234 0.8223 0.8210 0.8187
566.000000 0.8164 0.8142 0.8119 0.8096 0.8073
571.000000 0.8049 0.8014 0.7979 0.7944 0.7909
576.000000 0.7874 0.7839 0.7803 0.7787 0.7802
581.000000 0.7782 0.7793 0.7805 0.7817 0.7846
586.000000 0.7890 0.7945 0.7994 0.8015 0.8019
591.000000 0.8007 0.7998 0.7973 0.7932 0.7886
596.000000 0.7832 0.7785 0.7757 0.7792 0.7757
601.000000 0.7765 0.7774 0.7784 0.7812 0.7861
606.000000 0.7958 0.8062 0.8157 0.8238 0.8275
611.000000 0.8312 0.8349 0.8386 0.8417 0.8444
616.000000 0.8471 0.8497 0.8513 0.8528 0.8543
621.000000 0.8557 0.8572 0.8582 0.8592 0.8601
626.000000 0.8611 0.8620 0.8629 0.8635 0.8640
631.000000 0.8644 0.8648 0.8652 0.8668 0.8653
636.000000 0.8651 0.8648 0.8646 0.8642 0.8638
641.000000 0.8634 0.8630 0.8625 0.8621 0.8617
646.000000 0.8613 0.8608 0.8603 0.8596 0.8588
651.000000 0.8581 0.8574 0.8567 0.8560 0.8553
656.000000 0.8546 0.8537 0.8527 0.8516 0.8506
661.000000 0.8496 0.8486 0.8476 0.8466 0.8455
666.000000 0.8445 0.8435 0.8425 0.8415 0.8403
671.000000 0.8391 0.8379 0.8358 0.8335 0.8312
676.000000 0.8289 0.8266 0.8243 0.8216 0.8178
681.000000 0.8141 0.8103 0.8066 0.8028 0.7993
686.000000 0.7964 0.7934 0.7905 0.7876 0.7846
691.000000 0.7809 0.7771 0.7733 0.7695 0.7663
696.000000 0.7638 0.7623 0.7722 0.7801 0.7844
701.000000 0.7615 0.7151 0.7068 0.7082 0.7474
706.000000 0.7761 0.8024 0.8060 0.8091 0.8112
711.000000 0.8126 0.8134 0.8142 0.8150 0.8158
716.000000 0.8167 0.8175 0.8192 0.8212 0.8242
721.000000 0.8276 0.8309 0.8334 0.8359 0.8375
726.000000 0.8382 0.8379 0.8371 0.7910 0.7102
731.000000 0.6293 0.5916 0.6563 0.7424 0.8285
736.000000 0.8448 0.8465 0.8474 0.8481 0.8473
741.000000 0.8492 0.8490 0.8489 0.8483 0.8476
746.000000 0.8468 0.8461 0.8445 0.8429 0.8409
751.000000 0.8388 0.8368 0.8347 0.8320 0.8286
756.000000 0.8253 0.8213 0.8165 0.8116 0.8068
761.000000 0.8007 0.7929 0.7851 0.7773 0.7694
766.000000 0.7616 0.7536 0.7441 0.7347 0.7252
771.000000 0.7153 0.7054 0.6954 0.6808 0.6596
776.000000 0.6385 0.6173 0.5961 0.5749 0.5538
781.000000 0.5326 0.5114 0.4903 0.4691 0.4479
786.000000 0.4268 0.4056 0.3844 0.3644 0.3519
791.000000 0.3365 0.3256 0.3154 0.2988 0.2798
796.000000 0.2680 0.2606 0.2532 0.2458 0.2413
801.000000 0.2371 0.2329 0.2287 0.2245 0.2203
806.000000 0.2157 0.2111 0.2064 0.1899 0.1620
811.000000 0.1341 0.1062 0.0783 0.0671 0.0684
816.000000 0.0797 0.0990 0.1182 0.1355 0.1426
821.000000 0.1471 0.1516 0.1586 0.1660 0.1722
826.000000 0.1765 0.1807 0.1850 0.1892 0.1935
831.000000 0.1978 0.2021 0.2064 0.2114 0.2164
836.000000 0.2215 0.2266 0.2319 0.2403 0.2487
841.000000 0.2571 0.2656 0.2741 0.2827 0.2912
846.000000 0.3138 0.3357 0.3550 0.3729 0.3872
851.000000 0.4014 0.4133 0.4235 0.4302 0.4352
856.000000 0.4367 0.4407 0.4384 0.4384 0.4366
861.000000 0.4321 0.4228 0.4092 0.3956 0.3820
866.000000 0.3684 0.3548 0.3412 0.3276 0.3140
871.000000 0.3004 0.2868 0.2732 0.2621 0.2557
876.000000 0.2496 0.2371 0.2315 0.2247 0.2286
881.000000 0.2300 0.2321 0.2354 0.2407 0.2462
886.000000 0.2534 0.2585 0.2617 0.2632 0.2628
891.000000 0.2646 0.2573 0.2509 0.2441 0.2372
896.000000 0.2298 0.2220 0.2192 0.2166 0.2167
901.000000 0.2147 0.2189 0.2217 0.2254 0.2342
906.000000 0.2455 0.2831 0.3077 0.3323 0.3569
911.000000 0.3870 0.4202 0.4301 0.4401 0.4514
916.000000 0.4643 0.4772 0.4922 0.5093 0.5234
921.000000 0.5318 0.5395 0.5432 0.5468 0.5495
926.000000 0.5507 0.5517 0.5544 0.5517 0.5493
931.000000 0.5462 0.5407 0.5349 0.5272 0.5185
936.000000 0.5098 0.5023 0.4948 0.4899 0.4884
941.000000 0.4884 0.4890 0.4899 0.4913 0.4927
946.000000 0.4925 0.4924 0.4921 0.4910 0.4892
951.000000 0.4868 0.4845 0.4820 0.4775 0.4729
956.000000 0.4669 0.4609 0.4494 0.4175 0.3568
961.000000 0.2961 0.2353 0.1746 0.1227 0.1207
966.000000 0.2657 0.4584 0.4642 0.4592 0.4477
971.000000 0.4362 0.4246 0.4184 0.4148 0.4112
976.000000 0.4076 0.4046 0.4018 0.3989 0.3960
981.000000 0.3932 0.3881 0.3830 0.3776 0.3701
986.000000 0.3627 0.3487 0.3335 0.3182 0.3030
991.000000 0.2878 0.2725 0.2573 0.2421 0.2268
996.000000 0.2147 0.2068 0.2011 0.1981 0.1969
1001.000000 0.1967 0.1998 0.2007 0.2065 0.2210
1006.000000 0.2354 0.2499 0.2643 0.2787 0.2827
1011.000000 0.2645 0.2189 0.1794 0.1970 0.1790
1016.000000 0.3125 0.2954 0.2688 0.2422 0.2155
1021.000000 0.1889 0.1702 0.1760 0.1797 0.1901
1026.000000 0.2038 0.2179 0.2290 0.2341 0.2293
1031.000000 0.2174 0.2055 0.2002 0.4392 0.4720
1036.000000 0.4910 0.4969 0.5028 0.5063 0.5069
1041.000000 0.5075 0.5075 0.5062 0.5038 0.5015
1046.000000 0.4989 0.4963 0.4929 0.4902 0.4890
1051.000000 0.4890 0.4893 0.4898 0.4906 0.4922
1056.000000 0.4956 0.5010 0.5076 0.5169 0.5277
1061.000000 0.5388 0.5502 0.5614 0.5724 0.5803
1066.000000 0.5874 0.5929 0.5975 0.6022 0.6052
1071.000000 0.6080 0.6108 0.6132 0.6156 0.6179
1076.000000 0.6202 0.6221 0.6239 0.6258 0.6277
1081.000000 0.6295 0.6312 0.6328 0.6345 0.6359
1086.000000 0.6361 0.6364 0.6364 0.6358 0.6352
1091.000000 0.6325 0.6290 0.6259 0.6237 0.6226
1096.000000 0.6215 0.6214 0.6237 0.6313 0.6384
1101.000000 0.6482 0.6623 0.6730 0.6806 0.6868
1106.000000 0.6888 0.6907 0.6909 0.6920 0.6904
1111.000000 0.6879 0.6728 0.6520 0.6312 0.6104
1116.000000 0.5897 0.5689 0.5481 0.5273 0.5065
1121.000000 0.4858 0.4650 0.4448 0.4298 0.4182
1126.000000 0.4053 0.3951 0.3897 0.3893 0.3903
1131.000000 0.3927 0.3977 0.4028 0.4078 0.4191
1136.000000 0.4337 0.4489 0.4588 0.4594 0.4609
1141.000000 0.3916 0.3572 0.3420 0.3320 0.3278
1146.000000 0.3268 0.3287 0.3307 0.3459 0.3866
1151.000000 0.4273 0.4681 0.5088 0.5392 0.5610
1156.000000 0.5699 0.5787 0.6014 0.6170 0.6368
1161.000000 0.6563 0.6588 0.6590 0.6583 0.6573
1166.000000 0.6512 0.6446 0.6336 0.6226 0.6116
1171.000000 0.6006 0.5896 0.5786 0.5676 0.5566
1176.000000 0.5456 0.5346 0.5236 0.5126 0.5016
1181.000000 0.4906 0.4796 0.4686 0.4573 0.4483
1186.000000 0.4387 0.4287 0.4168 0.4029 0.3752
1191.000000 0.3309 0.3021 0.2733 0.2445 0.2157
1196.000000 0.1869 0.1597 0.1233 0.0683 0.0479
1201.000000 0.0322 0.0218 0.0136 0.0105 0.0078
1206.000000 0.0069 0.0061 0.0054 0.0054 0.0054
1211.000000 0.0054 0.0057 0.0061 0.0062 0.0070
1216.000000 0.0075 0.0080 0.0085 0.0090 0.0095
1221.000000 0.0102 0.0108 0.0115 0.0116 0.0116
1226.000000 0.0103 0.0084 0.0062 0.0044 0.0047
1231.000000 0.0052 0.0060 0.0071 0.0083 0.0098
1236.000000 0.0116 0.0150 0.0185 0.0246 0.0319
1241.000000 0.0411 0.0590 0.0714 0.0996 0.1339
1246.000000 0.1593 0.1838 0.2160 0.2541 0.2922
1251.000000 0.3303 0.3685 0.4066 0.4447 0.4828
1256.000000 0.5209 0.5634 0.5783 0.5970 0.6218
1261.000000 0.6465 0.6712 0.7010 0.7187 0.7319
1266.000000 0.7435 0.7514 0.7592 0.7671 0.7721
1271.000000 0.7762 0.7803 0.7841 0.7863 0.7885
1276.000000 0.7906 0.7928 0.7942 0.7953 0.7963
1281.000000 0.7974 0.7982 0.7955 0.7982 0.7982
1286.000000 0.7972 0.7961 0.7939 0.7898 0.7825
1291.000000 0.7742 0.7627 0.7506 0.7401 0.7295
1296.000000 0.7188 0.7081 0.6901 0.6500 0.6071
1301.000000 0.5642 0.5213 0.4784 0.4355 0.3926
1306.000000 0.3497 0.2554 0.1936 0.1844 0.1755
1311.000000 0.1692 0.1705 0.1719 0.1797 0.1984
1316.000000 0.2169 0.2355 0.2541 0.2725 0.2708
1321.000000 0.2358 0.1878 0.1434 0.1441 0.1457
1326.000000 0.2290 0.2894 0.3298 0.3244 0.3325
1331.000000 0.2711 0.2444 0.2178 0.1911 0.1736
1336.000000 0.1732 0.1747 0.1780 0.1992 0.2543
1341.000000 0.2868 0.3191 0.3514 0.3836 0.4159
1346.000000 0.4482 0.4804 0.5127 0.5449 0.5874
1351.000000 0.6207 0.6441 0.6774 0.7311 0.7482
1356.000000 0.7624 0.7689 0.7753 0.7796 0.7829
1361.000000 0.7842 0.7879 0.7843 0.7841 0.7829
1366.000000 0.7810 0.7783 0.7725 0.7650 0.7576
1371.000000 0.7502 0.7420 0.7334 0.7261 0.7195
1376.000000 0.7130 0.7068 0.7010 0.6952 0.6899
1381.000000 0.6849 0.6808 0.6784 0.6786 0.6775
1386.000000 0.6792 0.6820 0.6839 0.6852 0.6898
1391.000000 0.6846 0.6825 0.6790 0.6755 0.6780
1396.000000 0.6798 0.6821 0.6841 0.6852 0.6863
1401.000000 0.6876 0.6894 0.6916 0.6939 0.6966
1406.000000 0.6994 0.7028 0.7065 0.7105 0.7150
1411.000000 0.7199 0.7262 0.7314 0.7344 0.7367
1416.000000 0.7376 0.7385 0.7388 0.7391 0.7386
1421.000000 0.7379 0.7363 0.7341 0.7303 0.7253
1426.000000 0.7183 0.7101 0.7010 0.6884 0.6792
1431.000000 0.6709 0.6623 0.6537 0.6411 0.6291
1436.000000 0.6196 0.6101 0.6018 0.5937 0.5830
1441.000000 0.5586 0.5439 0.5301 0.5205 0.5109
1446.000000 0.5006 0.4898 0.4784 0.4497 0.4019
1451.000000 0.3311 0.2936 0.2610 0.2479 0.2379
1456.000000 0.2313 0.2248 0.2172 0.2124 0.2116
1461.000000 0.2128 0.2118 0.2350 0.2508 0.2666
1466.000000 0.2824 0.2982 0.3140 0.3298 0.3456
1471.000000 0.3596 0.3599 0.3600 0.3668 0.3907
1476.000000 0.4147 0.4386 0.4478 0.4484 0.4491
1481.000000 0.4498 0.4508 0.4541 0.4618 0.4787
1486.000000 0.4907 0.5029 0.5156 0.5301 0.5616
1491.000000 0.5971 0.6200 0.6285 0.6360 0.6418
1496.000000 0.6475 0.6510 0.6540 0.6568 0.6589
1501.000000 0.6611 0.6631 0.6652 0.6672 0.6701
1506.000000 0.6734 0.6770 0.6819 0.6856 0.6901
1511.000000 0.6892 0.6890 0.6873 0.6859 0.6791
1516.000000 0.6700 0.6610 0.6623 0.6694 0.6798
1521.000000 0.6868 0.6886 0.6806 0.6803 0.6802
1526.000000 0.6805 0.6809 0.6872 0.6977 0.7082
1531.000000 0.7247 0.7344 0.7426 0.7494 0.7559
1536.000000 0.7623 0.7675 0.7728 0.7780 0.7816
1541.000000 0.7851 0.7887 0.7921 0.7953 0.7984
1546.000000 0.8010 0.8024 0.8038 0.8052 0.8060
1551.000000 0.8060 0.8048 0.8059 0.8056 0.8052
1556.000000 0.8044 0.8036 0.8027 0.8014 0.8002
1561.000000 0.7989 0.7973 0.7958 0.7922 0.7883
1566.000000 0.7833 0.7764 0.7678 0.7592 0.7509
1571.000000 0.7427 0.7345 0.7262 0.7164 0.7066
1576.000000 0.6968 0.6861 0.6736 0.6611 0.6471
1581.000000 0.6331 0.5501 0.5048 0.4911 0.4806
1586.000000 0.4701 0.4318 0.3924 0.3529 0.3135
1591.000000 0.2740 0.1113 0.0913 0.0734 0.0619
1596.000000 0.0504 0.0422 0.0342 0.0268 0.0208
1601.000000 0.0155 0.0132 0.0128 0.0127 0.0128
1606.000000 0.0137 0.0144 0.0157 0.0169 0.0182
1611.000000 0.0194 0.0207 0.0221 0.0234 0.0248
1616.000000 0.0259 0.0257 0.0256 0.0247 0.0230
1621.000000 0.0187 0.0108 0.0051 0.0055 0.0060
1626.000000 0.0064 0.0071 0.0085 0.0102 0.0120
1631.000000 0.0144 0.0168 0.0208 0.0248 0.0286
1636.000000 0.0319 0.0348 0.0376 0.0400 0.0421
1641.000000 0.0437 0.0451 0.0459 0.0467 0.0475
1646.000000 0.0483 0.0488 0.0494 0.0500 0.0500
1651.000000 0.0499 0.0498 0.0497 0.0496 0.0477
1656.000000 0.0457 0.0432 0.0409 0.0402 0.0401
1661.000000 0.0763 0.1192 0.1460 0.1417 0.1351
1666.000000 0.1284 0.1217 0.1150 0.1145 0.1156
1671.000000 0.1194 0.1433 0.1524 0.2030 0.2235
1676.000000 0.2326 0.2423 0.2902 0.3528 0.4154
1681.000000 0.4781 0.5779 0.5913 0.6052 0.6191
1686.000000 0.6343 0.6499 0.6660 0.6831 0.6994
1691.000000 0.7101 0.7208 0.7282 0.7341 0.7404
1696.000000 0.7482 0.7561 0.7692 0.7816 0.7927
1701.000000 0.8002 0.8039 0.8077 0.8114 0.8151
1706.000000 0.8169 0.8188 0.8206 0.8225 0.8243
1711.000000 0.8257 0.8271 0.8285 0.8291 0.8295
1716.000000 0.8300 0.8305 0.8310 0.8315 0.8319
1721.000000 0.8321 0.8321 0.8321 0.8322 0.8319
1726.000000 0.8316 0.8313 0.8311 0.8308 0.8303
1731.000000 0.8295 0.8287 0.8278 0.8268 0.8258
1736.000000 0.8247 0.8236 0.8226 0.8216 0.8207
1741.000000 0.8198 0.8189 0.8180 0.8171 0.8163
1746.000000 0.8155 0.8147 0.8140 0.8132 0.8125
1751.000000 0.8117 0.8109 0.8093 0.8078 0.8062
1756.000000 0.8047 0.8027 0.8007 0.7986 0.7966
1761.000000 0.7945 0.7926 0.7911 0.7896 0.7881
1766.000000 0.7866 0.7851 0.7844 0.7845 0.7845
1771.000000 0.7848 0.7856 0.7863 0.7869 0.7873
1776.000000 0.7876 0.7879 0.7841 0.7882 0.7878
1781.000000 0.7875 0.7872 0.7868 0.7865 0.7861
1786.000000 0.7858 0.7855 0.7858 0.7872 0.7893
1791.000000 0.7915 0.7946 0.7977 0.8010 0.8043
1796.000000 0.8077 0.8113 0.8148 0.8183 0.8219
1801.000000 0.8257 0.8295 0.8333 0.8359 0.8382
1806.000000 0.8405 0.8424 0.8435 0.8447 0.8458
1811.000000 0.8466 0.8474 0.8479 0.8483 0.8486
1816.000000 0.8490 0.8493 0.8496 0.8499 0.8502
1821.000000 0.8505 0.8508 0.8511 0.8515 0.8522
1826.000000 0.8529 0.8536 0.8543 0.8550 0.8558
1831.000000 0.8566 0.8574 0.8582 0.8590 0.8597
1836.000000 0.8600 0.8602 0.8603 0.8603 0.8595
1841.000000 0.8603 0.8603 0.8603 0.8602 0.8600
1846.000000 0.8598 0.8596 0.8594 0.8592 0.8588
1851.000000 0.8584 0.8580 0.8576 0.8569 0.8555
1856.000000 0.8540 0.8526 0.8511 0.8496 0.8481
1861.000000 0.8466 0.8451 0.8436 0.8420 0.8403
1866.000000 0.8386 0.8368 0.8351 0.8333 0.8315
1871.000000 0.8294 0.8272 0.8251 0.8229 0.8208
1876.000000 0.8186 0.8162 0.8133 0.8104 0.8074
1881.000000 0.8045 0.8016 0.7986 0.7957 0.7928
1886.000000 0.7899 0.7879 0.7864 0.7852 0.7843
1891.000000 0.7835 0.7827 0.7818 0.7809 0.7797
1896.000000 0.7785 0.7773 0.7760 0.7741 0.7722
1901.000000 0.7704 0.7689 0.7675 0.7677 0.7679
1906.000000 0.7684 0.7692 0.7686 0.7715 0.7724
1911.000000 0.7732 0.7751 0.7770 0.7793 0.7819
1916.000000 0.7849 0.7879 0.7910 0.7940 0.7970
1921.000000 0.8000 0.8026 0.8039 0.8046 0.8051
1926.000000 0.8056 0.8062 0.8073 0.8084 0.8100
1931.000000 0.8117 0.8131 0.8141 0.8153 0.8184
1936.000000 0.8210 0.8235 0.8257 0.8280 0.8291
1941.000000 0.8302 0.8313 0.8324 0.8332 0.8339
1946.000000 0.8346 0.8353 0.8360 0.8367 0.8373
1951.000000 0.8378 0.8383 0.8388 0.8393 0.8399
1956.000000 0.8406 0.8413 0.8420 0.8432 0.8445
1961.000000 0.8458 0.8468 0.8478 0.8487 0.8496
1966.000000 0.8502 0.8509 0.8515 0.8522 0.8528
1971.000000 0.8533 0.8538 0.8543 0.8548 0.8553
1976.000000 0.8557 0.8560 0.8563 0.8567 0.8570
1981.000000 0.8572 0.8570 0.8567 0.8569 0.8562
1986.000000 0.8559 0.8554 0.8548 0.8543 0.8538
1991.000000 0.8533 0.8527 0.8521 0.8515 0.8509
1996.000000 0.8502 0.8496 0.8490 0.8483 0.8477
2001.000000 0.8470 0.8464 0.8460 0.8457 0.8454
2006.000000 0.8451 0.8449 0.8447 0.8445 0.8444
2011.000000 0.8442 0.8441 0.8439 0.8438 0.8436
2016.000000 0.8435 0.8437 0.8440 0.8443 0.8447
2021.000000 0.8450 0.8454 0.8463 0.8473 0.8482
2026.000000 0.8491 0.8498 0.8506 0.8513 0.8521
2031.000000 0.8529 0.8537 0.8544 0.8552 0.8558
2036.000000 0.8564 0.8566 0.8568 0.8570 0.8572
2041.000000 0.8574 0.8576 0.8577 0.8579 0.8579
2046.000000 0.8579 0.8579 0.8579 0.8579 0.8579
2051.000000 0.8579 0.8579 0.8577 0.8576 0.8572
2056.000000 0.8568 0.8563 0.8559 0.8555 0.8551
2061.000000 0.8546 0.8542 0.8532 0.8523 0.8512
2066.000000 0.8502 0.8491 0.8480 0.8467 0.8455
2071.000000 0.8439 0.8423 0.8407 0.8392 0.8372
2076.000000 0.8352 0.8328 0.8304 0.8280 0.8257
2081.000000 0.8229 0.8201 0.8171 0.8142 0.8112
2086.000000 0.8083 0.8053 0.8024 0.7982 0.7940
2091.000000 0.7898 0.7856 0.7781 0.7706 0.7616
2096.000000 0.7527 0.7446 0.7365 0.7329 0.7294
2101.000000 0.7277 0.7261 0.7257 0.7253 0.7252
2106.000000 0.7251 0.7251 0.7251 0.7252 0.7254
2111.000000 0.7259 0.7264 0.7270 0.7258 0.7284
2116.000000 0.7293 0.7306 0.7319 0.7348 0.7377
2121.000000 0.7397 0.7418 0.7440 0.7462 0.7485
2126.000000 0.7509 0.7598 0.7688 0.7802 0.7916
2131.000000 0.8030 0.8144 0.8248 0.8352 0.8379
2136.000000 0.8406 0.8420 0.8434 0.8448 0.8462
2141.000000 0.8465 0.8468 0.8471 0.8474 0.8477
2146.000000 0.8481 0.8481 0.8481 0.8481 0.8481
2151.000000 0.8481 0.8481 0.8481 0.8481 0.8480
2156.000000 0.8480 0.8479 0.8470 0.8478 0.8478
2161.000000 0.8477 0.8476 0.8475 0.8475 0.8473
2166.000000 0.8472 0.8469 0.8467 0.8464 0.8462
2171.000000 0.8459 0.8456 0.8453 0.8451 0.8448
2176.000000 0.8445 0.8440 0.8435 0.8430 0.8426
2181.000000 0.8421 0.8416 0.8408 0.8401 0.8392
2186.000000 0.8383 0.8373 0.8364 0.8355 0.8346
2191.000000 0.8336 0.8327 0.8318 0.8309 0.8300
2196.000000 0.8292 0.8283 0.8275 0.8266 0.8258
2201.000000 0.8250 0.8242 0.8234 0.8227 0.8224
2206.000000 0.8222 0.8219 0.8217 0.8214 0.8205
2211.000000 0.8210 0.8208 0.8208 0.8208 0.8211
2216.000000 0.8215 0.8219 0.8223 0.8226 0.8230
2221.000000 0.8236 0.8242 0.8249 0.8256 0.8264
2226.000000 0.8273 0.8287 0.8301 0.8315 0.8329
2231.000000 0.8344 0.8360 0.8376 0.8392 0.8410
2236.000000 0.8429 0.8448 0.8468 0.8484 0.8501
2241.000000 0.8511 0.8521 0.8531 0.8541 0.8550
2246.000000 0.8560 0.8566 0.8573 0.8579 0.8585
2251.000000 0.8590 0.8595 0.8597 0.8600 0.8603
2256.000000 0.8606 0.8608 0.8611 0.8612 0.8614
2261.000000 0.8615 0.8617 0.8618 0.8619 0.8620
2266.000000 0.8622 0.8623 0.8624 0.8625 0.8643
2271.000000 0.8628 0.8629 0.8629 0.8630 0.8631
2276.000000 0.8632 0.8632 0.8633 0.8634 0.8635
2281.000000 0.8635 0.8636 0.8636 0.8637 0.8637
2286.000000 0.8637 0.8637 0.8638 0.8638 0.8639
2291.000000 0.8639 0.8639 0.8639 0.8640 0.8640
2296.000000 0.8640 0.8638 0.8637 0.8635 0.8633
2301.000000 0.8631 0.8629 0.8627 0.8625 0.8620
2306.000000 0.8616 0.8611 0.8607 0.8602 0.8598
2311.000000 0.8593 0.8589 0.8584 0.8580 0.8576
2316.000000 0.8572 0.8568 0.8565 0.8561 0.8557
2321.000000 0.8553 0.8550 0.8546 0.8542 0.8538
2326.000000 0.8535 0.8533 0.8531 0.8530 0.8529
2331.000000 0.8528 0.8527 0.8525 0.8524 0.8522
2336.000000 0.8521 0.8519 0.8518 0.8521 0.8524
2341.000000 0.8526 0.8529 0.8532 0.8535 0.8537
2346.000000 0.8540 0.8543 0.8546 0.8553 0.8560
2351.000000 0.8563 0.8567 0.8570 0.8573 0.8576
2356.000000 0.8580 0.8583 0.8586 0.8589 0.8593
2361.000000 0.8595 0.8598 0.8600 0.8603 0.8605
2366.000000 0.8608 0.8610 0.8613 0.8615 0.8618
2371.000000 0.8620 0.8623 0.8622 0.8622 0.8621
2376.000000 0.8621 0.8620 0.8619 0.8618 0.8618
2381.000000 0.8617 0.8617 0.8616 0.8615 0.8613
2386.000000 0.8612 0.8611 0.8610 0.8608 0.8607
2391.000000 0.8606 0.8605 0.8603 0.8602 0.8600
2396.000000 0.8599 0.8596 0.8594 0.8592 0.8590
2401.000000 0.8587 0.8585 0.8583 0.8581 0.8578
2406.000000 0.8576 0.8573 0.8571 0.8569 0.8567
2411.000000 0.8564 0.8562 0.8560 0.8558 0.8555
2416.000000 0.8553 0.8551 0.8549 0.8546 0.8544
2421.000000 0.8541 0.8539 0.8537 0.8535 0.8532
2426.000000 0.8530 0.8527 0.8525 0.8523 0.8521
2431.000000 0.8518 0.8516 0.8514 0.8513 0.8512
2436.000000 0.8512 0.8511 0.8511 0.8511 0.8511
2441.000000 0.8510 0.8510 0.8509 0.8509 0.8509
2446.000000 0.8510 0.8510 0.8511 0.8511 0.8511
2451.000000 0.8511 0.8512 0.8512 0.8513 0.8513
2456.000000 0.8513 0.8513 0.8513 0.8512 0.8512
2461.000000 0.8512 0.8512 0.8511 0.8511 0.8510
2466.000000 0.8510 0.8505 0.8501 0.8496 0.8492
2471.000000 0.8486 0.8481 0.8475 0.8469 0.8463
2476.000000 0.8457 0.8449 0.8441 0.8433 0.8425
2481.000000 0.8417 0.8409 0.8400 0.8392 0.8383
2486.000000 0.8375 0.8366 0.8358 0.8349 0.8340
2491.000000 0.8332 0.8325 0.8320 0.8315 0.8310
2496.000000 0.8305 0.8300 0.8295 0.8293 0.8292
2501.000000 0.8291 0.8290 0.8289 0.8283 0.8286
2506.000000 0.8285 0.8284 0.8283 0.8284 0.8285
2511.000000 0.8286 0.8288 0.8289 0.8290 0.8293
2516.000000 0.8296 0.8299 0.8303 0.8306 0.8309
2521.000000 0.8312 0.8315 0.8318 0.8322 0.8325
2526.000000 0.8328 0.8331 0.8335 0.8338 0.8341
2531.000000 0.8347 0.8354 0.8360 0.8366 0.8372
2536.000000 0.8379 0.8385 0.8392 0.8398 0.8404
2541.000000 0.8410 0.8417 0.8424 0.8431 0.8438
2546.000000 0.8445 0.8452 0.8460 0.8467 0.8475
2551.000000 0.8482 0.8489 0.8496 0.8504 0.8510
2556.000000 0.8516 0.8522 0.8528 0.8534 0.8540
2561.000000 0.8546 0.8552 0.8558 0.8564 0.8569
2566.000000 0.8575 0.8580 0.8586 0.8588 0.8590
2571.000000 0.8590 0.8590 0.8590 0.8590 0.8586
2576.000000 0.8583 0.8578 0.8574 0.8569 0.8564
2581.000000 0.8559 0.8554 0.8548 0.8543 0.8538
2586.000000 0.8533 0.8529 0.8525 0.8521 0.8518
2591.000000 0.8514 0.8511 0.8507 0.8504 0.8501
2596.000000 0.8499 0.8496 0.8494 0.8491 0.8489
2601.000000 0.8486 0.8484 0.8482 0.8480 0.8478
2606.000000 0.8476 0.8476 0.8476 0.8476 0.8477
2611.000000 0.8477 0.8478 0.8478 0.8478 0.8478
2616.000000 0.8479 0.8479 0.8480 0.8480 0.8481
2621.000000 0.8482 0.8483 0.8483 0.8484 0.8484
2626.000000 0.8485 0.8486 0.8487 0.8487 0.8488
2631.000000 0.8488 0.8489 0.8490 0.8491 0.8491
2636.000000 0.8492 0.8493 0.8494 0.8494 0.8495
2641.000000 0.8495 0.8496 0.8497 0.8498 0.8498
2646.000000 0.8499 0.8500 0.8502 0.8504 0.8507
2651.000000 0.8509 0.8511 0.8513 0.8516 0.8518
2656.000000 0.8520 0.8522 0.8525 0.8527 0.8529
2661.000000 0.8531 0.8534 0.8536 0.8538 0.8540
2666.000000 0.8543 0.8546 0.8549 0.8552 0.8555
2671.000000 0.8557 0.8560 0.8563 0.8539 0.8569
2676.000000 0.8572 0.8575 0.8578 0.8580 0.8582
2681.000000 0.8583 0.8584 0.8585 0.8586 0.8587
2686.000000 0.8588 0.8589 0.8590 0.8591 0.8592
2691.000000 0.8593 0.8594 0.8593 0.8592 0.8590
2696.000000 0.8589 0.8587 0.8586 0.8584 0.8583
2701.000000 0.8581 0.8580 0.8578 0.8577 0.8575
2706.000000 0.8574 0.8572 0.8570 0.8568 0.8566
2711.000000 0.8564 0.8563 0.8561 0.8559 0.8558
2716.000000 0.8557 0.8555 0.8554 0.8552 0.8551
2721.000000 0.8549 0.8548 0.8546 0.8545 0.8544
2726.000000 0.8543 0.8541 0.8539 0.8536 0.8534
2731.000000 0.8531 0.8529 0.8526 0.8523 0.8520
2736.000000 0.8518 0.8515 0.8513 0.8510 0.8508
2741.000000 0.8505 0.8503 0.8500 0.8497 0.8493
2746.000000 0.8490 0.8486 0.8483 0.8479 0.8475
2751.000000 0.8471 0.8468 0.8464 0.8461 0.8457
2756.000000 0.8453 0.8449 0.8446 0.8440 0.8435
2761.000000 0.8426 0.8418 0.8409 0.8400 0.8391
2766.000000 0.8382 0.8373 0.8365 0.8354 0.8343
2771.000000 0.8331 0.8319 0.8306 0.8294 0.8281
2776.000000 0.8269 0.8257 0.8245 0.8232 0.8220
2781.000000 0.8202 0.8184 0.8162 0.8141 0.8119
2786.000000 0.8098 0.8076 0.8054 0.8028 0.8002
2791.000000 0.7966 0.7931 0.7895 0.7860 0.7818
2796.000000 0.7776 0.7726 0.7677 0.7613 0.7550
2801.000000 0.7459 0.7368 0.7248 0.7128 0.7008
2806.000000 0.6889 0.6769 0.6649 0.6529 0.6410
2811.000000 0.6290 0.6170 0.6050 0.5931 0.5811
2816.000000 0.5691 0.5571 0.5452 0.5359 0.5266
2821.000000 0.5215 0.5164 0.5127 0.5091 0.5061
2826.000000 0.5031 0.4979 0.4928 0.4873 0.4818
2831.000000 0.4470 0.4123 0.4087 0.4051 0.4040
2836.000000 0.4029 0.4028 0.4027 0.4030 0.4042
2841.000000 0.4039 0.4045 0.4051 0.4057 0.4069
2846.000000 0.4081 0.4093 0.4106 0.4118 0.4130
2851.000000 0.4143 0.4156 0.4169 0.4182 0.4195
2856.000000 0.4208 0.4218 0.4228 0.4237 0.4247
2861.000000 0.4257 0.4268 0.4282 0.4296 0.4312
2866.000000 0.4329 0.4353 0.4377 0.4410 0.4443
2871.000000 0.4584 0.4725 0.4835 0.4946 0.4961
2876.000000 0.4977 0.4981 0.4986 0.4984 0.4983
2881.000000 0.4982 0.5030 0.4975 0.4968 0.4944
2886.000000 0.4921 0.4848 0.4775 0.4684 0.4594
2891.000000 0.4503 0.4412 0.4321 0.4231 0.4140
2896.000000 0.4049 0.3955 0.3862 0.3804 0.3747
2901.000000 0.3693 0.3640 0.3586 0.3532 0.3452
2906.000000 0.3373 0.3257 0.3142 0.2802 0.2462
2911.000000 0.2361 0.2261 0.2204 0.2147 0.2096
2916.000000 0.2045 0.2017 0.1989 0.1960 0.1932
2921.000000 0.1902 0.1873 0.1823 0.1773 0.1723
2926.000000 0.1673 0.1637 0.1602 0.1572 0.1542
2931.000000 0.1512 0.1482 0.1462 0.1442 0.1429
2936.000000 0.1417 0.1404 0.1391 0.1381 0.1372
2941.000000 0.1364 0.1356 0.1344 0.1333 0.1318
2946.000000 0.1304 0.1282 0.1260 0.1233 0.1206
2951.000000 0.1197 0.1188 0.1184 0.1180 0.1178
2956.000000 0.1176 0.1176 0.1168 0.1187 0.1197
2961.000000 0.1238 0.1280 0.1804 0.2328 0.2431
2966.000000 0.2534 0.2610 0.2686 0.2762 0.2838
2971.000000 0.2914 0.2991 0.3067 0.3143 0.3219
2976.000000 0.3295 0.3371 0.3447 0.3472 0.3498
2981.000000 0.3501 0.3504 0.3503 0.3497 0.3500
2986.000000 0.3498 0.3491 0.3484 0.3469 0.3454
2991.000000 0.3407 0.3361 0.3235 0.3109 0.2936
2996.000000 0.2763 0.2594 0.2426 0.2412 0.2399
3001.000000 0.2397 0.2400 0.2434 0.2473 0.2554
3006.000000 0.2636 0.2717 0.2799 0.2837 0.2876
3011.000000 0.2739 0.2603 0.2658 0.2714 0.2828
3016.000000 0.2942 0.3042 0.3143 0.3097 0.3052
3021.000000 0.2970 0.2888 0.3026 0.3164 0.3473
3026.000000 0.3783 0.4093 0.4403 0.4712 0.5022
3031.000000 0.5445 0.5868 0.5971 0.6074 0.6177
3036.000000 0.6280 0.6383 0.6486 0.6522 0.6581
3041.000000 0.6557 0.6557 0.6551 0.6546 0.6540
3046.000000 0.6534 0.6527 0.6521 0.6510 0.6499
3051.000000 0.6474 0.6449 0.6419 0.6390 0.6359
3056.000000 0.6329 0.6296 0.6263 0.6227 0.6192
3061.000000 0.6155 0.6118 0.6096 0.6074 0.6071
3066.000000 0.6069 0.6072 0.6045 0.6099 0.6123
3071.000000 0.6151 0.6180 0.6213 0.6246 0.6275
3076.000000 0.6305 0.6328 0.6351 0.6369 0.6388
3081.000000 0.6405 0.6423 0.6437 0.6451 0.6465
3086.000000 0.6479 0.6494 0.6509 0.6523 0.6538
3091.000000 0.6548 0.6558 0.6568 0.6578 0.6584
3096.000000 0.6590 0.6593 0.6610 0.6546 0.6497
3101.000000 0.6412 0.6328 0.6243 0.6159 0.6074
3106.000000 0.5990 0.5905 0.5820 0.5735 0.5651
3111.000000 0.5624 0.5586 0.5638 0.5680 0.5730
3116.000000 0.5780 0.5830 0.5881 0.5931 0.5981
3121.000000 0.6008 0.6011 0.5939 0.5844 0.5692
3126.000000 0.5540 0.5503 0.5467 0.5617 0.5470
3131.000000 0.5929 0.6091 0.6081 0.6136 0.5985
3136.000000 0.5899 0.5812 0.5726 0.5639 0.5553
3141.000000 0.6628 0.7703 0.7756 0.5490 0.7859
3146.000000 0.7909 0.7955 0.8002 0.8043 0.8084
3151.000000 0.8119 0.8155 0.8185 0.8215 0.8244
3156.000000 0.8274 0.8303 0.8333 0.8362 0.8392
3161.000000 0.8412 0.8433 0.8441 0.8450 0.8458
3166.000000 0.8467 0.8473 0.8480 0.8486 0.8492
3171.000000 0.8496 0.8501 0.8503 0.8505 0.8506
3176.000000 0.8508 0.8511 0.8514 0.8516 0.8519
3181.000000 0.8521 0.8524 0.8526 0.8529 0.8531
3186.000000 0.8534 0.8536 0.8539 0.8542 0.8545
3191.000000 0.8547 0.8550 0.8552 0.8555 0.8557
3196.000000 0.8559 0.8560 0.8562 0.8563 0.8564
3201.000000 0.8565 0.8567 0.8568 0.8570 0.8571
3206.000000 0.8572 0.8573 0.8575 0.8576 0.8577
3211.000000 0.8577 0.8578 0.8578 0.8578 0.8578
3216.000000 0.8578 0.8578 0.8578 0.8578 0.8578
3221.000000 0.8578 0.8579 0.8579 0.8579 0.8579
3226.000000 0.8579 0.8579 0.8579 0.8579 0.8579
3231.000000 0.8579 0.8579 0.8579 0.8579 0.8579
3236.000000 0.8579 0.8579 0.8580 0.8580 0.8581
3241.000000 0.8581 0.8581 0.8581 0.8582 0.8582
3246.000000 0.8583 0.8583 0.8583 0.8583 0.8584
3251.000000 0.8584 0.8584 0.8584 0.8585 0.8585
3256.000000 0.8586 0.8586 0.8586 0.8586 0.8587
3261.000000 0.8589 0.8591 0.8595 0.8600 0.8604
3266.000000 0.8609 0.8613 0.8617 0.8621 0.8626
3271.000000 0.8627 0.8629 0.8630 0.8632 0.8633
3276.000000 0.8635 0.8636 0.8637 0.8638 0.8640
3281.000000 0.8641 0.8643 0.8644 0.8646 0.8649
3286.000000 0.8652 0.8655 0.8658 0.8661 0.8664
3291.000000 0.8667 0.8670 0.8673 0.8677 0.8680
3296.000000 0.8683 0.8686 0.8689 0.8692 0.8695
3301.000000 0.8697 0.8699 0.8701 0.8704 0.8706
3306.000000 0.8709 0.8711 0.8713 0.8715 0.8718
3311.000000 0.8720 0.8723 0.8725 0.8727 0.8729
3316.000000 0.8732 0.8734 0.8736 0.8738 0.8741
3321.000000 0.8743 0.8745 0.8747 0.8750 0.8752
3326.000000 0.8754 0.8756 0.8759 0.8761 0.8763
3331.000000 0.8765 0.8768 0.8769 0.8771 0.8773
3336.000000 0.8775 0.8776 0.8778 0.8779 0.8781
3341.000000 0.8783 0.8785 0.8786 0.8788 0.8790
3346.000000 0.8792 0.8793 0.8795 0.8796 0.8798
3351.000000 0.8800 0.8802 0.8803 0.8805 0.8806
3356.000000 0.8808 0.8809 0.8811 0.8812 0.8813
3361.000000 0.8814 0.8816 0.8817 0.8818 0.8819
3366.000000 0.8820 0.8821 0.8823 0.8824 0.8825
3371.000000 0.8826 0.8828 0.8829 0.8830 0.8831
3376.000000 0.8833 0.8834 0.8835 0.8836 0.8837
3381.000000 0.8837 0.8838 0.8839 0.8840 0.8840
3386.000000 0.8841 0.8842 0.8843 0.8843 0.8844
3391.000000 0.8845 0.8846 0.8846 0.8847 0.8848
3396.000000 0.8849 0.8849 0.8850 0.8851 0.8852
3401.000000 0.8852 0.8853 0.8853 0.8854 0.8854
3406.000000 0.8854 0.8854 0.8854 0.8854 0.8854
3411.000000 0.8853 0.8808 0.8853 0.8853 0.8853
3416.000000 0.8853 0.8853 0.8853 0.8852 0.8852
3421.000000 0.8852 0.8852 0.8852 0.8852 0.8852
3426.000000 0.8852 0.8851 0.8851 0.8850 0.8849
3431.000000 0.8848 0.8848 0.8847 0.8846 0.8845
3436.000000 0.8844 0.8843 0.8843 0.8842 0.8841
3441.000000 0.8840 0.8840 0.8839 0.8838 0.8837
3446.000000 0.8836 0.8835 0.8835 0.8834 0.8833
3451.000000 0.8832 0.8832 0.8831 0.8830 0.8829
3456.000000 0.8828 0.8827 0.8827 0.8826 0.8825
3461.000000 0.8823 0.8822 0.8820 0.8819 0.8817
3466.000000 0.8816 0.8814 0.8813 0.8811 0.8810
3471.000000 0.8808 0.8807 0.8805 0.8804 0.8802
3476.000000 0.8801 0.8799 0.8798 0.8796 0.8795
3481.000000 0.8793 0.8792 0.8790 0.8789 0.8787
3486.000000 0.8786 0.8784 0.8783 0.8781 0.8780
3491.000000 0.8778 0.8777 0.8776 0.8775 0.8773
3496.000000 0.8772 0.8770 0.8769 0.8767 0.8766
3501.000000 0.8764 0.8763 0.8762 0.8761 0.8759
3506.000000 0.8758 0.8756 0.8755 0.8754 0.8753
3511.000000 0.8751 0.8750 0.8749 0.8748 0.8747
3516.000000 0.8746 0.8745 0.8744 0.8742 0.8741
3521.000000 0.8740 0.8739 0.8738 0.8737 0.8736
3526.000000 0.8735 0.8734 0.8733 0.8731 0.8730
3531.000000 0.8729 0.8728 0.8727 0.8726 0.8725
3536.000000 0.8724 0.8723 0.8722 0.8720 0.8719
3541.000000 0.8718 0.8717 0.8716 0.8715 0.8714
3546.000000 0.8713 0.8711 0.8710 0.8708 0.8707
3551.000000 0.8705 0.8703 0.8701 0.8700 0.8698
3556.000000 0.8696 0.8694 0.8693 0.8691 0.8689
3561.000000 0.8687 0.8686 0.8684 0.8682 0.8680
3566.000000 0.8679 0.8677 0.8676 0.8674 0.8672
3571.000000 0.8669 0.8667 0.8665 0.8663 0.8661
3576.000000 0.8659 0.8656 0.8654 0.8652 0.8650
3581.000000 0.8648 0.8646 0.8643 0.8640 0.8635
3586.000000 0.8631 0.8627 0.8623 0.8619 0.8615
3591.000000 0.8611 0.8607 0.8602 0.8598 0.8594
3596.000000 0.8590 0.8586 0.8582 0.8578 0.8574
3601.000000 0.8569 0.8565 0.8561 0.8557 0.8553
3606.000000 0.8549 0.8544 0.8540 0.8535 0.8530
3611.000000 0.8525 0.8520 0.8515 0.8510 0.8505
3616.000000 0.8500 0.8495 0.8490 0.8485 0.8480
3621.000000 0.8475 0.8470 0.8465 0.8460 0.8454
3626.000000 0.8449 0.8443 0.8437 0.8431 0.8426
3631.000000 0.8422 0.8418 0.8415 0.8413 0.8410
3636.000000 0.8408 0.8406 0.8404 0.8401 0.8399
3641.000000 0.8397 0.8396 0.8395 0.8395 0.8394
3646.000000 0.8393 0.8392 0.8392 0.8391 0.8390
3651.000000 0.8391 0.8393 0.8395 0.8397 0.8399
3656.000000 0.8402 0.8404 0.8406 0.8408 0.8410
3661.000000 0.8410 0.8411 0.8407 0.8403 0.8396
3666.000000 0.8414 0.8387 0.8385 0.8384 0.8384
3671.000000 0.8383 0.8383 0.8383 0.8384 0.8385
3676.000000 0.8386 0.8387 0.8388 0.8393 0.8398
3681.000000 0.8402 0.8407 0.8412 0.8418 0.8424
3686.000000 0.8431 0.8437 0.8444 0.8452 0.8460
3691.000000 0.8469 0.8479 0.8488 0.8497 0.8506
3696.000000 0.8516 0.8525 0.8535 0.8544 0.8554
3701.000000 0.8563 0.8573 0.8582 0.8591 0.8600
3706.000000 0.8610 0.8617 0.8625 0.8632 0.8640
3711.000000 0.8647 0.8655 0.8662 0.8670 0.8676
3716.000000 0.8682 0.8687 0.8692 0.8697 0.8702
3721.000000 0.8707 0.8712 0.8717 0.8722 0.8725
3726.000000 0.8728 0.8731 0.8734 0.8737 0.8740
3731.000000 0.8742 0.8745 0.8748 0.8751 0.8753
3736.000000 0.8756 0.8757 0.8758 0.8759 0.8760
3741.000000 0.8761 0.8762 0.8763 0.8765 0.8766
3746.000000 0.8767 0.8767 0.8767 0.8766 0.8765
3751.000000 0.8763 0.8762 0.8761 0.8760 0.8759
3756.000000 0.8758 0.8756 0.8754 0.8751 0.8748
3761.000000 0.8745 0.8742 0.8739 0.8737 0.8734
3766.000000 0.8731 0.8730 0.8729 0.8728 0.8728
3771.000000 0.8727 0.8727 0.8727 0.8734 0.8728
3776.000000 0.8729 0.8730 0.8731 0.8733 0.8735
3781.000000 0.8737 0.8740 0.8743 0.8747 0.8750
3786.000000 0.8754 0.8758 0.8762 0.8765 0.8769
3791.000000 0.8773 0.8777 0.8777 0.8777
##END=
