##TITLE=Toluene
##JCAMP-DX=4.24
##DATA TYPE=INFRARED SPECTRUM
##CLASS=COBLENTZ
##ORIGIN=DOW CHEMICAL COMPANY
##OWNER=Copyright (C) 1987 by the Coblentz Society
Collection (C) 2018 copyright by the U.S. Secretary of Commerce
on behalf of the United States of America. All rights reserved.
##DATE=1964
##NAMES=BENZENE, METHYL-
##CAS REGISTRY NO=108-88-3
##MOLFORM=C7 H8
##SOURCE REFERENCE=COBLENTZ NO. 8882
##$NIST SOURCE=COBLENTZ
##$NIST IMAGE=cob8882
##SPECTROMETER/DATA SYSTEM=DOW KBr FOREPRISM-GRATING
##INSTRUMENT PARAMETERS=GRATING CHANGED AT 5.0, 7.5, 15.0 MICRON
##STATE=GAS (20 mmHg, N2 ADDED, TOTAL PRESSURE 600 mmHg)
##PATH LENGTH=5 CM
##SAMPLING PROCEDURE=TRANSMISSION
##RESOLUTION=2
##DATA PROCESSING=DIGITIZED BY COBLENTZ SOCIETY (BATCH II) FROM HARD COPY
##XUNITS=1/CM
##YUNITS=TRANSMITTANCE
##XFACTOR=1.0
##YFACTOR=1
##FIRSTX=456
##LASTX=3784
##FIRSTY=0.7972
##MAXX=3784
##MINX=456
##MAXY=0.8776
##MINY=0.1388
##NPOINTS=3329
##XYDATA=(X++(Y..Y))
456.000000 0.7972 0.7968 0.7958 0.7947 0.7932
461.000000 0.7917 0.7900 0.7882 0.7865 0.7848
466.000000 0.7836 0.7831 0.7827 0.7822 0.7828
471.000000 0.7906 0.8121 0.8293 0.8325 0.8340
476.000000 0.8356 0.8369 0.8383 0.8395 0.8407
481.000000 0.8423 0.8438 0.8454 0.8472 0.8490
486.000000 0.8510 0.8536 0.8562 0.8588 0.8613
491.000000 0.8639 0.8659 0.8673 0.8687 0.8700
496.000000 0.8706 0.8710 0.8714 0.8719 0.8723
501.000000 0.8726 0.8726 0.8726 0.8726 0.8726
506.000000 0.8725 0.8723 0.8720 0.8718 0.8715
511.000000 0.8710 0.8705 0.8699 0.8694 0.8688
516.000000 0.8682 0.8675 0.8667 0.8659 0.8652
521.000000 0.8644 0.8634 0.8616 0.8599 0.8595
526.000000 0.8591 0.8588 0.8591 0.8594 0.8597
531.000000 0.8599 0.8602 0.8605 0.8608 0.8611
536.000000 0.8614 0.8617 0.8621 0.8624 0.8627
541.000000 0.8630 0.8634 0.8637 0.8640 0.8644
546.000000 0.8647 0.8650 0.8654 0.8657 0.8661
551.000000 0.8664 0.8667 0.8671 0.8674 0.8678
556.000000 0.8681 0.8685 0.8689 0.8693 0.8696
561.000000 0.8700 0.8704 0.8708 0.8708 0.8716
566.000000 0.8720 0.8722 0.8725 0.8728 0.8730
571.000000 0.8733 0.8736 0.8738 0.8741 0.8743
576.000000 0.8746 0.8748 0.8749 0.8750 0.8752
581.000000 0.8753 0.8754 0.8755 0.8757 0.8758
586.000000 0.8759 0.8760 0.8760 0.8760 0.8760
591.000000 0.8761 0.8761 0.8761 0.8762 0.8762
596.000000 0.8762 0.8762 0.8763 0.8763 0.8763
601.000000 0.8762 0.8761 0.8760 0.8758 0.8757
606.000000 0.8756 0.8754 0.8753 0.8752 0.8750
611.000000 0.8749 0.8747 0.8746 0.8745 0.8743
616.000000 0.8742 0.8741 0.8739 0.8738 0.8736
621.000000 0.8734 0.8732 0.8730 0.8727 0.8725
626.000000 0.8723 0.8721 0.8718 0.8716 0.8714
631.000000 0.8712 0.8710 0.8707 0.8705 0.8703
636.000000 0.8701 0.8699 0.8696 0.8693 0.8688
641.000000 0.8683 0.8678 0.8673 0.8667 0.8662
646.000000 0.8657 0.8652 0.8647 0.8641 0.8636
651.000000 0.8631 0.8626 0.8620 0.8614 0.8607
656.000000 0.8601 0.8594 0.8588 0.8582 0.8575
661.000000 0.8569 0.8560 0.8547 0.8534 0.8521
666.000000 0.8508 0.8495 0.8478 0.8435 0.8383
671.000000 0.8317 0.8238 0.8155 0.7836 0.7329
676.000000 0.7314 0.7445 0.7609 0.7650 0.7596
681.000000 0.7509 0.7212 0.7016 0.7027 0.7036
686.000000 0.7043 0.7042 0.7028 0.7014 0.6990
691.000000 0.6953 0.6950 0.6859 0.6794 0.5628
696.000000 0.2800 0.2773 0.3324 0.4876 0.6429
701.000000 0.6994 0.6974 0.6676 0.6607 0.6502
706.000000 0.6438 0.6386 0.6343 0.6296 0.6239
711.000000 0.6163 0.6080 0.5996 0.5923 0.5843
716.000000 0.5717 0.5570 0.5414 0.5294 0.5213
721.000000 0.5157 0.5125 0.5094 0.5067 0.4761
726.000000 0.4167 0.3572 0.2978 0.2384 0.1789
731.000000 0.1388 0.1388 0.1419 0.2778 0.3786
736.000000 0.4793 0.4881 0.4995 0.5047 0.5079
741.000000 0.5110 0.5148 0.5204 0.5299 0.5509
746.000000 0.5800 0.5917 0.6140 0.6405 0.6551
751.000000 0.6618 0.6871 0.7193 0.7600 0.7725
756.000000 0.7826 0.7977 0.8095 0.8163 0.8219
761.000000 0.8257 0.8291 0.8321 0.8340 0.8360
766.000000 0.8375 0.8387 0.8395 0.8399 0.8402
771.000000 0.8403 0.8405 0.8408 0.8412 0.8420
776.000000 0.8426 0.8418 0.8412 0.8406 0.8401
781.000000 0.8393 0.8386 0.8389 0.8401 0.8415
786.000000 0.8429 0.8443 0.8456 0.8459 0.8453
791.000000 0.8443 0.8428 0.8410 0.8393 0.8392
796.000000 0.8390 0.8390 0.8390 0.8390 0.8391
801.000000 0.8392 0.8393 0.8393 0.8397 0.8401
806.000000 0.8405 0.8410 0.8414 0.8420 0.8426
811.000000 0.8432 0.8427 0.8415 0.8401 0.8385
816.000000 0.8369 0.8353 0.8360 0.8367 0.8372
821.000000 0.8378 0.8383 0.8385 0.8384 0.8380
826.000000 0.8375 0.8370 0.8361 0.8351 0.8341
831.000000 0.8332 0.8322 0.8313 0.8315 0.8323
836.000000 0.8330 0.8344 0.8352 0.8360 0.8371
841.000000 0.8381 0.8385 0.8388 0.8391 0.8397
846.000000 0.8403 0.8408 0.8413 0.8417 0.8419
851.000000 0.8421 0.8423 0.8425 0.8426 0.8428
856.000000 0.8430 0.8432 0.8434 0.8436 0.8437
861.000000 0.8439 0.8441 0.8443 0.8445 0.8447
866.000000 0.8449 0.8450 0.8450 0.8450 0.8450
871.000000 0.8450 0.8450 0.8450 0.8451 0.8453
876.000000 0.8454 0.8455 0.8457 0.8458 0.8458
881.000000 0.8454 0.8441 0.8427 0.8421 0.8414
886.000000 0.8408 0.8401 0.8397 0.8393 0.8389
891.000000 0.8385 0.8381 0.8377 0.8380 0.8383
896.000000 0.8390 0.8401 0.8413 0.8425 0.8435
901.000000 0.8442 0.8444 0.8446 0.8447 0.8448
906.000000 0.8449 0.8449 0.8450 0.8451 0.8451
911.000000 0.8450 0.8449 0.8449 0.8448 0.8447
916.000000 0.8446 0.8445 0.8444 0.8443 0.8442
921.000000 0.8441 0.8440 0.8439 0.8438 0.8436
926.000000 0.8437 0.8440 0.8442 0.8444 0.8446
931.000000 0.8448 0.8450 0.8453 0.8455 0.8457
936.000000 0.8459 0.8461 0.8464 0.8466 0.8468
941.000000 0.8470 0.8475 0.8485 0.8495 0.8504
946.000000 0.8514 0.8522 0.8527 0.8532 0.8535
951.000000 0.8537 0.8540 0.8542 0.8545 0.8541
956.000000 0.8547 0.8548 0.8549 0.8549 0.8548
961.000000 0.8548 0.8547 0.8547 0.8546 0.8546
966.000000 0.8545 0.8543 0.8542 0.8540 0.8538
971.000000 0.8536 0.8535 0.8533 0.8531 0.8529
976.000000 0.8527 0.8525 0.8523 0.8521 0.8518
981.000000 0.8516 0.8514 0.8512 0.8510 0.8507
986.000000 0.8504 0.8502 0.8499 0.8497 0.8494
991.000000 0.8491 0.8489 0.8486 0.8484 0.8481
996.000000 0.8478 0.8476 0.8473 0.8470 0.8467
1001.000000 0.8465 0.8462 0.8459 0.8456 0.8454
1006.000000 0.8449 0.8444 0.8439 0.8434 0.8429
1011.000000 0.8424 0.8420 0.8415 0.8409 0.8402
1016.000000 0.8394 0.8387 0.8379 0.8364 0.8349
1021.000000 0.8334 0.8315 0.8292 0.8260 0.8221
1026.000000 0.8141 0.8071 0.8071 0.8078 0.8081
1031.000000 0.8079 0.8038 0.7828 0.7812 0.7805
1036.000000 0.7861 0.7916 0.7972 0.7992 0.7988
1041.000000 0.7986 0.7986 0.7990 0.7996 0.8010
1046.000000 0.8028 0.8051 0.8074 0.8099 0.8116
1051.000000 0.8119 0.8130 0.8113 0.8103 0.8093
1056.000000 0.8083 0.8072 0.8062 0.8051 0.8041
1061.000000 0.8031 0.8021 0.8011 0.7995 0.7979
1066.000000 0.7962 0.7946 0.7928 0.7909 0.7889
1071.000000 0.7870 0.7848 0.7826 0.7808 0.7803
1076.000000 0.7806 0.7815 0.7775 0.7845 0.7863
1081.000000 0.7889 0.7921 0.7961 0.7972 0.7976
1086.000000 0.7965 0.7952 0.7940 0.7928 0.7932
1091.000000 0.7958 0.7986 0.8019 0.8048 0.8075
1096.000000 0.8099 0.8122 0.8145 0.8169 0.8192
1101.000000 0.8216 0.8239 0.8263 0.8283 0.8299
1106.000000 0.8314 0.8321 0.8321 0.8320 0.8318
1111.000000 0.8315 0.8314 0.8316 0.8321 0.8335
1116.000000 0.8348 0.8364 0.8384 0.8403 0.8421
1121.000000 0.8440 0.8454 0.8467 0.8479 0.8487
1126.000000 0.8492 0.8497 0.8502 0.8507 0.8508
1131.000000 0.8508 0.8508 0.8508 0.8507 0.8505
1136.000000 0.8503 0.8501 0.8499 0.8497 0.8495
1141.000000 0.8492 0.8490 0.8488 0.8486 0.8483
1146.000000 0.8480 0.8477 0.8474 0.8471 0.8468
1151.000000 0.8465 0.8462 0.8459 0.8456 0.8453
1156.000000 0.8451 0.8448 0.8445 0.8443 0.8442
1161.000000 0.8441 0.8440 0.8440 0.8438 0.8435
1166.000000 0.8433 0.8430 0.8439 0.8421 0.8415
1171.000000 0.8409 0.8403 0.8395 0.8386 0.8377
1176.000000 0.8368 0.8359 0.8350 0.8343 0.8337
1181.000000 0.8338 0.8342 0.8346 0.8350 0.8356
1186.000000 0.8363 0.8369 0.8376 0.8384 0.8393
1191.000000 0.8396 0.8398 0.8400 0.8403 0.8405
1196.000000 0.8404 0.8403 0.8401 0.8400 0.8399
1201.000000 0.8397 0.8396 0.8395 0.8393 0.8388
1206.000000 0.8383 0.8378 0.8373 0.8368 0.8363
1211.000000 0.8358 0.8353 0.8348 0.8345 0.8341
1216.000000 0.8338 0.8335 0.8332 0.8329 0.8328
1221.000000 0.8328 0.8328 0.8330 0.8333 0.8336
1226.000000 0.8339 0.8346 0.8358 0.8370 0.8383
1231.000000 0.8396 0.8405 0.8411 0.8417 0.8422
1236.000000 0.8421 0.8420 0.8419 0.8418 0.8415
1241.000000 0.8411 0.8408 0.8405 0.8401 0.8398
1246.000000 0.8393 0.8389 0.8385 0.8381 0.8377
1251.000000 0.8373 0.8371 0.8369 0.8367 0.8366
1256.000000 0.8365 0.8371 0.8374 0.8375 0.8378
1261.000000 0.8382 0.8386 0.8391 0.8392 0.8393
1266.000000 0.8394 0.8395 0.8396 0.8396 0.8396
1271.000000 0.8396 0.8396 0.8396 0.8396 0.8395
1276.000000 0.8394 0.8392 0.8391 0.8390 0.8389
1281.000000 0.8388 0.8387 0.8386 0.8386 0.8385
1286.000000 0.8384 0.8383 0.8382 0.8381 0.8380
1291.000000 0.8379 0.8378 0.8377 0.8376 0.8373
1296.000000 0.8370 0.8367 0.8364 0.8361 0.8358
1301.000000 0.8355 0.8353 0.8350 0.8347 0.8344
1306.000000 0.8342 0.8340 0.8337 0.8335 0.8333
1311.000000 0.8330 0.8328 0.8326 0.8323 0.8322
1316.000000 0.8321 0.8320 0.8319 0.8318 0.8317
1321.000000 0.8316 0.8315 0.8314 0.8313 0.8312
1326.000000 0.8311 0.8310 0.8309 0.8307 0.8306
1331.000000 0.8305 0.8304 0.8303 0.8302 0.8301
1336.000000 0.8299 0.8298 0.8296 0.8294 0.8293
1341.000000 0.8291 0.8290 0.8289 0.8288 0.8287
1346.000000 0.8286 0.8287 0.8290 0.8294 0.8297
1351.000000 0.8300 0.8305 0.8311 0.8316 0.8322
1356.000000 0.8324 0.8322 0.8320 0.8318 0.8316
1361.000000 0.8314 0.8307 0.8296 0.8283 0.8265
1366.000000 0.8246 0.8228 0.8205 0.8181 0.8158
1371.000000 0.8134 0.8109 0.8075 0.8042 0.8009
1376.000000 0.7980 0.7952 0.7923 0.7895 0.7869
1381.000000 0.7847 0.7825 0.7804 0.7786 0.7768
1386.000000 0.7766 0.7764 0.7762 0.7761 0.7787
1391.000000 0.7773 0.7780 0.7793 0.7815 0.7838
1396.000000 0.7863 0.7887 0.7911 0.7935 0.7957
1401.000000 0.7980 0.8002 0.8022 0.8039 0.8056
1406.000000 0.8066 0.8071 0.8077 0.8077 0.8076
1411.000000 0.8075 0.8067 0.8069 0.8063 0.8058
1416.000000 0.8052 0.8047 0.8042 0.8033 0.8022
1421.000000 0.8011 0.8000 0.7999 0.8001 0.8008
1426.000000 0.8017 0.8026 0.8036 0.8046 0.8048
1431.000000 0.8039 0.8030 0.8019 0.8002 0.7985
1436.000000 0.7968 0.7951 0.7934 0.7916 0.7891
1441.000000 0.7865 0.7840 0.7815 0.7789 0.7764
1446.000000 0.7739 0.7713 0.7688 0.7662 0.7636
1451.000000 0.7608 0.7579 0.7551 0.7532 0.7522
1456.000000 0.7512 0.7504 0.7497 0.7503 0.7485
1461.000000 0.7478 0.7471 0.7464 0.7457 0.7455
1466.000000 0.7462 0.7482 0.7514 0.7547 0.7561
1471.000000 0.7559 0.7544 0.7514 0.7492 0.7480
1476.000000 0.7488 0.7495 0.7517 0.7540 0.7563
1481.000000 0.7582 0.7596 0.7594 0.7588 0.7572
1486.000000 0.7549 0.7519 0.7455 0.7387 0.7285
1491.000000 0.7137 0.6944 0.6753 0.6599 0.6460
1496.000000 0.6354 0.6365 0.6375 0.6390 0.6405
1501.000000 0.6415 0.6399 0.5746 0.5758 0.5742
1506.000000 0.6225 0.6613 0.6602 0.6433 0.6301
1511.000000 0.6316 0.6423 0.6529 0.6636 0.6742
1516.000000 0.6904 0.7032 0.7217 0.7373 0.7494
1521.000000 0.7599 0.7653 0.7696 0.7731 0.7758
1526.000000 0.7779 0.7788 0.7795 0.7795 0.7796
1531.000000 0.7798 0.7799 0.7803 0.7807 0.7811
1536.000000 0.7816 0.7824 0.7833 0.7843 0.7857
1541.000000 0.7870 0.7884 0.7898 0.7912 0.7927
1546.000000 0.7941 0.7956 0.7971 0.7985 0.8003
1551.000000 0.8023 0.8042 0.8061 0.8076 0.8071
1556.000000 0.8059 0.8050 0.8043 0.8035 0.8032
1561.000000 0.8032 0.8033 0.8039 0.8045 0.8053
1566.000000 0.8063 0.8073 0.8087 0.8103 0.8098
1571.000000 0.8108 0.8093 0.8078 0.8064 0.8053
1576.000000 0.8042 0.8036 0.8035 0.8033 0.8036
1581.000000 0.8040 0.8044 0.8053 0.8062 0.8071
1586.000000 0.8078 0.8082 0.8085 0.8076 0.8050
1591.000000 0.8025 0.8000 0.7969 0.7938 0.7906
1596.000000 0.7875 0.7831 0.7785 0.7739 0.7693
1601.000000 0.7639 0.7585 0.7530 0.7466 0.7416
1606.000000 0.7399 0.7382 0.7356 0.7317 0.7267
1611.000000 0.7206 0.7213 0.7146 0.7190 0.7229
1616.000000 0.7255 0.7256 0.7259 0.7302 0.7346
1621.000000 0.7388 0.7430 0.7491 0.7556 0.7624
1626.000000 0.7671 0.7706 0.7742 0.7778 0.7817
1631.000000 0.7858 0.7899 0.7944 0.7995 0.8047
1636.000000 0.8108 0.8176 0.8265 0.8278 0.8298
1641.000000 0.8278 0.8278 0.8278 0.8278 0.8278
1646.000000 0.8278 0.8278 0.8278 0.8278 0.8278
1651.000000 0.8278 0.8277 0.8277 0.8277 0.8277
1656.000000 0.8277 0.8277 0.8277 0.8277 0.8277
1661.000000 0.8277 0.8277 0.8277 0.8277 0.8277
1666.000000 0.8276 0.8276 0.8276 0.8276 0.8276
1671.000000 0.8276 0.8276 0.8276 0.8276 0.8276
1676.000000 0.8277 0.8281 0.8285 0.8289 0.8291
1681.000000 0.8291 0.8291 0.8291 0.8291 0.8292
1686.000000 0.8294 0.8296 0.8298 0.8300 0.8302
1691.000000 0.8305 0.8308 0.8312 0.8315 0.8319
1696.000000 0.8322 0.8326 0.8326 0.8325 0.8324
1701.000000 0.8323 0.8322 0.8321 0.8320 0.8319
1706.000000 0.8318 0.8317 0.8316 0.8313 0.8310
1711.000000 0.8306 0.8303 0.8300 0.8296 0.8293
1716.000000 0.8290 0.8286 0.8282 0.8278 0.8274
1721.000000 0.8270 0.8267 0.8263 0.8260 0.8257
1726.000000 0.8254 0.8252 0.8250 0.8249 0.8247
1731.000000 0.8245 0.8244 0.8242 0.8240 0.8239
1736.000000 0.8239 0.8240 0.8241 0.8241 0.8242
1741.000000 0.8242 0.8244 0.8255 0.8271 0.8289
1746.000000 0.8307 0.8312 0.8316 0.8320 0.8320
1751.000000 0.8320 0.8320 0.8319 0.8317 0.8316
1756.000000 0.8315 0.8314 0.8312 0.8308 0.8303
1761.000000 0.8298 0.8293 0.8289 0.8284 0.8279
1766.000000 0.8274 0.8270 0.8265 0.8260 0.8255
1771.000000 0.8251 0.8246 0.8241 0.8235 0.8227
1776.000000 0.8220 0.8213 0.8205 0.8198 0.8191
1781.000000 0.8183 0.8176 0.8169 0.8161 0.8154
1786.000000 0.8146 0.8139 0.8131 0.8124 0.8116
1791.000000 0.8109 0.8102 0.8095 0.8089 0.8082
1796.000000 0.8076 0.8070 0.8069 0.8068 0.8067
1801.000000 0.8066 0.8059 0.8076 0.8084 0.8093
1806.000000 0.8102 0.8113 0.8113 0.8116 0.8125
1811.000000 0.8133 0.8143 0.8154 0.8166 0.8178
1816.000000 0.8190 0.8202 0.8218 0.8234 0.8250
1821.000000 0.8263 0.8273 0.8275 0.8278 0.8280
1826.000000 0.8281 0.8311 0.8282 0.8283 0.8283
1831.000000 0.8284 0.8280 0.8276 0.8272 0.8268
1836.000000 0.8264 0.8259 0.8252 0.8245 0.8238
1841.000000 0.8231 0.8222 0.8212 0.8201 0.8191
1846.000000 0.8181 0.8170 0.8159 0.8148 0.8143
1851.000000 0.8148 0.8153 0.8156 0.8159 0.8155
1856.000000 0.8139 0.8119 0.8096 0.8074 0.8058
1861.000000 0.8048 0.8038 0.8036 0.8029 0.8064
1866.000000 0.8077 0.8090 0.8103 0.8116 0.8129
1871.000000 0.8141 0.8154 0.8159 0.8162 0.8165
1876.000000 0.8169 0.8173 0.8176 0.8187 0.8199
1881.000000 0.8211 0.8224 0.8236 0.8251 0.8267
1886.000000 0.8280 0.8287 0.8295 0.8302 0.8308
1891.000000 0.8313 0.8314 0.8315 0.8316 0.8318
1896.000000 0.8319 0.8344 0.8320 0.8320 0.8319
1901.000000 0.8318 0.8318 0.8317 0.8316 0.8315
1906.000000 0.8313 0.8312 0.8311 0.8310 0.8307
1911.000000 0.8304 0.8301 0.8299 0.8296 0.8293
1916.000000 0.8290 0.8286 0.8282 0.8277 0.8273
1921.000000 0.8269 0.8264 0.8260 0.8246 0.8233
1926.000000 0.8219 0.8206 0.8195 0.8183 0.8172
1931.000000 0.8161 0.8150 0.8139 0.8129 0.8119
1936.000000 0.8109 0.8112 0.8119 0.8124 0.8122
1941.000000 0.8117 0.8103 0.8078 0.8052 0.8032
1946.000000 0.8020 0.8016 0.8030 0.8040 0.8051
1951.000000 0.8062 0.8076 0.8091 0.8106 0.8121
1956.000000 0.8137 0.8155 0.8173 0.8187 0.8200
1961.000000 0.8213 0.8226 0.8239 0.8251 0.8264
1966.000000 0.8271 0.8275 0.8281 0.8288 0.8302
1971.000000 0.8315 0.8329 0.8343 0.8360 0.8378
1976.000000 0.8385 0.8389 0.8393 0.8391 0.8389
1981.000000 0.8388 0.8387 0.8386 0.8384 0.8383
1986.000000 0.8381 0.8379 0.8378 0.8378 0.8378
1991.000000 0.8378 0.8378 0.8378 0.8378 0.8378
1996.000000 0.8379 0.8380 0.8381 0.8382 0.8384
2001.000000 0.8385 0.8386 0.8386 0.8387 0.8387
2006.000000 0.8388 0.8388 0.8389 0.8389 0.8390
2011.000000 0.8390 0.8391 0.8391 0.8391 0.8391
2016.000000 0.8392 0.8392 0.8393 0.8393 0.8394
2021.000000 0.8394 0.8394 0.8394 0.8394 0.8394
2026.000000 0.8394 0.8394 0.8394 0.8394 0.8394
2031.000000 0.8394 0.8394 0.8394 0.8394 0.8393
2036.000000 0.8393 0.8392 0.8392 0.8392 0.8392
2041.000000 0.8391 0.8391 0.8390 0.8390 0.8391
2046.000000 0.8392 0.8393 0.8394 0.8394 0.8395
2051.000000 0.8396 0.8397 0.8397 0.8398 0.8399
2056.000000 0.8400 0.8400 0.8401 0.8401 0.8402
2061.000000 0.8403 0.8404 0.8404 0.8405 0.8405
2066.000000 0.8406 0.8406 0.8407 0.8407 0.8408
2071.000000 0.8408 0.8409 0.8409 0.8410 0.8410
2076.000000 0.8411 0.8411 0.8412 0.8412 0.8413
2081.000000 0.8413 0.8414 0.8414 0.8415 0.8415
2086.000000 0.8416 0.8416 0.8417 0.8417 0.8418
2091.000000 0.8418 0.8419 0.8419 0.8420 0.8421
2096.000000 0.8422 0.8422 0.8423 0.8423 0.8424
2101.000000 0.8424 0.8425 0.8425 0.8426 0.8426
2106.000000 0.8427 0.8428 0.8429 0.8429 0.8430
2111.000000 0.8430 0.8431 0.8431 0.8432 0.8432
2116.000000 0.8433 0.8434 0.8435 0.8435 0.8436
2121.000000 0.8436 0.8437 0.8437 0.8438 0.8438
2126.000000 0.8439 0.8439 0.8440 0.8441 0.8442
2131.000000 0.8442 0.8443 0.8443 0.8444 0.8444
2136.000000 0.8445 0.8445 0.8446 0.8446 0.8447
2141.000000 0.8447 0.8448 0.8448 0.8449 0.8450
2146.000000 0.8451 0.8451 0.8451 0.8451 0.8452
2151.000000 0.8452 0.8453 0.8453 0.8454 0.8454
2156.000000 0.8455 0.8455 0.8456 0.8456 0.8457
2161.000000 0.8457 0.8458 0.8458 0.8459 0.8459
2166.000000 0.8460 0.8460 0.8461 0.8462 0.8463
2171.000000 0.8464 0.8466 0.8467 0.8469 0.8470
2176.000000 0.8471 0.8472 0.8474 0.8475 0.8477
2181.000000 0.8478 0.8480 0.8481 0.8483 0.8484
2186.000000 0.8486 0.8487 0.8488 0.8489 0.8490
2191.000000 0.8490 0.8491 0.8492 0.8493 0.8494
2196.000000 0.8495 0.8496 0.8497 0.8498 0.8499
2201.000000 0.8500 0.8501 0.8501 0.8502 0.8502
2206.000000 0.8502 0.8502 0.8503 0.8503 0.8503
2211.000000 0.8503 0.8504 0.8504 0.8504 0.8504
2216.000000 0.8505 0.8505 0.8505 0.8505 0.8506
2221.000000 0.8506 0.8506 0.8506 0.8507 0.8507
2226.000000 0.8507 0.8507 0.8508 0.8508 0.8508
2231.000000 0.8508 0.8509 0.8509 0.8509 0.8509
2236.000000 0.8510 0.8510 0.8511 0.8511 0.8512
2241.000000 0.8512 0.8513 0.8513 0.8514 0.8514
2246.000000 0.8515 0.8515 0.8516 0.8516 0.8517
2251.000000 0.8517 0.8518 0.8518 0.8519 0.8519
2256.000000 0.8520 0.8520 0.8520 0.8521 0.8522
2261.000000 0.8522 0.8523 0.8524 0.8525 0.8526
2266.000000 0.8527 0.8528 0.8529 0.8530 0.8531
2271.000000 0.8532 0.8533 0.8533 0.8534 0.8535
2276.000000 0.8536 0.8537 0.8538 0.8539 0.8540
2281.000000 0.8541 0.8542 0.8543 0.8544 0.8545
2286.000000 0.8546 0.8547 0.8548 0.8549 0.8551
2291.000000 0.8552 0.8553 0.8554 0.8556 0.8557
2296.000000 0.8529 0.8560 0.8561 0.8562 0.8564
2301.000000 0.8565 0.8566 0.8567 0.8569 0.8570
2306.000000 0.8572 0.8573 0.8574 0.8575 0.8577
2311.000000 0.8580 0.8583 0.8585 0.8588 0.8590
2316.000000 0.8593 0.8595 0.8598 0.8600 0.8603
2321.000000 0.8605 0.8608 0.8611 0.8614 0.8617
2326.000000 0.8620 0.8623 0.8626 0.8629 0.8632
2331.000000 0.8634 0.8636 0.8637 0.8639 0.8640
2336.000000 0.8642 0.8640 0.8639 0.8637 0.8636
2341.000000 0.8634 0.8632 0.8630 0.8629 0.8627
2346.000000 0.8626 0.8625 0.8625 0.8624 0.8623
2351.000000 0.8628 0.8634 0.8643 0.8652 0.8661
2356.000000 0.8670 0.8678 0.8686 0.8692 0.8698
2361.000000 0.8700 0.8703 0.8701 0.8699 0.8695
2366.000000 0.8691 0.8687 0.8683 0.8678 0.8674
2371.000000 0.8667 0.8660 0.8653 0.8646 0.8639
2376.000000 0.8633 0.8621 0.8610 0.8600 0.8591
2381.000000 0.8588 0.8586 0.8583 0.8581 0.8578
2386.000000 0.8576 0.8573 0.8571 0.8569 0.8567
2391.000000 0.8565 0.8563 0.8561 0.8559 0.8557
2396.000000 0.8555 0.8555 0.8555 0.8555 0.8556
2401.000000 0.8556 0.8557 0.8557 0.8558 0.8558
2406.000000 0.8559 0.8559 0.8560 0.8560 0.8561
2411.000000 0.8561 0.8562 0.8562 0.8562 0.8562
2416.000000 0.8562 0.8562 0.8562 0.8562 0.8562
2421.000000 0.8562 0.8562 0.8562 0.8562 0.8562
2426.000000 0.8562 0.8562 0.8563 0.8563 0.8564
2431.000000 0.8564 0.8565 0.8566 0.8567 0.8567
2436.000000 0.8568 0.8568 0.8569 0.8569 0.8570
2441.000000 0.8570 0.8571 0.8571 0.8572 0.8572
2446.000000 0.8573 0.8573 0.8573 0.8573 0.8574
2451.000000 0.8574 0.8575 0.8575 0.8576 0.8576
2456.000000 0.8577 0.8577 0.8578 0.8578 0.8578
2461.000000 0.8578 0.8578 0.8578 0.8578 0.8578
2466.000000 0.8578 0.8577 0.8577 0.8577 0.8577
2471.000000 0.8576 0.8576 0.8576 0.8576 0.8575
2476.000000 0.8575 0.8575 0.8575 0.8575 0.8575
2481.000000 0.8575 0.8576 0.8576 0.8577 0.8577
2486.000000 0.8578 0.8578 0.8579 0.8579 0.8580
2491.000000 0.8580 0.8581 0.8581 0.8582 0.8582
2496.000000 0.8583 0.8584 0.8585 0.8585 0.8586
2501.000000 0.8587 0.8588 0.8588 0.8589 0.8589
2506.000000 0.8590 0.8590 0.8591 0.8591 0.8592
2511.000000 0.8592 0.8592 0.8592 0.8593 0.8593
2516.000000 0.8594 0.8594 0.8594 0.8594 0.8595
2521.000000 0.8595 0.8595 0.8595 0.8596 0.8596
2526.000000 0.8596 0.8596 0.8597 0.8597 0.8597
2531.000000 0.8597 0.8598 0.8598 0.8598 0.8598
2536.000000 0.8599 0.8598 0.8598 0.8597 0.8597
2541.000000 0.8596 0.8596 0.8595 0.8595 0.8594
2546.000000 0.8594 0.8593 0.8593 0.8592 0.8591
2551.000000 0.8590 0.8590 0.8589 0.8589 0.8588
2556.000000 0.8587 0.8586 0.8585 0.8584 0.8584
2561.000000 0.8583 0.8582 0.8581 0.8581 0.8580
2566.000000 0.8579 0.8578 0.8577 0.8576 0.8576
2571.000000 0.8575 0.8574 0.8573 0.8573 0.8572
2576.000000 0.8572 0.8571 0.8571 0.8571 0.8571
2581.000000 0.8570 0.8570 0.8570 0.8570 0.8570
2586.000000 0.8570 0.8569 0.8569 0.8569 0.8569
2591.000000 0.8569 0.8570 0.8570 0.8571 0.8571
2596.000000 0.8572 0.8572 0.8573 0.8573 0.8574
2601.000000 0.8575 0.8576 0.8577 0.8578 0.8581
2606.000000 0.8584 0.8586 0.8589 0.8591 0.8593
2611.000000 0.8594 0.8595 0.8596 0.8597 0.8598
2616.000000 0.8599 0.8600 0.8601 0.8602 0.8603
2621.000000 0.8604 0.8606 0.8607 0.8609 0.8610
2626.000000 0.8612 0.8613 0.8615 0.8616 0.8618
2631.000000 0.8619 0.8620 0.8621 0.8623 0.8624
2636.000000 0.8626 0.8627 0.8628 0.8628 0.8629
2641.000000 0.8629 0.8630 0.8630 0.8630 0.8630
2646.000000 0.8631 0.8631 0.8632 0.8632 0.8633
2651.000000 0.8633 0.8634 0.8634 0.8635 0.8635
2656.000000 0.8635 0.8635 0.8635 0.8635 0.8635
2661.000000 0.8635 0.8635 0.8635 0.8635 0.8635
2666.000000 0.8635 0.8635 0.8635 0.8635 0.8636
2671.000000 0.8635 0.8635 0.8635 0.8635 0.8634
2676.000000 0.8634 0.8633 0.8633 0.8632 0.8632
2681.000000 0.8632 0.8632 0.8631 0.8631 0.8630
2686.000000 0.8630 0.8629 0.8629 0.8629 0.8629
2691.000000 0.8628 0.8628 0.8626 0.8625 0.8623
2696.000000 0.8622 0.8621 0.8620 0.8618 0.8617
2701.000000 0.8615 0.8614 0.8612 0.8611 0.8609
2706.000000 0.8608 0.8606 0.8605 0.8604 0.8603
2711.000000 0.8600 0.8598 0.8595 0.8593 0.8590
2716.000000 0.8587 0.8584 0.8581 0.8578 0.8576
2721.000000 0.8571 0.8567 0.8562 0.8558 0.8553
2726.000000 0.8549 0.8544 0.8540 0.8536 0.8532
2731.000000 0.8528 0.8525 0.8521 0.8518 0.8514
2736.000000 0.8511 0.8508 0.8505 0.8502 0.8500
2741.000000 0.8499 0.8498 0.8496 0.8495 0.8494
2746.000000 0.8494 0.8495 0.8496 0.8498 0.8501
2751.000000 0.8505 0.8510 0.8514 0.8519 0.8526
2756.000000 0.8533 0.8540 0.8547 0.8555 0.8563
2761.000000 0.8571 0.8579 0.8587 0.8596 0.8601
2766.000000 0.8607 0.8612 0.8618 0.8622 0.8627
2771.000000 0.8631 0.8635 0.8638 0.8641 0.8642
2776.000000 0.8643 0.8643 0.8644 0.8643 0.8642
2781.000000 0.8640 0.8639 0.8638 0.8637 0.8635
2786.000000 0.8634 0.8633 0.8633 0.8632 0.8632
2791.000000 0.8631 0.8631 0.8630 0.8630 0.8629
2796.000000 0.8628 0.8626 0.8624 0.8622 0.8621
2801.000000 0.8619 0.8617 0.8614 0.8612 0.8608
2806.000000 0.8605 0.8601 0.8597 0.8593 0.8590
2811.000000 0.8586 0.8582 0.8578 0.8575 0.8571
2816.000000 0.8567 0.8563 0.8560 0.8556 0.8553
2821.000000 0.8549 0.8545 0.8541 0.8538 0.8534
2826.000000 0.8531 0.8527 0.8524 0.8520 0.8517
2831.000000 0.8513 0.8510 0.8506 0.8502 0.8498
2836.000000 0.8495 0.8491 0.8488 0.8485 0.8483
2841.000000 0.8481 0.8479 0.8477 0.8475 0.8473
2846.000000 0.8471 0.8468 0.8465 0.8429 0.8393
2851.000000 0.8364 0.8335 0.8309 0.8283 0.8253
2856.000000 0.8223 0.8191 0.8159 0.8128 0.8098
2861.000000 0.8068 0.8039 0.8007 0.7975 0.7933
2866.000000 0.7891 0.7845 0.7799 0.7748 0.7697
2871.000000 0.7639 0.7581 0.7534 0.7488 0.7442
2876.000000 0.7396 0.7349 0.7303 0.7271 0.7239
2881.000000 0.7216 0.7194 0.7193 0.7193 0.7198
2886.000000 0.7204 0.7215 0.7226 0.7246 0.7267
2891.000000 0.7295 0.7323 0.7365 0.7408 0.7454
2896.000000 0.7501 0.7546 0.7591 0.7640 0.7690
2901.000000 0.7716 0.7742 0.7743 0.7733 0.7741
2906.000000 0.7738 0.7734 0.7730 0.7724 0.7719
2911.000000 0.7705 0.7692 0.7673 0.7654 0.7623
2916.000000 0.7593 0.7496 0.7400 0.7238 0.7076
2921.000000 0.6910 0.6745 0.6661 0.6578 0.6500
2926.000000 0.6422 0.6363 0.6304 0.6269 0.6235
2931.000000 0.6213 0.6191 0.6182 0.6173 0.6169
2936.000000 0.6154 0.6166 0.6167 0.6174 0.6181
2941.000000 0.6196 0.6211 0.6242 0.6273 0.6339
2946.000000 0.6406 0.6466 0.6527 0.6662 0.6797
2951.000000 0.6897 0.6997 0.7053 0.7109 0.7170
2956.000000 0.7231 0.7271 0.7311 0.7343 0.7376
2961.000000 0.7410 0.7444 0.7476 0.7508 0.7538
2966.000000 0.7568 0.7591 0.7615 0.7635 0.7655
2971.000000 0.7667 0.7679 0.7679 0.7680 0.7674
2976.000000 0.7680 0.7654 0.7641 0.7628 0.7616
2981.000000 0.7602 0.7589 0.7575 0.7561 0.7546
2986.000000 0.7532 0.7515 0.7499 0.7480 0.7461
2991.000000 0.7442 0.7423 0.7400 0.7378 0.7356
2996.000000 0.7334 0.7305 0.7277 0.7248 0.7219
3001.000000 0.7187 0.7155 0.7120 0.7086 0.7057
3006.000000 0.7029 0.7000 0.6972 0.6949 0.6926
3011.000000 0.6903 0.6881 0.6856 0.6831 0.6803
3016.000000 0.6775 0.6737 0.6700 0.6638 0.6576
3021.000000 0.6447 0.6319 0.6190 0.6061 0.5932
3026.000000 0.5804 0.5675 0.5547 0.5418 0.5290
3031.000000 0.5161 0.5032 0.4903 0.4775 0.4694
3036.000000 0.4614 0.4611 0.4609 0.4607 0.4603
3041.000000 0.4605 0.4604 0.4603 0.4603 0.4603
3046.000000 0.4603 0.4737 0.4872 0.5046 0.5220
3051.000000 0.5394 0.5568 0.5742 0.5916 0.6090
3056.000000 0.6264 0.6269 0.6275 0.6275 0.6310
3061.000000 0.6272 0.6269 0.6248 0.6228 0.6205
3066.000000 0.6182 0.6159 0.6136 0.6109 0.6083
3071.000000 0.6060 0.6037 0.6012 0.5987 0.5989
3076.000000 0.5991 0.6003 0.5993 0.6026 0.6038
3081.000000 0.6048 0.6059 0.6069 0.6080 0.6092
3086.000000 0.6105 0.6146 0.6187 0.6234 0.6281
3091.000000 0.6355 0.6430 0.6495 0.6560 0.6679
3096.000000 0.6798 0.6892 0.6987 0.7014 0.7041
3101.000000 0.7055 0.7069 0.7083 0.7097 0.7118
3106.000000 0.7139 0.7179 0.7220 0.7295 0.7370
3111.000000 0.7444 0.7518 0.7587 0.7656 0.7694
3116.000000 0.7733 0.7770 0.7807 0.7835 0.7864
3121.000000 0.7892 0.7921 0.7949 0.7978 0.8006
3126.000000 0.8035 0.8064 0.8093 0.8135 0.8177
3131.000000 0.8222 0.8268 0.8303 0.8338 0.8366
3136.000000 0.8394 0.8421 0.8449 0.8469 0.8490
3141.000000 0.8508 0.8526 0.8543 0.8561 0.8566
3146.000000 0.8572 0.8577 0.8582 0.8585 0.8589
3151.000000 0.8592 0.8595 0.8597 0.8599 0.8601
3156.000000 0.8603 0.8605 0.8608 0.8610 0.8612
3161.000000 0.8614 0.8616 0.8617 0.8618 0.8619
3166.000000 0.8620 0.8621 0.8622 0.8622 0.8623
3171.000000 0.8621 0.8619 0.8617 0.8615 0.8612
3176.000000 0.8610 0.8607 0.8605 0.8602 0.8599
3181.000000 0.8598 0.8598 0.8599 0.8601 0.8603
3186.000000 0.8605 0.8606 0.8608 0.8610 0.8613
3191.000000 0.8616 0.8620 0.8623 0.8626 0.8629
3196.000000 0.8632 0.8635 0.8638 0.8641 0.8644
3201.000000 0.8647 0.8651 0.8654 0.8658 0.8661
3206.000000 0.8664 0.8666 0.8668 0.8669 0.8670
3211.000000 0.8671 0.8673 0.8673 0.8674 0.8672
3216.000000 0.8671 0.8670 0.8669 0.8668 0.8667
3221.000000 0.8666 0.8665 0.8663 0.8662 0.8661
3226.000000 0.8660 0.8659 0.8658 0.8657 0.8656
3231.000000 0.8654 0.8653 0.8652 0.8651 0.8651
3236.000000 0.8651 0.8650 0.8650 0.8650 0.8650
3241.000000 0.8649 0.8649 0.8649 0.8649 0.8648
3246.000000 0.8648 0.8648 0.8648 0.8647 0.8647
3251.000000 0.8647 0.8647 0.8646 0.8646 0.8646
3256.000000 0.8646 0.8645 0.8645 0.8645 0.8645
3261.000000 0.8644 0.8644 0.8644 0.8645 0.8645
3266.000000 0.8646 0.8647 0.8648 0.8648 0.8649
3271.000000 0.8649 0.8650 0.8650 0.8651 0.8652
3276.000000 0.8653 0.8653 0.8654 0.8654 0.8655
3281.000000 0.8655 0.8656 0.8657 0.8658 0.8658
3286.000000 0.8659 0.8659 0.8660 0.8660 0.8661
3291.000000 0.8661 0.8662 0.8663 0.8664 0.8664
3296.000000 0.8665 0.8665 0.8666 0.8666 0.8667
3301.000000 0.8668 0.8669 0.8669 0.8670 0.8670
3306.000000 0.8671 0.8671 0.8672 0.8672 0.8673
3311.000000 0.8674 0.8675 0.8675 0.8676 0.8676
3316.000000 0.8677 0.8677 0.8678 0.8679 0.8680
3321.000000 0.8680 0.8681 0.8681 0.8682 0.8682
3326.000000 0.8683 0.8683 0.8684 0.8685 0.8686
3331.000000 0.8686 0.8687 0.8687 0.8688 0.8688
3336.000000 0.8689 0.8689 0.8690 0.8690 0.8691
3341.000000 0.8691 0.8692 0.8692 0.8693 0.8693
3346.000000 0.8694 0.8694 0.8695 0.8695 0.8696
3351.000000 0.8696 0.8697 0.8697 0.8698 0.8698
3356.000000 0.8699 0.8699 0.8700 0.8700 0.8701
3361.000000 0.8701 0.8702 0.8702 0.8703 0.8703
3366.000000 0.8704 0.8704 0.8705 0.8705 0.8706
3371.000000 0.8706 0.8707 0.8707 0.8708 0.8708
3376.000000 0.8709 0.8709 0.8710 0.8710 0.8711
3381.000000 0.8712 0.8713 0.8713 0.8714 0.8715
3386.000000 0.8716 0.8717 0.8718 0.8718 0.8719
3391.000000 0.8720 0.8721 0.8721 0.8722 0.8723
3396.000000 0.8724 0.8725 0.8726 0.8726 0.8727
3401.000000 0.8728 0.8729 0.8729 0.8730 0.8731
3406.000000 0.8732 0.8733 0.8734 0.8734 0.8735
3411.000000 0.8736 0.8737 0.8737 0.8738 0.8739
3416.000000 0.8740 0.8741 0.8742 0.8742 0.8743
3421.000000 0.8743 0.8744 0.8744 0.8745 0.8745
3426.000000 0.8746 0.8746 0.8747 0.8747 0.8748
3431.000000 0.8748 0.8749 0.8749 0.8750 0.8750
3436.000000 0.8751 0.8751 0.8752 0.8752 0.8753
3441.000000 0.8753 0.8754 0.8754 0.8755 0.8755
3446.000000 0.8756 0.8756 0.8757 0.8757 0.8758
3451.000000 0.8758 0.8759 0.8759 0.8760 0.8760
3456.000000 0.8761 0.8761 0.8762 0.8762 0.8763
3461.000000 0.8763 0.8764 0.8764 0.8765 0.8765
3466.000000 0.8766 0.8766 0.8767 0.8767 0.8768
3471.000000 0.8768 0.8768 0.8768 0.8768 0.8768
3476.000000 0.8769 0.8769 0.8769 0.8769 0.8769
3481.000000 0.8769 0.8770 0.8770 0.8770 0.8770
3486.000000 0.8771 0.8771 0.8771 0.8771 0.8771
3491.000000 0.8771 0.8772 0.8772 0.8772 0.8772
3496.000000 0.8773 0.8773 0.8773 0.8773 0.8773
3501.000000 0.8773 0.8774 0.8774 0.8774 0.8774
3506.000000 0.8752 0.8775 0.8775 0.8775 0.8775
3511.000000 0.8775 0.8775 0.8775 0.8775 0.8775
3516.000000 0.8775 0.8775 0.8775 0.8775 0.8776
3521.000000 0.8776 0.8776 0.8776 0.8776 0.8776
3526.000000 0.8776 0.8776 0.8776 0.8776 0.8776
3531.000000 0.8776 0.8776 0.8776 0.8776 0.8776
3536.000000 0.8776 0.8776 0.8776 0.8776 0.8776
3541.000000 0.8776 0.8776 0.8776 0.8776 0.8776
3546.000000 0.8776 0.8776 0.8776 0.8776 0.8776
3551.000000 0.8776 0.8776 0.8775 0.8775 0.8775
3556.000000 0.8775 0.8774 0.8774 0.8773 0.8773
3561.000000 0.8773 0.8773 0.8772 0.8772 0.8771
3566.000000 0.8771 0.8771 0.8771 0.8770 0.8770
3571.000000 0.8769 0.8769 0.8769 0.8769 0.8768
3576.000000 0.8768 0.8768 0.8768 0.8767 0.8767
3581.000000 0.8766 0.8766 0.8766 0.8766 0.8765
3586.000000 0.8765 0.8764 0.8764 0.8764 0.8764
3591.000000 0.8763 0.8763 0.8762 0.8762 0.8762
3596.000000 0.8762 0.8761 0.8761 0.8760 0.8760
3601.000000 0.8760 0.8760 0.8759 0.8759 0.8759
3606.000000 0.8759 0.8758 0.8758 0.8758 0.8758
3611.000000 0.8757 0.8757 0.8756 0.8756 0.8756
3616.000000 0.8756 0.8755 0.8755 0.8755 0.8755
3621.000000 0.8754 0.8754 0.8754 0.8754 0.8753
3626.000000 0.8753 0.8752 0.8752 0.8752 0.8752
3631.000000 0.8751 0.8751 0.8751 0.8751 0.8750
3636.000000 0.8750 0.8749 0.8749 0.8748 0.8748
3641.000000 0.8747 0.8747 0.8746 0.8746 0.8745
3646.000000 0.8745 0.8744 0.8744 0.8743 0.8743
3651.000000 0.8742 0.8742 0.8741 0.8741 0.8740
3656.000000 0.8740 0.8739 0.8739 0.8738 0.8738
3661.000000 0.8737 0.8737 0.8736 0.8736 0.8735
3666.000000 0.8735 0.8733 0.8732 0.8730 0.8729
3671.000000 0.8727 0.8726 0.8724 0.8723 0.8721
3676.000000 0.8720 0.8718 0.8717 0.8716 0.8715
3681.000000 0.8713 0.8712 0.8712 0.8712 0.8712
3686.000000 0.8712 0.8712 0.8712 0.8712 0.8712
3691.000000 0.8712 0.8712 0.8713 0.8715 0.8716
3696.000000 0.8718 0.8719 0.8720 0.8721 0.8723
3701.000000 0.8723 0.8724 0.8724 0.8725 0.8725
3706.000000 0.8726 0.8726 0.8727 0.8727 0.8728
3711.000000 0.8727 0.8727 0.8727 0.8727 0.8726
3716.000000 0.8726 0.8726 0.8726 0.8725 0.8725
3721.000000 0.8725 0.8725 0.8724 0.8724 0.8724
3726.000000 0.8724 0.8724 0.8724 0.8723 0.8723
3731.000000 0.8723 0.8723 0.8722 0.8722 0.8722
3736.000000 0.8722 0.8722 0.8722 0.8721 0.8721
3741.000000 0.8721 0.8721 0.8720 0.8720 0.8720
3746.000000 0.8720 0.8720 0.8720 0.8719 0.8719
3751.000000 0.8719 0.8719 0.8718 0.8718 0.8718
3756.000000 0.8718 0.8717 0.8717 0.8717 0.8717
3761.000000 0.8718 0.8720 0.8721 0.8722 0.8723
3766.000000 0.8725 0.8726 0.8727 0.8728 0.8729
3771.000000 0.8730 0.8732 0.8733 0.8734 0.8735
3776.000000 0.8737 0.8738 0.8739 0.8740 0.8741
3781.000000 0.8742 0.8744 0.8744 0.8744
##END=
