##TITLE=n-Butyl amine
##JCAMP-DX=4.24
##DATA TYPE=INFRARED SPECTRUM
##CLASS=COBLENTZ
##ORIGIN=DOW CHEMICAL COMPANY
##OWNER=Copyright (C) 1987 by the Coblentz Society
Collection (C) 2018 copyright by the U.S. Secretary of Commerce
on behalf of the United States of America. All rights reserved.
##DATE=1964
##NAMES=butylamine
1-butanamine
BUTANAMINE
##CAS REGISTRY NO=109-73-9
##MOLFORM=C4 H11 N
##SOURCE REFERENCE=COBLENTZ NO. 8806
##$NIST SOURCE=COBLENTZ
##$NIST IMAGE=cob8806
##SPECTROMETER/DATA SYSTEM=DOW KBr FOREPRISM-GRATING
##INSTRUMENT PARAMETERS=GRATING CHANGED AT 5.0, 7.5, 15.0 MICRON
##STATE=GAS (40 mmHg, N2 ADDED, TOTAL PRESSURE 600 mmHg)
##PATH LENGTH=5 CM
##SAMPLING PROCEDURE=TRANSMISSION
##RESOLUTION=2
##DATA PROCESSING=DIGITIZED BY COBLENTZ SOCIETY (BATCH II) FROM HARD COPY
##XUNITS=1/CM
##YUNITS=TRANSMITTANCE
##XFACTOR=1.0
##YFACTOR=1
##FIRSTX=463
##LASTX=3786
##FIRSTY=0.8273
##MAXX=3786
##MINX=463
##MAXY=0.8947
##MINY=0.0765
##NPOINTS=3324
##XYDATA=(X++(Y..Y))
463.000000 0.8273 0.8267 0.8262 0.8255 0.8248
468.000000 0.8241 0.8234 0.8227 0.8220 0.8211
473.000000 0.8203 0.8195 0.8187 0.8178 0.8168
478.000000 0.8159 0.8149 0.8140 0.8130 0.8121
483.000000 0.8111 0.8102 0.8095 0.8087 0.8080
488.000000 0.8072 0.8065 0.8058 0.8050 0.8043
493.000000 0.8036 0.8028 0.8021 0.8017 0.8017
498.000000 0.8017 0.8018 0.8021 0.8024 0.8028
503.000000 0.8031 0.8034 0.8039 0.8047 0.8055
508.000000 0.8063 0.8071 0.8079 0.8090 0.8101
513.000000 0.8115 0.8140 0.8166 0.8192 0.8217
518.000000 0.8238 0.8259 0.8281 0.8301 0.8310
523.000000 0.8318 0.8326 0.8335 0.8340 0.8344
528.000000 0.8348 0.8352 0.8356 0.8360 0.8364
533.000000 0.8368 0.8371 0.8374 0.8377 0.8380
538.000000 0.8383 0.8385 0.8388 0.8391 0.8392
543.000000 0.8393 0.8394 0.8395 0.8396 0.8397
548.000000 0.8398 0.8397 0.8395 0.8393 0.8391
553.000000 0.8389 0.8387 0.8385 0.8383 0.8380
558.000000 0.8380 0.8381 0.8382 0.8383 0.8384
563.000000 0.8384 0.8385 0.8386 0.8387 0.8388
568.000000 0.8387 0.8387 0.8387 0.8387 0.8386
573.000000 0.8386 0.8386 0.8386 0.8385 0.8385
578.000000 0.8415 0.8385 0.8384 0.8385 0.8388
583.000000 0.8391 0.8394 0.8398 0.8401 0.8404
588.000000 0.8407 0.8410 0.8413 0.8416 0.8419
593.000000 0.8422 0.8425 0.8429 0.8433 0.8437
598.000000 0.8441 0.8445 0.8449 0.8453 0.8458
603.000000 0.8462 0.8466 0.8470 0.8474 0.8478
608.000000 0.8482 0.8486 0.8489 0.8488 0.8486
613.000000 0.8485 0.8483 0.8481 0.8480 0.8478
618.000000 0.8477 0.8475 0.8473 0.8470 0.8467
623.000000 0.8464 0.8461 0.8458 0.8455 0.8452
628.000000 0.8449 0.8446 0.8443 0.8441 0.8438
633.000000 0.8434 0.8430 0.8426 0.8422 0.8418
638.000000 0.8414 0.8410 0.8406 0.8402 0.8398
643.000000 0.8394 0.8390 0.8386 0.8382 0.8378
648.000000 0.8374 0.8370 0.8366 0.8362 0.8358
653.000000 0.8354 0.8350 0.8346 0.8342 0.8338
658.000000 0.8334 0.8331 0.8327 0.8323 0.8319
663.000000 0.8315 0.8311 0.8308 0.8304 0.8300
668.000000 0.8296 0.8292 0.8289 0.8286 0.8287
673.000000 0.8289 0.8290 0.8291 0.8292 0.8293
678.000000 0.8294 0.8297 0.8300 0.8303 0.8307
683.000000 0.8310 0.8304 0.8298 0.8293 0.8287
688.000000 0.8279 0.8261 0.8243 0.8222 0.8198
693.000000 0.8174 0.8150 0.8125 0.8101 0.8077
698.000000 0.8053 0.8028 0.8004 0.7980 0.7956
703.000000 0.7929 0.7900 0.7871 0.7842 0.7813
708.000000 0.7784 0.7756 0.7727 0.7698 0.7665
713.000000 0.7629 0.7593 0.7557 0.7521 0.7485
718.000000 0.7449 0.7413 0.7372 0.7324 0.7276
723.000000 0.7229 0.7181 0.7133 0.7086 0.7029
728.000000 0.6955 0.6881 0.6806 0.6732 0.6651
733.000000 0.6564 0.6476 0.6386 0.6272 0.6159
738.000000 0.6052 0.5952 0.5851 0.5732 0.5606
743.000000 0.5479 0.5353 0.5226 0.5100 0.4973
748.000000 0.4847 0.4720 0.4594 0.4468 0.4341
753.000000 0.4215 0.4088 0.3962 0.3835 0.3709
758.000000 0.3582 0.3456 0.3354 0.3242 0.3119
763.000000 0.2861 0.2679 0.2553 0.2468 0.2384
768.000000 0.2296 0.2206 0.2124 0.2048 0.1993
773.000000 0.1955 0.1916 0.1893 0.1876 0.1859
778.000000 0.1841 0.1830 0.1830 0.1813 0.1843
783.000000 0.1865 0.1911 0.2010 0.2108 0.2207
788.000000 0.2291 0.2349 0.2416 0.2489 0.2552
793.000000 0.2611 0.2679 0.2754 0.2834 0.2926
798.000000 0.3022 0.3126 0.3249 0.3478 0.3704
803.000000 0.4205 0.4410 0.4526 0.4626 0.4727
808.000000 0.4811 0.4883 0.4954 0.5026 0.5097
813.000000 0.5192 0.5305 0.5419 0.5523 0.5596
818.000000 0.5670 0.5743 0.5816 0.5886 0.5944
823.000000 0.6002 0.6060 0.6127 0.6199 0.6271
828.000000 0.6332 0.6383 0.6435 0.6487 0.6589
833.000000 0.6712 0.6878 0.7061 0.7205 0.7278
838.000000 0.7327 0.7377 0.7427 0.7472 0.7508
843.000000 0.7544 0.7580 0.7603 0.7626 0.7648
848.000000 0.7671 0.7694 0.7717 0.7740 0.7762
853.000000 0.7785 0.7808 0.7831 0.7847 0.7862
858.000000 0.7878 0.7894 0.7908 0.7922 0.7936
863.000000 0.7950 0.7962 0.7972 0.7982 0.7993
868.000000 0.8003 0.8013 0.8023 0.8034 0.8048
873.000000 0.8061 0.8075 0.8086 0.8096 0.8106
878.000000 0.8116 0.8127 0.8138 0.8150 0.8161
883.000000 0.8173 0.8185 0.8196 0.8198 0.8201
888.000000 0.8203 0.8206 0.8208 0.8211 0.8213
893.000000 0.8214 0.8216 0.8218 0.8218 0.8216
898.000000 0.8213 0.8210 0.8207 0.8205 0.8200
903.000000 0.8193 0.8187 0.8180 0.8174 0.8167
908.000000 0.8171 0.8186 0.8202 0.8214 0.8225
913.000000 0.8235 0.8245 0.8256 0.8269 0.8282
918.000000 0.8294 0.8302 0.8308 0.8315 0.8315
923.000000 0.8314 0.8312 0.8310 0.8304 0.8295
928.000000 0.8285 0.8274 0.8263 0.8252 0.8240
933.000000 0.8229 0.8210 0.8205 0.8213 0.8238
938.000000 0.8274 0.8299 0.8303 0.8298 0.8291
943.000000 0.8285 0.8279 0.8273 0.8267 0.8259
948.000000 0.8252 0.8245 0.8236 0.8227 0.8217
953.000000 0.8208 0.8198 0.8188 0.8179 0.8170
958.000000 0.8161 0.8153 0.8144 0.8135 0.8127
963.000000 0.8118 0.8109 0.8101 0.8094 0.8088
968.000000 0.8081 0.8074 0.8067 0.8062 0.8058
973.000000 0.8057 0.8088 0.8148 0.8200 0.8244
978.000000 0.8282 0.8317 0.8351 0.8381 0.8398
983.000000 0.8414 0.8431 0.8447 0.8456 0.8465
988.000000 0.8474 0.8483 0.8489 0.8488 0.8488
993.000000 0.8487 0.8487 0.8486 0.8484 0.8481
998.000000 0.8478 0.8475 0.8472 0.8468 0.8465
1003.000000 0.8461 0.8455 0.8448 0.8441 0.8434
1008.000000 0.8494 0.8422 0.8419 0.8416 0.8413
1013.000000 0.8410 0.8409 0.8411 0.8413 0.8415
1018.000000 0.8416 0.8414 0.8411 0.8409 0.8401
1023.000000 0.8393 0.8385 0.8377 0.8367 0.8356
1028.000000 0.8346 0.8336 0.8328 0.8329 0.8330
1033.000000 0.8331 0.8331 0.8330 0.8329 0.8326
1038.000000 0.8317 0.8309 0.8300 0.8292 0.8278
1043.000000 0.8262 0.8246 0.8230 0.8214 0.8195
1048.000000 0.8171 0.8147 0.8122 0.8098 0.8074
1053.000000 0.8051 0.8028 0.8005 0.7981 0.7958
1058.000000 0.7935 0.7912 0.7884 0.7851 0.7818
1063.000000 0.7784 0.7751 0.7718 0.7685 0.7651
1068.000000 0.7618 0.7576 0.7530 0.7484 0.7437
1073.000000 0.7391 0.7345 0.7301 0.7261 0.7220
1078.000000 0.7180 0.7139 0.7099 0.7055 0.7010
1083.000000 0.6965 0.6919 0.6878 0.6842 0.6830
1088.000000 0.6826 0.6844 0.6830 0.6836 0.6843
1093.000000 0.6852 0.6862 0.6874 0.6889 0.6917
1098.000000 0.6951 0.6985 0.7044 0.7106 0.7152
1103.000000 0.7198 0.7244 0.7315 0.7376 0.7436
1108.000000 0.7491 0.7547 0.7603 0.7659 0.7723
1113.000000 0.7789 0.7855 0.7900 0.7938 0.7975
1118.000000 0.8012 0.8045 0.8078 0.8110 0.8130
1123.000000 0.8149 0.8168 0.8188 0.8207 0.8226
1128.000000 0.8243 0.8259 0.8274 0.8289 0.8305
1133.000000 0.8320 0.8336 0.8351 0.8365 0.8378
1138.000000 0.8391 0.8405 0.8418 0.8432 0.8445
1143.000000 0.8459 0.8472 0.8488 0.8505 0.8522
1148.000000 0.8538 0.8555 0.8572 0.8588 0.8605
1153.000000 0.8620 0.8633 0.8646 0.8659 0.8672
1158.000000 0.8685 0.8698 0.8711 0.8723 0.8731
1163.000000 0.8739 0.8747 0.8754 0.8762 0.8764
1168.000000 0.8765 0.8767 0.8769 0.8770 0.8770
1173.000000 0.8770 0.8770 0.8770 0.8770 0.8768
1178.000000 0.8765 0.8762 0.8760 0.8757 0.8754
1183.000000 0.8752 0.8751 0.8751 0.8751 0.8756
1188.000000 0.8776 0.8795 0.8810 0.8825 0.8837
1193.000000 0.8842 0.8846 0.8850 0.8853 0.8854
1198.000000 0.8855 0.8856 0.8875 0.8855 0.8854
1203.000000 0.8853 0.8853 0.8852 0.8851 0.8850
1208.000000 0.8850 0.8849 0.8849 0.8849 0.8849
1213.000000 0.8849 0.8849 0.8849 0.8849 0.8847
1218.000000 0.8844 0.8841 0.8835 0.8829 0.8822
1223.000000 0.8816 0.8810 0.8802 0.8793 0.8783
1228.000000 0.8774 0.8762 0.8750 0.8737 0.8725
1233.000000 0.8713 0.8700 0.8688 0.8675 0.8662
1238.000000 0.8647 0.8632 0.8617 0.8602 0.8587
1243.000000 0.8572 0.8558 0.8543 0.8528 0.8513
1248.000000 0.8509 0.8505 0.8501 0.8497 0.8493
1253.000000 0.8489 0.8485 0.8482 0.8486 0.8490
1258.000000 0.8494 0.8499 0.8503 0.8506 0.8508
1263.000000 0.8509 0.8511 0.8513 0.8515 0.8516
1268.000000 0.8519 0.8523 0.8526 0.8529 0.8533
1273.000000 0.8536 0.8540 0.8543 0.8545 0.8547
1278.000000 0.8549 0.8551 0.8548 0.8543 0.8538
1283.000000 0.8532 0.8524 0.8516 0.8508 0.8500
1288.000000 0.8492 0.8484 0.8477 0.8467 0.8456
1293.000000 0.8445 0.8435 0.8424 0.8413 0.8403
1298.000000 0.8392 0.8381 0.8371 0.8362 0.8352
1303.000000 0.8342 0.8332 0.8322 0.8312 0.8302
1308.000000 0.8292 0.8283 0.8274 0.8273 0.8272
1313.000000 0.8271 0.8271 0.8270 0.8275 0.8280
1318.000000 0.8284 0.8289 0.8294 0.8298 0.8303
1323.000000 0.8307 0.8311 0.8316 0.8320 0.8324
1328.000000 0.8327 0.8331 0.8334 0.8338 0.8339
1333.000000 0.8333 0.8328 0.8318 0.8302 0.8286
1338.000000 0.8270 0.8254 0.8238 0.8219 0.8200
1343.000000 0.8181 0.8162 0.8143 0.8125 0.8106
1348.000000 0.8088 0.8069 0.8050 0.8031 0.8008
1353.000000 0.7984 0.7961 0.7937 0.7914 0.7890
1358.000000 0.7867 0.7842 0.7817 0.7792 0.7767
1363.000000 0.7742 0.7708 0.7671 0.7653 0.7641
1368.000000 0.7638 0.7637 0.7636 0.7636 0.7636
1373.000000 0.7608 0.7539 0.7462 0.7365 0.7271
1378.000000 0.7186 0.7112 0.7039 0.6968 0.6905
1383.000000 0.6842 0.6788 0.6746 0.6704 0.6661
1388.000000 0.6615 0.6554 0.6499 0.6470 0.6454
1393.000000 0.6475 0.6492 0.6512 0.6533 0.6568
1398.000000 0.6602 0.6636 0.6665 0.6695 0.6764
1403.000000 0.6964 0.7051 0.7138 0.7249 0.7404
1408.000000 0.7493 0.7563 0.7600 0.7636 0.7672
1413.000000 0.7738 0.7815 0.7945 0.8073 0.8121
1418.000000 0.8150 0.8161 0.8164 0.8165 0.8136
1423.000000 0.8018 0.7899 0.7858 0.7847 0.8052
1428.000000 0.8134 0.8131 0.8161 0.8104 0.8078
1433.000000 0.8050 0.8013 0.7982 0.7956 0.7929
1438.000000 0.7903 0.7872 0.7834 0.7758 0.7404
1443.000000 0.7378 0.7436 0.7508 0.7525 0.7502
1448.000000 0.7461 0.7394 0.7328 0.7224 0.7155
1453.000000 0.7081 0.7003 0.6937 0.6877 0.6828
1458.000000 0.6779 0.6740 0.6700 0.6474 0.5987
1463.000000 0.5998 0.6228 0.6331 0.6328 0.6283
1468.000000 0.6351 0.6188 0.6140 0.6126 0.6115
1473.000000 0.6278 0.6351 0.6348 0.6371 0.6187
1478.000000 0.6146 0.6172 0.6271 0.6371 0.6469
1483.000000 0.6535 0.6601 0.6667 0.6732 0.6794
1488.000000 0.6856 0.6912 0.6957 0.7002 0.7047
1493.000000 0.7084 0.7116 0.7149 0.7183 0.7320
1498.000000 0.7390 0.7620 0.7687 0.7730 0.7762
1503.000000 0.7785 0.7804 0.7833 0.8017 0.8113
1508.000000 0.8130 0.8147 0.8035 0.7788 0.7541
1513.000000 0.7295 0.7294 0.7478 0.7792 0.8106
1518.000000 0.8246 0.8264 0.8280 0.8315 0.8280
1523.000000 0.8176 0.8005 0.7833 0.7662 0.7590
1528.000000 0.7648 0.7789 0.7958 0.8126 0.8248
1533.000000 0.8279 0.8311 0.8331 0.8417 0.8456
1538.000000 0.8326 0.8196 0.8067 0.8020 0.8055
1543.000000 0.8196 0.8338 0.8451 0.7474 0.7581
1548.000000 0.7698 0.7816 0.7933 0.8050 0.8168
1553.000000 0.8254 0.8323 0.8354 0.8369 0.8375
1558.000000 0.8380 0.8372 0.8349 0.8312 0.8281
1563.000000 0.8249 0.7219 0.7101 0.7102 0.7532
1568.000000 0.7882 0.8232 0.8300 0.8295 0.8316
1573.000000 0.8156 0.8020 0.7885 0.7863 0.7999
1578.000000 0.8191 0.8289 0.8293 0.8285 0.7822
1583.000000 0.7448 0.7591 0.7995 0.8185 0.8172
1588.000000 0.8155 0.8129 0.8103 0.8074 0.8044
1593.000000 0.8014 0.7982 0.7949 0.7917 0.7884
1598.000000 0.7850 0.7806 0.7762 0.7714 0.7664
1603.000000 0.7612 0.7544 0.7476 0.7411 0.7351
1608.000000 0.7290 0.7229 0.7164 0.7094 0.7024
1613.000000 0.6906 0.6790 0.6690 0.6589 0.6490
1618.000000 0.6392 0.6277 0.6130 0.5735 0.5751
1623.000000 0.5834 0.5963 0.5995 0.5974 0.5937
1628.000000 0.5903 0.5895 0.5924 0.5958 0.6014
1633.000000 0.6142 0.6220 0.6285 0.6334 0.6312
1638.000000 0.6213 0.6114 0.6016 0.5917 0.5910
1643.000000 0.6826 0.7160 0.7267 0.7319 0.7345
1648.000000 0.7370 0.7309 0.7190 0.7070 0.7029
1653.000000 0.7205 0.7730 0.7857 0.7501 0.7116
1658.000000 0.6731 0.6487 0.6846 0.7294 0.7742
1663.000000 0.8039 0.8109 0.8154 0.8173 0.8181
1668.000000 0.8242 0.8324 0.8333 0.8293 0.8253
1673.000000 0.8212 0.8105 0.8112 0.8276 0.8204
1678.000000 0.8141 0.8053 0.7971 0.7941 0.7952
1683.000000 0.8305 0.8379 0.8384 0.8389 0.8384
1688.000000 0.8378 0.8031 0.7657 0.7283 0.7304
1693.000000 0.7285 0.8431 0.8482 0.8505 0.8523
1698.000000 0.8526 0.8530 0.8476 0.8160 0.7843
1703.000000 0.7526 0.7223 0.7211 0.7399 0.7858
1708.000000 0.8311 0.8387 0.8432 0.8472 0.8512
1713.000000 0.8538 0.8561 0.8569 0.8547 0.8479
1718.000000 0.8345 0.8194 0.8043 0.7892 0.7770
1723.000000 0.7813 0.7924 0.8222 0.8519 0.8568
1728.000000 0.8566 0.8563 0.8559 0.8547 0.8535
1733.000000 0.8476 0.8313 0.8149 0.7986 0.7823
1738.000000 0.7660 0.7650 0.7708 0.7912 0.8116
1743.000000 0.8320 0.8379 0.8407 0.8441 0.8473
1748.000000 0.8490 0.8481 0.8463 0.8437 0.8390
1753.000000 0.8326 0.8249 0.8260 0.8406 0.8481
1758.000000 0.8547 0.8552 0.8557 0.8555 0.8549
1763.000000 0.8543 0.8537 0.8552 0.8573 0.8591
1768.000000 0.8579 0.8550 0.8510 0.8452 0.8393
1773.000000 0.8329 0.8252 0.8288 0.8365 0.8437
1778.000000 0.8499 0.8561 0.8576 0.8583 0.8590
1783.000000 0.8589 0.8587 0.8586 0.8585 0.8583
1788.000000 0.8580 0.8576 0.8571 0.8565 0.8535
1793.000000 0.8506 0.8476 0.8424 0.8463 0.8502
1798.000000 0.8533 0.8559 0.8576 0.8579 0.8582
1803.000000 0.8585 0.8588 0.8591 0.8593 0.8596
1808.000000 0.8598 0.8601 0.8603 0.8603 0.8603
1813.000000 0.8603 0.8603 0.8601 0.8597 0.8594
1818.000000 0.8591 0.8587 0.8581 0.8575 0.8569
1823.000000 0.8563 0.8557 0.8552 0.8547 0.8542
1828.000000 0.8536 0.8531 0.8550 0.8576 0.8596
1833.000000 0.8617 0.8626 0.8630 0.8634 0.8637
1838.000000 0.8623 0.8609 0.8596 0.8561 0.8517
1843.000000 0.8437 0.8383 0.8359 0.8364 0.8417
1848.000000 0.8492 0.8556 0.8575 0.8591 0.8598
1853.000000 0.8605 0.8611 0.8618 0.8622 0.8625
1858.000000 0.8627 0.8630 0.8630 0.8629 0.8628
1863.000000 0.8623 0.8616 0.8608 0.8601 0.8594
1868.000000 0.8569 0.8539 0.8518 0.8503 0.8489
1873.000000 0.8539 0.8600 0.8644 0.8645 0.8647
1878.000000 0.8649 0.8651 0.8652 0.8654 0.8656
1883.000000 0.8658 0.8660 0.8661 0.8663 0.8665
1888.000000 0.8667 0.8668 0.8670 0.8672 0.8674
1893.000000 0.8675 0.8677 0.8679 0.8681 0.8682
1898.000000 0.8684 0.8686 0.8688 0.8689 0.8691
1903.000000 0.8693 0.8694 0.8695 0.8696 0.8697
1908.000000 0.8698 0.8700 0.8702 0.8704 0.8706
1913.000000 0.8708 0.8709 0.8711 0.8713 0.8714
1918.000000 0.8714 0.8714 0.8714 0.8714 0.8714
1923.000000 0.8714 0.8714 0.8714 0.8714 0.8715
1928.000000 0.8714 0.8714 0.8714 0.8714 0.8714
1933.000000 0.8713 0.8713 0.8713 0.8713 0.8712
1938.000000 0.8712 0.8712 0.8712 0.8711 0.8711
1943.000000 0.8711 0.8710 0.8709 0.8723 0.8707
1948.000000 0.8707 0.8706 0.8705 0.8704 0.8703
1953.000000 0.8702 0.8701 0.8700 0.8699 0.8698
1958.000000 0.8697 0.8697 0.8700 0.8704 0.8707
1963.000000 0.8721 0.8738 0.8752 0.8758 0.8764
1968.000000 0.8769 0.8775 0.8778 0.8778 0.8778
1973.000000 0.8778 0.8778 0.8778 0.8778 0.8778
1978.000000 0.8778 0.8778 0.8778 0.8777 0.8776
1983.000000 0.8775 0.8774 0.8773 0.8772 0.8771
1988.000000 0.8773 0.8776 0.8778 0.8781 0.8784
1993.000000 0.8787 0.8789 0.8792 0.8795 0.8797
1998.000000 0.8800 0.8805 0.8813 0.8821 0.8830
2003.000000 0.8833 0.8836 0.8835 0.8834 0.8832
2008.000000 0.8831 0.8829 0.8828 0.8826 0.8825
2013.000000 0.8824 0.8823 0.8821 0.8820 0.8819
2018.000000 0.8818 0.8817 0.8816 0.8815 0.8814
2023.000000 0.8812 0.8811 0.8810 0.8809 0.8807
2028.000000 0.8806 0.8805 0.8804 0.8803 0.8802
2033.000000 0.8800 0.8799 0.8799 0.8799 0.8799
2038.000000 0.8799 0.8799 0.8799 0.8799 0.8799
2043.000000 0.8799 0.8799 0.8799 0.8799 0.8799
2048.000000 0.8799 0.8799 0.8799 0.8799 0.8799
2053.000000 0.8799 0.8799 0.8799 0.8799 0.8799
2058.000000 0.8799 0.8798 0.8798 0.8798 0.8798
2063.000000 0.8797 0.8797 0.8797 0.8797 0.8797
2068.000000 0.8797 0.8796 0.8796 0.8796 0.8796
2073.000000 0.8796 0.8796 0.8795 0.8795 0.8795
2078.000000 0.8795 0.8795 0.8795 0.8794 0.8794
2083.000000 0.8794 0.8794 0.8794 0.8794 0.8793
2088.000000 0.8793 0.8793 0.8793 0.8793 0.8793
2093.000000 0.8792 0.8792 0.8792 0.8792 0.8792
2098.000000 0.8792 0.8791 0.8791 0.8791 0.8791
2103.000000 0.8790 0.8790 0.8790 0.8790 0.8790
2108.000000 0.8790 0.8789 0.8789 0.8789 0.8789
2113.000000 0.8789 0.8789 0.8788 0.8788 0.8788
2118.000000 0.8789 0.8789 0.8789 0.8789 0.8789
2123.000000 0.8789 0.8790 0.8790 0.8790 0.8790
2128.000000 0.8791 0.8791 0.8791 0.8791 0.8791
2133.000000 0.8791 0.8792 0.8792 0.8792 0.8792
2138.000000 0.8792 0.8792 0.8792 0.8792 0.8792
2143.000000 0.8792 0.8792 0.8792 0.8792 0.8792
2148.000000 0.8793 0.8793 0.8793 0.8793 0.8793
2153.000000 0.8793 0.8793 0.8793 0.8793 0.8793
2158.000000 0.8793 0.8793 0.8793 0.8793 0.8793
2163.000000 0.8793 0.8793 0.8793 0.8793 0.8793
2168.000000 0.8793 0.8793 0.8794 0.8794 0.8795
2173.000000 0.8795 0.8795 0.8795 0.8796 0.8796
2178.000000 0.8797 0.8797 0.8798 0.8798 0.8799
2183.000000 0.8799 0.8800 0.8800 0.8801 0.8801
2188.000000 0.8801 0.8801 0.8802 0.8802 0.8803
2193.000000 0.8803 0.8804 0.8804 0.8805 0.8805
2198.000000 0.8806 0.8806 0.8806 0.8806 0.8807
2203.000000 0.8807 0.8808 0.8808 0.8809 0.8809
2208.000000 0.8810 0.8810 0.8811 0.8811 0.8812
2213.000000 0.8812 0.8812 0.8812 0.8813 0.8813
2218.000000 0.8813 0.8813 0.8813 0.8813 0.8814
2223.000000 0.8814 0.8814 0.8814 0.8814 0.8814
2228.000000 0.8814 0.8814 0.8814 0.8814 0.8814
2233.000000 0.8814 0.8815 0.8815 0.8815 0.8815
2238.000000 0.8815 0.8815 0.8815 0.8815 0.8815
2243.000000 0.8815 0.8816 0.8816 0.8816 0.8816
2248.000000 0.8816 0.8816 0.8816 0.8816 0.8816
2253.000000 0.8816 0.8816 0.8816 0.8817 0.8817
2258.000000 0.8817 0.8817 0.8817 0.8817 0.8817
2263.000000 0.8817 0.8817 0.8817 0.8817 0.8817
2268.000000 0.8818 0.8818 0.8818 0.8818 0.8819
2273.000000 0.8819 0.8819 0.8819 0.8819 0.8819
2278.000000 0.8820 0.8820 0.8820 0.8820 0.8820
2283.000000 0.8820 0.8821 0.8821 0.8821 0.8821
2288.000000 0.8821 0.8821 0.8822 0.8822 0.8822
2293.000000 0.8822 0.8822 0.8822 0.8823 0.8823
2298.000000 0.8823 0.8823 0.8823 0.8823 0.8824
2303.000000 0.8824 0.8824 0.8824 0.8824 0.8824
2308.000000 0.8825 0.8825 0.8825 0.8825 0.8826
2313.000000 0.8826 0.8826 0.8826 0.8826 0.8826
2318.000000 0.8827 0.8827 0.8828 0.8828 0.8828
2323.000000 0.8828 0.8829 0.8829 0.8830 0.8830
2328.000000 0.8830 0.8830 0.8831 0.8831 0.8831
2333.000000 0.8831 0.8832 0.8832 0.8833 0.8833
2338.000000 0.8833 0.8833 0.8834 0.8834 0.8835
2343.000000 0.8835 0.8835 0.8835 0.8836 0.8836
2348.000000 0.8836 0.8836 0.8837 0.8837 0.8838
2353.000000 0.8838 0.8838 0.8838 0.8839 0.8839
2358.000000 0.8839 0.8839 0.8840 0.8840 0.8841
2363.000000 0.8841 0.8841 0.8841 0.8842 0.8841
2368.000000 0.8841 0.8839 0.8838 0.8836 0.8835
2373.000000 0.8833 0.8832 0.8831 0.8830 0.8828
2378.000000 0.8827 0.8825 0.8824 0.8822 0.8821
2383.000000 0.8819 0.8818 0.8817 0.8816 0.8814
2388.000000 0.8813 0.8812 0.8811 0.8811 0.8811
2393.000000 0.8811 0.8811 0.8811 0.8811 0.8811
2398.000000 0.8811 0.8811 0.8811 0.8810 0.8810
2403.000000 0.8810 0.8810 0.8810 0.8810 0.8810
2408.000000 0.8810 0.8810 0.8810 0.8810 0.8810
2413.000000 0.8809 0.8809 0.8809 0.8809 0.8809
2418.000000 0.8809 0.8809 0.8809 0.8809 0.8809
2423.000000 0.8809 0.8809 0.8808 0.8808 0.8809
2428.000000 0.8810 0.8811 0.8812 0.8813 0.8815
2433.000000 0.8816 0.8818 0.8819 0.8821 0.8822
2438.000000 0.8824 0.8825 0.8827 0.8828 0.8830
2443.000000 0.8831 0.8832 0.8833 0.8835 0.8836
2448.000000 0.8838 0.8839 0.8841 0.8842 0.8844
2453.000000 0.8845 0.8847 0.8848 0.8849 0.8850
2458.000000 0.8852 0.8853 0.8855 0.8856 0.8858
2463.000000 0.8859 0.8860 0.8860 0.8861 0.8861
2468.000000 0.8862 0.8862 0.8863 0.8863 0.8864
2473.000000 0.8864 0.8865 0.8865 0.8866 0.8866
2478.000000 0.8867 0.8868 0.8869 0.8869 0.8870
2483.000000 0.8870 0.8871 0.8871 0.8871 0.8871
2488.000000 0.8871 0.8871 0.8871 0.8871 0.8871
2493.000000 0.8871 0.8871 0.8871 0.8871 0.8871
2498.000000 0.8871 0.8871 0.8871 0.8871 0.8871
2503.000000 0.8871 0.8871 0.8870 0.8870 0.8869
2508.000000 0.8868 0.8867 0.8866 0.8865 0.8865
2513.000000 0.8864 0.8863 0.8862 0.8862 0.8861
2518.000000 0.8860 0.8859 0.8858 0.8857 0.8857
2523.000000 0.8856 0.8855 0.8854 0.8853 0.8852
2528.000000 0.8852 0.8851 0.8850 0.8849 0.8848
2533.000000 0.8847 0.8847 0.8846 0.8845 0.8844
2538.000000 0.8843 0.8842 0.8841 0.8840 0.8839
2543.000000 0.8838 0.8837 0.8836 0.8835 0.8834
2548.000000 0.8833 0.8832 0.8832 0.8831 0.8830
2553.000000 0.8829 0.8828 0.8827 0.8826 0.8825
2558.000000 0.8824 0.8823 0.8822 0.8821 0.8820
2563.000000 0.8819 0.8818 0.8816 0.8815 0.8813
2568.000000 0.8811 0.8809 0.8807 0.8804 0.8802
2573.000000 0.8800 0.8798 0.8796 0.8794 0.8792
2578.000000 0.8790 0.8788 0.8786 0.8784 0.8782
2583.000000 0.8780 0.8778 0.8776 0.8774 0.8772
2588.000000 0.8770 0.8768 0.8766 0.8763 0.8761
2593.000000 0.8759 0.8757 0.8755 0.8753 0.8751
2598.000000 0.8749 0.8747 0.8745 0.8743 0.8741
2603.000000 0.8738 0.8735 0.8732 0.8730 0.8727
2608.000000 0.8724 0.8721 0.8718 0.8715 0.8713
2613.000000 0.8710 0.8707 0.8704 0.8702 0.8699
2618.000000 0.8696 0.8693 0.8690 0.8687 0.8685
2623.000000 0.8682 0.8679 0.8676 0.8674 0.8671
2628.000000 0.8668 0.8665 0.8662 0.8659 0.8657
2633.000000 0.8654 0.8651 0.8648 0.8646 0.8643
2638.000000 0.8640 0.8637 0.8634 0.8631 0.8628
2643.000000 0.8623 0.8619 0.8614 0.8609 0.8604
2648.000000 0.8600 0.8595 0.8590 0.8585 0.8581
2653.000000 0.8576 0.8571 0.8566 0.8561 0.8556
2658.000000 0.8552 0.8547 0.8542 0.8537 0.8533
2663.000000 0.8528 0.8523 0.8518 0.8514 0.8509
2668.000000 0.8504 0.8499 0.8494 0.8489 0.8485
2673.000000 0.8480 0.8475 0.8470 0.8466 0.8461
2678.000000 0.8457 0.8452 0.8448 0.8443 0.8439
2683.000000 0.8435 0.8431 0.8426 0.8422 0.8417
2688.000000 0.8413 0.8408 0.8404 0.8399 0.8395
2693.000000 0.8392 0.8389 0.8386 0.8384 0.8381
2698.000000 0.8378 0.8375 0.8373 0.8370 0.8367
2703.000000 0.8364 0.8362 0.8357 0.8353 0.8345
2708.000000 0.8338 0.8330 0.8323 0.8315 0.8308
2713.000000 0.8300 0.8292 0.8284 0.8277 0.8269
2718.000000 0.8262 0.8254 0.8247 0.8237 0.8228
2723.000000 0.8211 0.8195 0.8179 0.8163 0.8146
2728.000000 0.8130 0.8114 0.8098 0.8081 0.8065
2733.000000 0.8048 0.8032 0.8016 0.8000 0.7983
2738.000000 0.7967 0.7952 0.7937 0.7927 0.7917
2743.000000 0.7907 0.7898 0.7891 0.7884 0.7880
2748.000000 0.7877 0.7877 0.7877 0.7878 0.7880
2753.000000 0.7881 0.7867 0.7885 0.7887 0.7892
2758.000000 0.7897 0.7901 0.7906 0.7911 0.7917
2763.000000 0.7924 0.7931 0.7938 0.7945 0.7953
2768.000000 0.7961 0.7970 0.7979 0.7988 0.7998
2773.000000 0.8007 0.8016 0.8024 0.8033 0.8041
2778.000000 0.8050 0.8058 0.8067 0.8075 0.8083
2783.000000 0.8090 0.8097 0.8102 0.8135 0.8105
2788.000000 0.8102 0.8097 0.8092 0.8087 0.8082
2793.000000 0.8072 0.8062 0.8052 0.8042 0.8028
2798.000000 0.8015 0.7999 0.7984 0.7960 0.7937
2803.000000 0.7899 0.7861 0.7819 0.7777 0.7735
2808.000000 0.7694 0.7650 0.7607 0.7563 0.7520
2813.000000 0.7467 0.7415 0.7347 0.7280 0.7209
2818.000000 0.7138 0.7028 0.6919 0.6842 0.6765
2823.000000 0.6705 0.6645 0.6575 0.6505 0.6319
2828.000000 0.6133 0.5947 0.5761 0.5575 0.5390
2833.000000 0.5204 0.5018 0.4832 0.4647 0.4461
2838.000000 0.4275 0.4089 0.3904 0.3718 0.3532
2843.000000 0.3427 0.3322 0.3245 0.3168 0.3109
2848.000000 0.3050 0.2997 0.2945 0.2891 0.2838
2853.000000 0.2780 0.2723 0.2671 0.2619 0.2591
2858.000000 0.2563 0.2534 0.2506 0.2479 0.2453
2863.000000 0.2429 0.2405 0.2381 0.2357 0.2338
2868.000000 0.2320 0.2306 0.2293 0.2279 0.2265
2873.000000 0.2253 0.2219 0.2242 0.2242 0.2242
2878.000000 0.2243 0.2245 0.2248 0.2281 0.2315
2883.000000 0.2351 0.2387 0.2421 0.2456 0.2477
2888.000000 0.2498 0.2519 0.2540 0.2558 0.2577
2893.000000 0.2586 0.2596 0.2605 0.2614 0.2618
2898.000000 0.2623 0.2624 0.2625 0.2589 0.2553
2903.000000 0.2474 0.2696 0.2318 0.2240 0.2161
2908.000000 0.2083 0.2004 0.1926 0.1847 0.1769
2913.000000 0.1656 0.1544 0.1388 0.1232 0.1164
2918.000000 0.1096 0.1053 0.1011 0.0973 0.0935
2923.000000 0.0897 0.0859 0.0842 0.0826 0.0809
2928.000000 0.0793 0.0787 0.0765 0.0780 0.0779
2933.000000 0.0779 0.0780 0.0783 0.0786 0.0789
2938.000000 0.0792 0.0800 0.0809 0.0818 0.0828
2943.000000 0.0838 0.0849 0.0863 0.0878 0.0886
2948.000000 0.0895 0.0896 0.0929 0.0894 0.0892
2953.000000 0.0884 0.0877 0.0868 0.0859 0.0852
2958.000000 0.0845 0.0840 0.0836 0.0833 0.0830
2963.000000 0.0827 0.0824 0.0824 0.0812 0.0850
2968.000000 0.0876 0.0945 0.1014 0.1071 0.1129
2973.000000 0.1242 0.1355 0.1457 0.1559 0.1666
2978.000000 0.1774 0.1914 0.2055 0.2198 0.2341
2983.000000 0.2546 0.2752 0.2926 0.3101 0.3275
2988.000000 0.3449 0.3623 0.3797 0.3971 0.4145
2993.000000 0.4484 0.4824 0.5093 0.5362 0.5459
2998.000000 0.5556 0.5653 0.5750 0.6539 0.7329
3003.000000 0.7531 0.7734 0.7800 0.7866 0.7911
3008.000000 0.7957 0.7998 0.8040 0.8088 0.8136
3013.000000 0.8170 0.8205 0.8234 0.8263 0.8284
3018.000000 0.8305 0.8317 0.8329 0.8341 0.8354
3023.000000 0.8367 0.8380 0.8390 0.8401 0.8406
3028.000000 0.8412 0.8417 0.8422 0.8427 0.8433
3033.000000 0.8438 0.8444 0.8448 0.8453 0.8457
3038.000000 0.8461 0.8465 0.8469 0.8473 0.8477
3043.000000 0.8481 0.8485 0.8489 0.8493 0.8497
3048.000000 0.8501 0.8505 0.8509 0.8512 0.8516
3053.000000 0.8520 0.8524 0.8528 0.8532 0.8535
3058.000000 0.8539 0.8542 0.8546 0.8549 0.8553
3063.000000 0.8556 0.8560 0.8563 0.8566 0.8569
3068.000000 0.8573 0.8576 0.8580 0.8583 0.8587
3073.000000 0.8589 0.8592 0.8594 0.8597 0.8599
3078.000000 0.8602 0.8604 0.8607 0.8609 0.8612
3083.000000 0.8614 0.8616 0.8618 0.8621 0.8623
3088.000000 0.8626 0.8628 0.8631 0.8633 0.8636
3093.000000 0.8638 0.8641 0.8643 0.8646 0.8648
3098.000000 0.8650 0.8651 0.8653 0.8655 0.8657
3103.000000 0.8659 0.8661 0.8663 0.8665 0.8667
3108.000000 0.8669 0.8670 0.8672 0.8674 0.8676
3113.000000 0.8678 0.8680 0.8682 0.8684 0.8686
3118.000000 0.8688 0.8690 0.8692 0.8693 0.8695
3123.000000 0.8697 0.8699 0.8700 0.8701 0.8702
3128.000000 0.8703 0.8704 0.8705 0.8706 0.8707
3133.000000 0.8707 0.8708 0.8709 0.8710 0.8711
3138.000000 0.8712 0.8713 0.8714 0.8714 0.8714
3143.000000 0.8714 0.8714 0.8714 0.8714 0.8714
3148.000000 0.8714 0.8714 0.8714 0.8714 0.8714
3153.000000 0.8714 0.8714 0.8714 0.8714 0.8714
3158.000000 0.8714 0.8714 0.8714 0.8714 0.8715
3163.000000 0.8715 0.8716 0.8716 0.8717 0.8717
3168.000000 0.8717 0.8717 0.8718 0.8718 0.8719
3173.000000 0.8719 0.8720 0.8720 0.8721 0.8721
3178.000000 0.8722 0.8722 0.8723 0.8724 0.8726
3183.000000 0.8727 0.8728 0.8729 0.8731 0.8732
3188.000000 0.8734 0.8735 0.8737 0.8738 0.8739
3193.000000 0.8740 0.8742 0.8743 0.8745 0.8746
3198.000000 0.8748 0.8749 0.8750 0.8751 0.8753
3203.000000 0.8754 0.8756 0.8758 0.8761 0.8765
3208.000000 0.8770 0.8775 0.8780 0.8785 0.8790
3213.000000 0.8794 0.8799 0.8803 0.8808 0.8812
3218.000000 0.8817 0.8821 0.8825 0.8829 0.8834
3223.000000 0.8836 0.8839 0.8839 0.8839 0.8839
3228.000000 0.8839 0.8839 0.8839 0.8839 0.8839
3233.000000 0.8839 0.8843 0.8839 0.8840 0.8840
3238.000000 0.8840 0.8840 0.8840 0.8840 0.8840
3243.000000 0.8840 0.8840 0.8840 0.8840 0.8839
3248.000000 0.8839 0.8839 0.8839 0.8839 0.8839
3253.000000 0.8839 0.8839 0.8838 0.8838 0.8838
3258.000000 0.8838 0.8838 0.8838 0.8838 0.8838
3263.000000 0.8837 0.8837 0.8837 0.8837 0.8837
3268.000000 0.8837 0.8837 0.8837 0.8836 0.8836
3273.000000 0.8836 0.8836 0.8835 0.8835 0.8834
3278.000000 0.8834 0.8833 0.8833 0.8832 0.8832
3283.000000 0.8831 0.8831 0.8830 0.8830 0.8829
3288.000000 0.8829 0.8828 0.8828 0.8827 0.8827
3293.000000 0.8826 0.8826 0.8825 0.8825 0.8822
3298.000000 0.8819 0.8816 0.8813 0.8810 0.8807
3303.000000 0.8804 0.8801 0.8798 0.8795 0.8792
3308.000000 0.8789 0.8786 0.8783 0.8777 0.8771
3313.000000 0.8765 0.8759 0.8752 0.8746 0.8740
3318.000000 0.8734 0.8728 0.8722 0.8714 0.8707
3323.000000 0.8699 0.8691 0.8683 0.8676 0.8668
3328.000000 0.8660 0.8652 0.8644 0.8636 0.8628
3333.000000 0.8620 0.8613 0.8605 0.8598 0.8591
3338.000000 0.8584 0.8578 0.8573 0.8569 0.8527
3343.000000 0.8566 0.8566 0.8566 0.8566 0.8570
3348.000000 0.8575 0.8579 0.8584 0.8592 0.8600
3353.000000 0.8613 0.8627 0.8640 0.8654 0.8667
3358.000000 0.8681 0.8695 0.8710 0.8725 0.8740
3363.000000 0.8753 0.8766 0.8779 0.8792 0.8800
3368.000000 0.8809 0.8813 0.8818 0.8818 0.8818
3373.000000 0.8817 0.8817 0.8816 0.8816 0.8815
3378.000000 0.8814 0.8813 0.8812 0.8811 0.8811
3383.000000 0.8810 0.8809 0.8808 0.8808 0.8807
3388.000000 0.8807 0.8806 0.8806 0.8805 0.8805
3393.000000 0.8804 0.8803 0.8802 0.8802 0.8801
3398.000000 0.8801 0.8800 0.8800 0.8799 0.8799
3403.000000 0.8798 0.8798 0.8797 0.8797 0.8796
3408.000000 0.8796 0.8796 0.8796 0.8795 0.8795
3413.000000 0.8794 0.8794 0.8793 0.8793 0.8792
3418.000000 0.8792 0.8792 0.8793 0.8795 0.8798
3423.000000 0.8800 0.8802 0.8804 0.8807 0.8809
3428.000000 0.8811 0.8813 0.8816 0.8818 0.8821
3433.000000 0.8822 0.8824 0.8826 0.8828 0.8830
3438.000000 0.8832 0.8834 0.8836 0.8838 0.8840
3443.000000 0.8842 0.8844 0.8846 0.8848 0.8850
3448.000000 0.8852 0.8854 0.8856 0.8858 0.8860
3453.000000 0.8861 0.8863 0.8863 0.8864 0.8865
3458.000000 0.8866 0.8866 0.8867 0.8868 0.8869
3463.000000 0.8869 0.8870 0.8871 0.8872 0.8873
3468.000000 0.8874 0.8874 0.8875 0.8876 0.8877
3473.000000 0.8877 0.8878 0.8879 0.8880 0.8880
3478.000000 0.8881 0.8882 0.8883 0.8883 0.8884
3483.000000 0.8885 0.8886 0.8887 0.8888 0.8889
3488.000000 0.8890 0.8890 0.8891 0.8892 0.8893
3493.000000 0.8894 0.8895 0.8896 0.8897 0.8898
3498.000000 0.8899 0.8900 0.8901 0.8902 0.8903
3503.000000 0.8904 0.8905 0.8905 0.8906 0.8907
3508.000000 0.8908 0.8909 0.8910 0.8911 0.8912
3513.000000 0.8913 0.8914 0.8915 0.8916 0.8916
3518.000000 0.8917 0.8916 0.8915 0.8914 0.8913
3523.000000 0.8912 0.8911 0.8910 0.8909 0.8908
3528.000000 0.8908 0.8907 0.8906 0.8905 0.8904
3533.000000 0.8903 0.8902 0.8901 0.8900 0.8899
3538.000000 0.8898 0.8897 0.8896 0.8895 0.8894
3543.000000 0.8893 0.8893 0.8892 0.8891 0.8890
3548.000000 0.8889 0.8888 0.8888 0.8887 0.8886
3553.000000 0.8885 0.8885 0.8884 0.8884 0.8883
3558.000000 0.8882 0.8881 0.8881 0.8880 0.8879
3563.000000 0.8878 0.8878 0.8877 0.8876 0.8875
3568.000000 0.8875 0.8874 0.8873 0.8872 0.8872
3573.000000 0.8870 0.8868 0.8865 0.8863 0.8861
3578.000000 0.8859 0.8856 0.8854 0.8851 0.8849
3583.000000 0.8846 0.8844 0.8842 0.8840 0.8837
3588.000000 0.8835 0.8831 0.8828 0.8823 0.8818
3593.000000 0.8813 0.8809 0.8804 0.8799 0.8794
3598.000000 0.8789 0.8782 0.8776 0.8770 0.8764
3603.000000 0.8757 0.8751 0.8744 0.8738 0.8730
3608.000000 0.8722 0.8714 0.8707 0.8699 0.8691
3613.000000 0.8683 0.8795 0.8679 0.8683 0.8739
3618.000000 0.8795 0.8824 0.8854 0.8858 0.8863
3623.000000 0.8862 0.8861 0.8849 0.8837 0.8824
3628.000000 0.8811 0.8791 0.8771 0.8747 0.8724
3633.000000 0.8690 0.8657 0.8635 0.8614 0.8615
3638.000000 0.8616 0.8647 0.8679 0.8718 0.8758
3643.000000 0.8795 0.8833 0.8848 0.8864 0.8870
3648.000000 0.8877 0.8874 0.8872 0.8860 0.8848
3653.000000 0.8807 0.8767 0.8727 0.8688 0.8643
3658.000000 0.8599 0.8619 0.8639 0.8686 0.8733
3663.000000 0.8779 0.8825 0.8845 0.8865 0.8845
3668.000000 0.8825 0.8800 0.8776 0.8744 0.8712
3673.000000 0.8697 0.8683 0.8681 0.8679 0.8703
3678.000000 0.8728 0.8774 0.8821 0.8839 0.8858
3683.000000 0.8858 0.8858 0.8855 0.8853 0.8850
3688.000000 0.8848 0.8837 0.8826 0.8811 0.8796
3693.000000 0.8774 0.8752 0.8736 0.8720 0.8723
3698.000000 0.8727 0.8739 0.8751 0.8772 0.8794
3703.000000 0.8822 0.8850 0.8861 0.8872 0.8868
3708.000000 0.8865 0.8857 0.8849 0.8837 0.8826
3713.000000 0.8812 0.8798 0.8784 0.8771 0.8758
3718.000000 0.8746 0.8731 0.8717 0.8697 0.8678
3723.000000 0.8611 0.8545 0.8497 0.8450 0.8448
3728.000000 0.8446 0.8451 0.8457 0.8463 0.8469
3733.000000 0.8498 0.8528 0.8569 0.8611 0.8661
3738.000000 0.8712 0.8761 0.8811 0.8847 0.8884
3743.000000 0.8901 0.8919 0.8925 0.8931 0.8936
3748.000000 0.8942 0.8944 0.8947 0.8946 0.8945
3753.000000 0.8943 0.8942 0.8941 0.8940 0.8939
3758.000000 0.8938 0.8937 0.8936 0.8934 0.8933
3763.000000 0.8931 0.8929 0.8926 0.8923 0.8920
3768.000000 0.8917 0.8913 0.8909 0.8903 0.8897
3773.000000 0.8891 0.8885 0.8878 0.8871 0.8864
3778.000000 0.8858 0.8839 0.8820 0.8792 0.8764
3783.000000 0.8736 0.8708 0.8708 0.8708
##END=
