##TITLE=VINYL ETHER
##JCAMP-DX=4.24
##DATA TYPE=INFRARED SPECTRUM
##CLASS=COBLENTZ
##ORIGIN=DOW CHEMICAL COMPANY
##OWNER=COBLENTZ SOCIETY
Collection (C) 2018 copyright by the U.S. Secretary of Commerce
on behalf of the United States of America. All rights reserved.
##DATE=1964
##NAMES=divinyl ether
1-(vinyloxy)ethylene
DIVINYL ETHER
##CAS REGISTRY NO=109-93-3
##MOLFORM=C4 H6 O
##SOURCE REFERENCE=COBLENTZ NO. 8797
##$NIST SOURCE=COBLENTZ
##$NIST IMAGE=cob-r8797
##SPECTROMETER/DATA SYSTEM=DOW KBr FOREPRISM-GRATING
##INSTRUMENT PARAMETERS=GRATING CHANGED AT 5.0, 7.5, 15.0 MICRON
##STATE=GAS (100 mmHg, N2 ADDED, TOTAL PRESSURE 600 mmHg)
##PATH LENGTH=5 CM
##SAMPLING PROCEDURE=TRANSMISSION
##RESOLUTION=2
##DATA PROCESSING=DIGITIZED BY NIST FROM HARD COPY (FROM TWO SEGMENTS)
##XUNITS=1/CM
##YUNITS=TRANSMITTANCE
##XFACTOR=1.000000
##YFACTOR=1
##DELTAX=0.939705
##FIRSTX=385.591
##LASTX=3792.02
##FIRSTY=0.88
##MAXX=3792.02
##MINX=385.591
##MAXY=0.96
##MINY=0
##NPOINTS=3626
##XYDATA=(X++(Y..Y))
385.591000 0.8800 0.8800 0.8800 0.8800 0.8800
390.289524 0.8800 0.8800 0.8780 0.8780 0.8780
394.988049 0.8780 0.8780 0.8780 0.8780 0.8780
399.686573 0.8780 0.8770 0.8770 0.8770 0.8770
404.385098 0.8770 0.8750 0.8750 0.8750 0.8750
409.083622 0.8750 0.8750 0.8740 0.8740 0.8720
413.782147 0.8720 0.8710 0.8710 0.8710 0.8690
418.480671 0.8690 0.8680 0.8680 0.8660 0.8660
423.179196 0.8650 0.8650 0.8640 0.8640 0.8640
427.877720 0.8620 0.8620 0.8610 0.8610 0.8590
432.576244 0.8590 0.8580 0.8580 0.8560 0.8560
437.274769 0.8550 0.8550 0.8530 0.8520 0.8520
441.973293 0.8520 0.8500 0.8500 0.8500 0.8500
446.671818 0.8520 0.8520 0.8520 0.8520 0.8520
451.370342 0.8530 0.8530 0.8530 0.8530 0.8530
456.068867 0.8550 0.8560 0.8560 0.8560 0.8580
460.767391 0.8580 0.8610 0.8640 0.8640 0.8650
465.465915 0.8650 0.8650 0.8660 0.8660 0.8660
470.164440 0.8660 0.8650 0.8620 0.8620 0.8590
474.862964 0.8560 0.8500 0.8460 0.8400 0.8360
479.561489 0.8330 0.8310 0.8280 0.8270 0.8280
484.260013 0.8300 0.8300 0.8310 0.8310 0.8310
488.958538 0.8310 0.8310 0.8310 0.8300 0.8280
493.657062 0.8280 0.8310 0.8340 0.8370 0.8420
498.355587 0.8490 0.8550 0.8610 0.8660 0.8720
503.054111 0.8810 0.8840 0.8850 0.8870 0.8880
507.752635 0.8900 0.8900 0.8910 0.8910 0.8930
512.451160 0.8930 0.8940 0.8940 0.8940 0.8960
517.149684 0.8940 0.8960 0.8960 0.8960 0.8960
521.848209 0.8960 0.8960 0.8960 0.8960 0.8960
526.546733 0.8960 0.8960 0.8960 0.8960 0.8960
531.245258 0.8960 0.8960 0.8960 0.8960 0.8960
535.943782 0.8960 0.8960 0.8960 0.8960 0.8960
540.642307 0.8960 0.8960 0.8960 0.8960 0.8960
545.340831 0.8960 0.8960 0.8960 0.8960 0.8960
550.039355 0.8940 0.8940 0.8940 0.8930 0.8930
554.737880 0.8910 0.8910 0.8900 0.8880 0.8870
559.436404 0.8850 0.8850 0.8840 0.8830 0.8810
564.134929 0.8770 0.8740 0.8690 0.8660 0.8640
568.833453 0.8620 0.8610 0.8610 0.8610 0.8620
573.531978 0.8640 0.8680 0.8690 0.8710 0.8740
578.230502 0.8750 0.8750 0.8740 0.8720 0.8720
582.929027 0.8710 0.8680 0.8680 0.8660 0.8660
587.627551 0.8660 0.8660 0.8680 0.8710 0.8740
592.326075 0.8780 0.8810 0.8840 0.8870 0.8910
597.024600 0.8930 0.8970 0.9000 0.9030 0.9070
601.723124 0.9100 0.9130 0.9160 0.9190 0.9190
606.421649 0.9220 0.9250 0.9250 0.9260 0.9280
611.120173 0.9280 0.9280 0.9280 0.9280 0.9280
615.818698 0.9280 0.9280 0.9280 0.9280 0.9260
620.517222 0.9260 0.9250 0.9250 0.9230 0.9220
625.215746 0.9220 0.9220 0.9220 0.9220 0.9220
629.914271 0.9210 0.9210 0.9210 0.9210 0.9190
634.612795 0.9190 0.9190 0.9190 0.9180 0.9180
639.311320 0.9180 0.9160 0.9160 0.9150 0.9130
644.009844 0.9120 0.9120 0.9100 0.9090 0.9070
648.708369 0.9070 0.9060 0.9040 0.9020 0.8970
653.406893 0.8940 0.8940 0.8930 0.8910 0.8880
658.105418 0.8850 0.8840 0.8830 0.8810 0.8780
662.803942 0.8740 0.8720 0.8710 0.8690 0.8650
667.502466 0.8620 0.8610 0.8580 0.8560 0.8520
672.200991 0.8470 0.8390 0.8370 0.8340 0.8171
676.899515 0.8090 0.8080 0.8020 0.7990 0.7950
681.598040 0.7890 0.7830 0.7790 0.7730 0.7690
686.296564 0.7630 0.7600 0.7550 0.7540 0.7510
690.995089 0.7410 0.7330 0.7290 0.7250 0.7200
695.693613 0.7130 0.7060 0.6980 0.6920 0.6730
700.392138 0.6690 0.6690 0.6849 0.6850 0.6820
705.090662 0.6790 0.6790 0.6760 0.6730 0.6730
709.789186 0.6720 0.6720 0.6730 0.6750 0.6780
714.487711 0.6870 0.6940 0.6970 0.6970 0.6980
719.186235 0.6980 0.7000 0.7000 0.7000 0.7010
723.884760 0.7030 0.7040 0.7060 0.7070 0.7100
728.583284 0.7130 0.7170 0.7190 0.7250 0.7300
733.281809 0.7360 0.7380 0.7480 0.7570 0.7600
737.980333 0.7630 0.7670 0.7730 0.7790 0.7850
742.678857 0.7920 0.7980 0.8020 0.8110 0.8180
747.377382 0.8240 0.8300 0.8370 0.8460 0.8579
752.075906 0.8660 0.8740 0.8810 0.8840 0.8870
756.774431 0.8870 0.8850 0.8850 0.8840 0.8840
761.472955 0.8810 0.8800 0.8780 0.8770 0.8740
766.171480 0.8720 0.8710 0.8690 0.8680 0.8660
770.870004 0.8650 0.8610 0.8580 0.8550 0.8530
775.568529 0.8500 0.8460 0.8450 0.8430 0.8400
780.267053 0.8370 0.8340 0.8300 0.8270 0.8240
784.965577 0.8230 0.8200 0.8180 0.8150 0.8120
789.664102 0.8080 0.8020 0.7980 0.7900 0.7830
794.362626 0.7760 0.7670 0.7570 0.7470 0.7360
799.061151 0.7250 0.7130 0.7000 0.6870 0.6720
803.759675 0.6600 0.6470 0.6300 0.6111 0.5901
808.458200 0.5680 0.5460 0.5210 0.4980 0.4730
813.156724 0.4470 0.4231 0.3991 0.3751 0.3521
817.855249 0.3310 0.3120 0.2930 0.2700 0.2480
822.553773 0.2280 0.2100 0.1950 0.1820 0.1691
827.252297 0.1570 0.1490 0.1380 0.1300 0.1210
831.950822 0.0930 0.0830 0.0710 0.0620 0.0381
836.649346 0.0350 0.0360 0.0450 0.0450 0.0400
841.347871 0.0380 0.0380 0.0380 0.0380 0.0380
846.046395 0.0380 0.0380 0.0360 0.0360 0.0350
850.744920 0.0350 0.0350 0.0330 0.0330 0.0350
855.443444 0.0350 0.0350 0.0350 0.0360 0.0380
860.141969 0.0400 0.0430 0.0460 0.0520 0.0570
864.840493 0.0620 0.0670 0.0710 0.0760 0.0800
869.539017 0.0840 0.0870 0.0930 0.0990 0.1060
874.237542 0.1120 0.1180 0.1240 0.1280 0.1340
878.936066 0.1370 0.1520 0.1630 0.1819 0.1880
883.634591 0.1980 0.2040 0.2040 0.2140 0.2250
888.333115 0.2330 0.2440 0.2540 0.2819 0.2820
893.031640 0.2950 0.3180 0.3210 0.3280 0.3360
897.730164 0.3430 0.3500 0.3580 0.3620 0.3710
902.428688 0.3960 0.3930 0.3910 0.3870 0.3830
907.127213 0.3780 0.3750 0.3800 0.4159 0.4120
911.825737 0.4060 0.3910 0.3850 0.3810 0.3770
916.524262 0.3710 0.3660 0.3620 0.3590 0.3471
921.222786 0.3230 0.3070 0.2930 0.2820 0.2710
925.921311 0.2630 0.2540 0.2470 0.2410 0.2330
930.619835 0.2260 0.2190 0.2100 0.1980 0.1910
935.318360 0.1810 0.1780 0.1750 0.1710 0.1571
940.016884 0.1160 0.1080 0.1000 0.1000 0.1090
944.715408 0.1090 0.1080 0.1060 0.1060 0.1060
949.413933 0.1000 0.0800 0.1250 0.1220 0.1180
954.112457 0.1150 0.1110 0.1080 0.1030 0.0990
958.810982 0.0970 0.0990 0.1150 0.1270 0.1590
963.509506 0.1760 0.1969 0.2100 0.2130 0.2249
968.208031 0.2450 0.2580 0.2660 0.2730 0.2770
972.906555 0.2800 0.2800 0.2740 0.2670 0.2521
977.605080 0.2360 0.2200 0.2040 0.1900 0.1720
982.303604 0.1530 0.1301 0.1091 0.1050 0.1050
987.002128 0.1060 0.1160 0.1280 0.1400 0.1660
991.700653 0.1370 0.1210 0.1160 0.0891 0.1209
996.399177 0.1350 0.1460 0.1440 0.1250 0.1020
1001.097702 0.0990 0.0990 0.1000 0.1090 0.1160
1005.796226 0.1250 0.1310 0.1530 0.1680 0.1850
1010.494751 0.2070 0.2290 0.2519 0.2709 0.2820
1015.193275 0.2930 0.2950 0.2980 0.2990 0.3010
1019.891799 0.3020 0.3020 0.3040 0.3050 0.3070
1024.590324 0.3080 0.3090 0.3170 0.3240 0.3330
1029.288848 0.3370 0.3590 0.3989 0.4279 0.4479
1033.987373 0.4630 0.4730 0.4820 0.4910 0.5020
1038.685897 0.5190 0.5400 0.5699 0.5959 0.6179
1043.384422 0.6350 0.6520 0.6650 0.6760 0.6850
1048.082946 0.6940 0.7000 0.7060 0.7100 0.7140
1052.781471 0.7190 0.7250 0.7290 0.7320 0.7330
1057.479995 0.7360 0.7380 0.7390 0.7410 0.7420
1062.178519 0.7480 0.7550 0.7580 0.7470 0.7410
1066.877044 0.7500 0.7570 0.7690 0.7690 0.7670
1071.575568 0.7630 0.7600 0.7580 0.7580 0.7580
1076.274093 0.7600 0.7600 0.7610 0.7630 0.7630
1080.972617 0.7630 0.7640 0.7640 0.7630 0.7630
1085.671142 0.7610 0.7610 0.7600 0.7600 0.7580
1090.369666 0.7570 0.7540 0.7470 0.7450 0.7420
1095.068191 0.7390 0.7320 0.7100 0.7010 0.6900
1099.766715 0.6780 0.6660 0.6530 0.6410 0.6300
1104.465239 0.6180 0.6050 0.5950 0.5830 0.5710
1109.163764 0.5680 0.5670 0.5680 0.5700 0.5870
1113.862288 0.6030 0.6060 0.6120 0.6270 0.6429
1118.560813 0.6430 0.6430 0.6410 0.6300 0.6120
1123.259337 0.5810 0.5640 0.5610 0.5590 0.5610
1127.957862 0.5650 0.5710 0.5890 0.5990 0.6090
1132.656386 0.6120 0.6220 0.6310 0.6370 0.6410
1137.354911 0.6460 0.6500 0.6540 0.6590 0.6630
1142.053435 0.6660 0.6680 0.6680 0.6660 0.6600
1146.751959 0.6530 0.6470 0.6400 0.6340 0.6270
1151.450484 0.6080 0.5621 0.5400 0.5101 0.4791
1156.149008 0.4309 0.3839 0.3470 0.3040 0.2600
1160.847533 0.1851 0.1560 0.1271 0.0991 0.0492
1165.546057 0.0260 0.0140 0.0100 0.0050 0.0040
1170.244582 0.0040 0.0020 0.0020 0.0020 0.0020
1174.943106 0.0020 0.0020 0.0020 0.0020 0.0020
1179.641630 0.0020 0.0020 0.0020 0.0020 0.0020
1184.340155 0.0020 0.0020 0.0020 0.0020 0.0020
1189.038679 0.0020 0.0020 0.0020 0.0020 0.0020
1193.737204 0.0020 0.0020 0.0020 0.0020 0.0020
1198.435728 0.0020 0.0020 0.0020 0.0040 0.0040
1203.134253 0.0040 0.0040 0.0040 0.0040 0.0040
1207.832777 0.0040 0.0040 0.0040 0.0040 0.0040
1212.531302 0.0040 0.0040 0.0040 0.0040 0.0040
1217.229826 0.0040 0.0040 0.0040 0.0040 0.0040
1221.928350 0.0040 0.0050 0.0050 0.0050 0.0050
1226.626875 0.0050 0.0050 0.0050 0.0070 0.0100
1231.325399 0.0200 0.0290 0.0420 0.0620 0.0860
1236.023924 0.1160 0.1520 0.1909 0.2349 0.2849
1240.722448 0.3371 0.3931 0.4531 0.5080 0.5510
1245.420973 0.5520 0.5680 0.5840 0.6139 0.6150
1250.119497 0.6250 0.6350 0.6460 0.6630 0.6650
1254.818022 0.6710 0.6730 0.6730 0.6750 0.6750
1259.516546 0.6750 0.6730 0.6730 0.6720 0.6710
1264.215070 0.6710 0.6710 0.6710 0.6720 0.6720
1268.913595 0.6730 0.6730 0.6750 0.6760 0.6760
1273.612119 0.6780 0.6790 0.6810 0.6810 0.6820
1278.310644 0.6820 0.6840 0.6840 0.6840 0.6840
1283.009168 0.6840 0.6820 0.6820 0.6810 0.6790
1287.707693 0.6750 0.6720 0.6680 0.6440 0.6220
1292.406217 0.6000 0.5770 0.5550 0.5331 0.5210
1297.104741 0.5080 0.4970 0.4830 0.4830 0.4910
1301.803266 0.4970 0.5040 0.5050 0.5070 0.5100
1306.501790 0.5160 0.5210 0.5230 0.5230 0.4820
1311.200315 0.4610 0.4470 0.4211 0.3881 0.3611
1315.898839 0.3530 0.3420 0.3310 0.3200 0.2990
1320.597364 0.2540 0.2091 0.0843 0.0810 0.0830
1325.295888 0.0900 0.0960 0.1020 0.1160 0.0950
1329.994413 0.0810 0.0680 0.0650 0.0520 0.0899
1334.692937 0.1599 0.1350 0.1210 0.1080 0.0960
1339.391461 0.0900 0.0870 0.0890 0.1020 0.1160
1344.089986 0.1310 0.1460 0.1470 0.1720 0.1970
1348.788510 0.2420 0.2670 0.3389 0.4178 0.4938
1353.487035 0.4971 0.5351 0.5730 0.6080 0.6150
1358.185559 0.6150 0.6140 0.6110 0.6080 0.6030
1362.884084 0.5890 0.5740 0.5610 0.5480 0.5380
1367.582608 0.5160 0.4890 0.4561 0.4191 0.3781
1372.281133 0.3359 0.2959 0.2580 0.2250 0.1970
1376.979657 0.1910 0.1850 0.1790 0.1750 0.1680
1381.678181 0.1649 0.1430 0.1250 0.1220 0.1220
1386.376706 0.1240 0.1380 0.1410 0.1440 0.1460
1391.075230 0.1460 0.1430 0.1430 0.1440 0.1490
1395.773755 0.1560 0.1570 0.1630 0.1690 0.1720
1400.472279 0.1971 0.2200 0.2440 0.2640 0.2860
1405.170804 0.3050 0.3490 0.3929 0.4349 0.4749
1409.869328 0.5131 0.5481 0.5780 0.6050 0.6270
1414.567853 0.6430 0.6530 0.6540 0.6590 0.6600
1419.266377 0.6600 0.6620 0.6630 0.6660 0.6780
1423.964901 0.6790 0.6820 0.6820 0.6880 0.6900
1428.663426 0.6910 0.6920 0.6920 0.6920 0.6940
1433.361950 0.6940 0.6940 0.6910 0.6880 0.6810
1438.060475 0.6780 0.6780 0.6790 0.6900 0.6910
1442.758999 0.6910 0.6920 0.7030 0.7060 0.7090
1447.457524 0.7130 0.7170 0.7200 0.7230 0.7250
1452.156048 0.7320 0.7360 0.7410 0.7410 0.7420
1456.854572 0.7420 0.7420 0.7390 0.7390 0.7410
1461.553097 0.7600 0.7990 0.8150 0.8230 0.8240
1466.251621 0.8310 0.8330 0.8390 0.8400 0.8430
1470.950146 0.8500 0.8520 0.8520 0.8500 0.8470
1475.648670 0.8470 0.8500 0.8520 0.8550 0.8580
1480.347195 0.8590 0.8610 0.8620 0.8620 0.8620
1485.045719 0.8620 0.8590 0.8560 0.8560 0.8550
1489.744244 0.8470 0.8450 0.8450 0.8460 0.8500
1494.442768 0.8530 0.8500 0.8470 0.8360 0.8330
1499.141292 0.8330 0.8340 0.8400 0.8420 0.8400
1503.839817 0.8400 0.8370 0.8340 0.8120 0.7890
1508.538341 0.7860 0.7860 0.7860 0.7830 0.7790
1513.236866 0.7770 0.7700 0.7510 0.7440 0.7330
1517.935390 0.7100 0.6980 0.6920 0.6850 0.6680
1522.633915 0.6380 0.6240 0.6210 0.6190 0.6140
1527.332439 0.5950 0.5800 0.5640 0.5550 0.5380
1532.030964 0.5160 0.5130 0.5100 0.5040 0.5010
1536.729488 0.5000 0.4950 0.4880 0.4860 0.4880
1541.428012 0.4940 0.4970 0.5070 0.5080 0.5080
1546.126537 0.5080 0.5080 0.5100 0.5100 0.5110
1550.825061 0.5140 0.5270 0.5400 0.5540 0.5620
1555.523586 0.5670 0.5700 0.5730 0.5740 0.5740
1560.222110 0.5740 0.5760 0.5890 0.5990 0.5990
1564.920635 0.5960 0.5960 0.5950 0.5950 0.5930
1569.619159 0.5930 0.5920 0.5920 0.5960 0.6000
1574.317683 0.6050 0.5780 0.5760 0.5730 0.5730
1579.016208 0.5730 0.5710 0.5670 0.5580 0.5540
1583.714732 0.5480 0.5430 0.5400 0.5360 0.5330
1588.413257 0.5290 0.5210 0.5140 0.5040 0.4940
1593.111781 0.4800 0.4670 0.4530 0.4370 0.4210
1597.810306 0.4029 0.3838 0.3279 0.2829 0.2470
1602.508830 0.2170 0.1940 0.1730 0.1560 0.1370
1607.207355 0.1179 0.0949 0.0649 0.0290 0.0040
1611.905879 0.0000 0.0000 0.0000 0.0000 0.0000
1616.604403 0.0000 0.0000 0.0000 0.0000 0.0000
1621.302928 0.0000 0.0000 0.0000 0.0000 0.0000
1626.001452 0.0000 0.0000 0.0010 0.0010 0.0010
1630.699977 0.0010 0.0020 0.0020 0.0020 0.0020
1635.398501 0.0040 0.0040 0.0050 0.0050 0.0070
1640.097026 0.0070 0.0080 0.0080 0.0100 0.0100
1644.795550 0.0110 0.0110 0.0130 0.0130 0.0140
1649.494075 0.0140 0.0160 0.0170 0.0170 0.0170
1654.192599 0.0170 0.0170 0.0170 0.0190 0.0210
1658.891123 0.0270 0.0320 0.0420 0.0859 0.1020
1663.589648 0.1271 0.1681 0.1980 0.2230 0.2440
1668.288172 0.2640 0.2860 0.3140 0.3469 0.3909
1672.986697 0.4180 0.4340 0.4350 0.4380 0.4420
1677.685221 0.4470 0.4500 0.4540 0.4600 0.4610
1682.383746 0.4560 0.4530 0.4540 0.4640 0.4750
1687.082270 0.4820 0.4940 0.5050 0.5160 0.5200
1691.780795 0.5260 0.5270 0.5230 0.5130 0.5100
1696.479319 0.5110 0.5380 0.5390 0.5420 0.5460
1701.177843 0.5731 0.5990 0.6090 0.6210 0.6300
1705.876368 0.6380 0.6540 0.6660 0.6760 0.6850
1710.574892 0.6950 0.7070 0.7110 0.7190 0.7200
1715.273417 0.7220 0.7230 0.7230 0.7250 0.7360
1719.971941 0.7580 0.7710 0.7760 0.7820 0.7860
1724.670466 0.7890 0.7920 0.7950 0.7960 0.7960
1729.368990 0.7960 0.7960 0.7920 0.7830 0.7800
1734.067514 0.7820 0.7890 0.7990 0.8020 0.8040
1738.766039 0.8040 0.8050 0.8070 0.8140 0.8150
1743.464563 0.8170 0.8200 0.8200 0.8200 0.8200
1748.163088 0.8200 0.8200 0.8210 0.8230 0.8310
1752.861612 0.8310 0.8360 0.8370 0.8400 0.8400
1757.560137 0.8400 0.8420 0.8420 0.8420 0.8420
1762.258661 0.8420 0.8420 0.8400 0.8400 0.8390
1766.957186 0.8360 0.8340 0.8330 0.8310 0.8300
1771.655710 0.8300 0.8330 0.8360 0.8400 0.8400
1776.354234 0.8400 0.8390 0.8390 0.8390 0.8360
1781.052759 0.8360 0.8340 0.8330 0.8310 0.8300
1785.751283 0.8300 0.8280 0.8270 0.8270 0.8280
1790.449808 0.8300 0.8300 0.8300 0.8300 0.8310
1795.148332 0.8310 0.8310 0.8310 0.8330 0.8330
1799.846857 0.8330 0.8340 0.8340 0.8340 0.8360
1804.545381 0.8360 0.8360 0.8360 0.8360 0.8360
1809.243906 0.8360 0.8370 0.8390 0.8400 0.8400
1813.942430 0.8430 0.8450 0.8450 0.8460 0.8460
1818.640954 0.8470 0.8490 0.8500 0.8500 0.8500
1823.339479 0.8500 0.8490 0.8470 0.8460 0.8450
1828.038003 0.8450 0.8430 0.8400 0.8390 0.8360
1832.736528 0.8340 0.8310 0.8280 0.8260 0.8230
1837.435052 0.8180 0.8150 0.8090 0.8050 0.7990
1842.133577 0.7919 0.7760 0.7660 0.7630 0.7610
1846.832101 0.7610 0.7580 0.7540 0.7470 0.7420
1851.530625 0.7320 0.7220 0.7110 0.7090 0.7070
1856.229150 0.7040 0.6970 0.6940 0.6910 0.6880
1860.927674 0.6870 0.6840 0.6810 0.6790 0.6760
1865.626199 0.6750 0.6720 0.6690 0.6690 0.6690
1870.324723 0.6710 0.6720 0.6760 0.6790 0.6840
1875.023248 0.6870 0.6910 0.6940 0.6980 0.6980
1879.721772 0.7030 0.7060 0.7090 0.7110 0.7170
1884.420297 0.7220 0.7230 0.7250 0.7280 0.7290
1889.118821 0.7330 0.7380 0.7420 0.7450 0.7510
1893.817345 0.7550 0.7580 0.7610 0.7630 0.7670
1898.515870 0.7710 0.7760 0.7820 0.7860 0.7900
1903.214394 0.7950 0.7960 0.7960 0.7990 0.8020
1907.912919 0.8070 0.8110 0.8170 0.8240 0.8260
1912.611443 0.8280 0.8300 0.8310 0.8330 0.8360
1917.309968 0.8370 0.8390 0.8400 0.8430 0.8490
1922.008492 0.8500 0.8560 0.8590 0.8640 0.8680
1926.707017 0.8710 0.8720 0.8750 0.8770 0.8780
1931.405541 0.8800 0.8850 0.8870 0.8880 0.8900
1936.104065 0.8910 0.8930 0.8930 0.8940 0.8940
1940.802590 0.8960 0.8960 0.8960 0.8960 0.8960
1945.501114 0.8960 0.8960 0.8960 0.8960 0.8960
1950.199639 0.8960 0.8960 0.8960 0.8960 0.8960
1954.898163 0.8960 0.8960 0.8960 0.8960 0.8960
1959.596688 0.8960 0.8960 0.8960 0.8960 0.8960
1964.295212 0.8960 0.8960 0.8960 0.8960 0.8960
1968.993737 0.8960 0.8960 0.8940 0.8940 0.8940
1973.692261 0.8940 0.8940 0.8930 0.8930 0.8930
1978.390785 0.8930 0.8910 0.8910 0.8910 0.8900
1983.089310 0.8900 0.8880 0.8880 0.8880 0.8880
1987.787834 0.8880 0.8880 0.8880 0.8900 0.8900
1992.486359 0.8900 0.8880 0.8880 0.8880 0.8880
1997.184883 0.8900 0.8900 0.8900 0.8900 0.8900
2001.883408 0.8900 0.8900 0.8900 0.8890 0.8880
2006.581932 0.8875 0.8870 0.8860 0.8850 0.8830
2011.280456 0.8810 0.8795 0.8780 0.8765 0.8750
2015.978981 0.8745 0.8739 0.8679 0.8617 0.8537
2020.677505 0.8457 0.8357 0.8256 0.8136 0.8016
2025.376030 0.7901 0.7786 0.7666 0.7546 0.7436
2030.074554 0.7326 0.7226 0.7129 0.7114 0.7100
2034.773079 0.7095 0.7090 0.7101 0.7111 0.7121
2039.471603 0.7132 0.7167 0.7202 0.7232 0.7262
2044.170128 0.7297 0.7332 0.7362 0.7393 0.7433
2048.868652 0.7472 0.7497 0.7523 0.7563 0.7602
2053.567176 0.7632 0.7662 0.7698 0.7733 0.7768
2058.265701 0.7798 0.7778 0.7757 0.7727 0.7698
2062.964225 0.7678 0.7657 0.7627 0.7598 0.7573
2067.662750 0.7548 0.7523 0.7498 0.7473 0.7447
2072.361274 0.7417 0.7388 0.7368 0.7346 0.7316
2077.059799 0.7286 0.7256 0.7228 0.7213 0.7201
2081.758323 0.7211 0.7221 0.7226 0.7236 0.7286
2086.456848 0.7336 0.7381 0.7426 0.7476 0.7523
2091.155372 0.7548 0.7578 0.7638 0.7697 0.7748
2095.853896 0.7795 0.7830 0.7863 0.7883 0.7905
2100.552421 0.7935 0.7964 0.7989 0.8015 0.8045
2105.250945 0.8075 0.8110 0.8147 0.8192 0.8239
2109.949470 0.8294 0.8347 0.8393 0.8434 0.8454
2114.647994 0.8474 0.8499 0.8523 0.8538 0.8553
2119.346519 0.8568 0.8584 0.8604 0.8626 0.8661
2124.045043 0.8697 0.8737 0.8776 0.8811 0.8843
2128.743567 0.8858 0.8871 0.8876 0.8880 0.8880
2133.442092 0.8882 0.8892 0.8900 0.8900 0.8901
2138.140616 0.8906 0.8912 0.8922 0.8930 0.8930
2142.839141 0.8931 0.8936 0.8940 0.8940 0.8942
2147.537665 0.8952 0.8960 0.8960 0.8960 0.8960
2152.236190 0.8960 0.8960 0.8960 0.8960 0.8958
2156.934714 0.8948 0.8940 0.8940 0.8940 0.8940
2161.633239 0.8940 0.8940 0.8939 0.8934 0.8930
2166.331763 0.8930 0.8928 0.8917 0.8909 0.8904
2171.030287 0.8896 0.8881 0.8867 0.8857 0.8849
2175.728812 0.8844 0.8836 0.8821 0.8809 0.8804
2180.427336 0.8796 0.8781 0.8766 0.8751 0.8736
2185.125861 0.8721 0.8706 0.8691 0.8676 0.8661
2189.824385 0.8646 0.8631 0.8614 0.8594 0.8571
2194.522910 0.8541 0.8516 0.8501 0.8487 0.8477
2199.221434 0.8470 0.8470 0.8473 0.8483 0.8492
2203.919959 0.8497 0.8505 0.8520 0.8533 0.8543
2208.618483 0.8552 0.8557 0.8565 0.8580 0.8593
2213.317007 0.8603 0.8612 0.8617 0.8625 0.8640
2218.015532 0.8652 0.8657 0.8663 0.8673 0.8685
2222.714056 0.8700 0.8712 0.8717 0.8720 0.8720
2227.412581 0.8724 0.8734 0.8742 0.8747 0.8750
2232.111105 0.8750 0.8750 0.8750 0.8748 0.8743
2236.809630 0.8731 0.8706 0.8690 0.8690 0.8690
2241.508154 0.8690 0.8688 0.8683 0.8680 0.8680
2246.206679 0.8680 0.8680 0.8680 0.8680 0.8682
2250.905203 0.8687 0.8696 0.8711 0.8724 0.8734
2255.603727 0.8742 0.8747 0.8756 0.8771 0.8786
2260.302252 0.8801 0.8816 0.8831 0.8848 0.8868
2265.000776 0.8886 0.8901 0.8914 0.8924 0.8932
2269.699301 0.8937 0.8944 0.8954 0.8966 0.8981
2274.397825 0.8992 0.8997 0.9004 0.9014 0.9022
2279.096350 0.9027 0.9032 0.9037 0.9040 0.9040
2283.794874 0.9040 0.9040 0.9040 0.9040 0.9038
2288.493398 0.9033 0.9030 0.9030 0.9030 0.9030
2293.191923 0.9028 0.9023 0.9020 0.9020 0.9020
2297.890447 0.9020 0.9015 0.9005 0.8993 0.8978
2302.588972 0.8963 0.8948 0.8938 0.8933 0.8925
2307.287496 0.8915 0.8901 0.8881 0.8856 0.8826
2311.986021 0.8796 0.8766 0.8733 0.8698 0.8670
2316.684545 0.8650 0.8613 0.8558 0.8510 0.8470
2321.383070 0.8435 0.8405 0.8367 0.8322 0.8275
2326.081594 0.8225 0.8192 0.8177 0.8165 0.8155
2330.780118 0.8150 0.8150 0.8150 0.8150 0.8147
2335.478643 0.8142 0.8132 0.8117 0.8110 0.8110
2340.177167 0.8113 0.8118 0.8125 0.8135 0.8148
2344.875692 0.8163 0.8178 0.8193 0.8208 0.8223
2349.574216 0.8238 0.8253 0.8260 0.8260 0.8220
2354.272741 0.8145 0.8053 0.7947 0.7894 0.7884
2358.971265 0.7880 0.7880 0.7883 0.7888 0.7890
2363.669790 0.7890 0.7893 0.7898 0.7906 0.7916
2368.368314 0.7928 0.7943 0.7953 0.7958 0.7968
2373.066838 0.7983 0.8013 0.8053 0.8099 0.8149
2377.765363 0.8220 0.8305 0.8384 0.8459 0.8525
2382.463887 0.8585 0.8639 0.8690 0.8731 0.8766
2387.162412 0.8801 0.8836 0.8868 0.8898 0.8919
2391.860936 0.8934 0.8955 0.8980 0.8993 0.8998
2396.559461 0.9000 0.9000 0.9000 0.9000 0.9000
2401.257985 0.9000 0.9000 0.9000 0.9000 0.9000
2405.956510 0.9000 0.9000 0.9000 0.9000 0.9000
2410.655034 0.9000 0.9000 0.9000 0.9000 0.9000
2415.353558 0.9000 0.9000 0.8997 0.8992 0.8990
2420.052083 0.8990 0.8990 0.8990 0.8984 0.8974
2424.750607 0.8970 0.8970 0.8967 0.8962 0.8960
2429.449132 0.8960 0.8953 0.8943 0.8940 0.8940
2434.147656 0.8937 0.8932 0.8930 0.8930 0.8923
2438.846181 0.8913 0.8896 0.8876 0.8860 0.8845
2443.544705 0.8840 0.8840 0.8840 0.8840 0.8840
2448.243229 0.8840 0.8840 0.8840 0.8840 0.8840
2452.941754 0.8840 0.8840 0.8836 0.8831 0.8830
2457.640278 0.8830 0.8830 0.8830 0.8830 0.8830
2462.338803 0.8830 0.8830 0.8830 0.8830 0.8819
2467.037327 0.8804 0.8789 0.8774 0.8770 0.8770
2471.735852 0.8752 0.8727 0.8705 0.8685 0.8665
2476.434376 0.8645 0.8618 0.8588 0.8562 0.8537
2481.132901 0.8508 0.8478 0.8429 0.8374 0.8338
2485.831425 0.8308 0.8293 0.8282 0.8288 0.8298
2490.529949 0.8338 0.8388 0.8419 0.8444 0.8465
2495.228474 0.8485 0.8501 0.8516 0.8524 0.8529
2499.926998 0.8564 0.8609 0.8643 0.8673 0.8703
2504.625523 0.8733 0.8756 0.8776 0.8800 0.8825
2509.324047 0.8846 0.8866 0.8882 0.8897 0.8912
2514.022572 0.8927 0.8942 0.8957 0.8972 0.8987
2518.721096 0.8994 0.8999 0.9008 0.9018 0.9028
2523.419621 0.9038 0.9048 0.9058 0.9060 0.9060
2528.118145 0.9064 0.9069 0.9078 0.9088 0.9094
2532.816669 0.9099 0.9100 0.9100 0.9108 0.9118
2537.515194 0.9120 0.9120 0.9120 0.9120 0.9120
2542.213718 0.9120 0.9124 0.9129 0.9130 0.9130
2546.912243 0.9130 0.9130 0.9130 0.9130 0.9130
2551.610767 0.9130 0.9130 0.9130 0.9130 0.9130
2556.309292 0.9126 0.9121 0.9120 0.9120 0.9120
2561.007816 0.9120 0.9120 0.9120 0.9120 0.9120
2565.706340 0.9120 0.9120 0.9120 0.9120 0.9120
2570.404865 0.9120 0.9120 0.9120 0.9120 0.9120
2575.103389 0.9120 0.9120 0.9120 0.9120 0.9120
2579.801914 0.9120 0.9124 0.9130 0.9130 0.9130
2584.500438 0.9130 0.9130 0.9130 0.9130 0.9125
2589.198963 0.9120 0.9120 0.9120 0.9120 0.9120
2593.897487 0.9111 0.9101 0.9095 0.9090 0.9076
2598.596012 0.9061 0.9032 0.9002 0.8958 0.8913
2603.294536 0.8873 0.8833 0.8807 0.8782 0.8747
2607.993060 0.8712 0.8701 0.8691 0.8699 0.8709
2612.691585 0.8724 0.8739 0.8759 0.8779 0.8794
2617.390109 0.8809 0.8824 0.8839 0.8854 0.8869
2622.088634 0.8884 0.8899 0.8905 0.8910 0.8925
2626.787158 0.8940 0.8950 0.8960 0.8975 0.8990
2631.485683 0.9005 0.9020 0.9039 0.9059 0.9079
2636.184207 0.9099 0.9125 0.9150 0.9150 0.9150
2640.882732 0.9165 0.9180 0.9180 0.9180 0.9185
2645.581256 0.9190 0.9200 0.9210 0.9215 0.9220
2650.279780 0.9225 0.9230 0.9230 0.9230 0.9240
2654.978305 0.9250 0.9255 0.9260 0.9270 0.9280
2659.676829 0.9285 0.9290 0.9290 0.9290 0.9300
2664.375354 0.9310 0.9310 0.9310 0.9310 0.9310
2669.073878 0.9315 0.9320 0.9320 0.9320 0.9320
2673.772403 0.9320 0.9320 0.9320 0.9320 0.9320
2678.470927 0.9320 0.9320 0.9320 0.9320 0.9320
2683.169452 0.9320 0.9320 0.9320 0.9320 0.9320
2687.867976 0.9320 0.9320 0.9320 0.9320 0.9315
2692.566500 0.9310 0.9310 0.9309 0.9299 0.9290
2697.265025 0.9290 0.9290 0.9285 0.9280 0.9280
2701.963549 0.9279 0.9269 0.9260 0.9255 0.9250
2706.662074 0.9250 0.9249 0.9239 0.9230 0.9225
2711.360598 0.9220 0.9215 0.9209 0.9199 0.9189
2716.059123 0.9184 0.9179 0.9169 0.9158 0.9143
2720.757647 0.9130 0.9130 0.9130 0.9130 0.9129
2725.456171 0.9124 0.9120 0.9120 0.9119 0.9109
2730.154696 0.9099 0.9094 0.9090 0.9090 0.9090
2734.853220 0.9090 0.9090 0.9090 0.9089 0.9079
2739.551745 0.9070 0.9070 0.9070 0.9070 0.9070
2744.250269 0.9070 0.9070 0.9070 0.9071 0.9081
2748.948794 0.9091 0.9096 0.9102 0.9112 0.9121
2753.647318 0.9126 0.9132 0.9142 0.9151 0.9156
2758.345843 0.9160 0.9160 0.9162 0.9172 0.9180
2763.044367 0.9180 0.9180 0.9180 0.9180 0.9180
2767.742891 0.9180 0.9180 0.9180 0.9180 0.9180
2772.441416 0.9180 0.9180 0.9180 0.9180 0.9180
2777.139940 0.9178 0.9168 0.9160 0.9160 0.9159
2781.838465 0.9154 0.9148 0.9138 0.9130 0.9130
2786.536989 0.9129 0.9124 0.9118 0.9108 0.9099
2791.235514 0.9094 0.9088 0.9078 0.9069 0.9064
2795.934038 0.9057 0.9042 0.9029 0.9024 0.9011
2800.632563 0.8971 0.8937 0.8922 0.8910 0.8910
2805.331087 0.8909 0.8904 0.8897 0.8887 0.8880
2810.029611 0.8880 0.8879 0.8874 0.8867 0.8857
2814.728136 0.8850 0.8850 0.8849 0.8844 0.8839
2819.426660 0.8834 0.8827 0.8817 0.8810 0.8810
2824.125185 0.8809 0.8804 0.8797 0.8787 0.8780
2828.823709 0.8780 0.8779 0.8774 0.8767 0.8757
2833.522234 0.8750 0.8750 0.8749 0.8744 0.8737
2838.220758 0.8727 0.8719 0.8714 0.8707 0.8697
2842.919282 0.8689 0.8683 0.8677 0.8667 0.8658
2847.617807 0.8653 0.8648 0.8643 0.8637 0.8627
2852.316331 0.8618 0.8613 0.8607 0.8597 0.8588
2857.014856 0.8583 0.8577 0.8567 0.8558 0.8553
2861.713380 0.8547 0.8537 0.8528 0.8523 0.8517
2866.411905 0.8507 0.8498 0.8493 0.8485 0.8470
2871.110429 0.8458 0.8453 0.8447 0.8437 0.8428
2875.808954 0.8423 0.8417 0.8407 0.8398 0.8393
2880.507478 0.8386 0.8376 0.8368 0.8363 0.8356
2885.206002 0.8346 0.8338 0.8333 0.8326 0.8316
2889.904527 0.8308 0.8303 0.8296 0.8286 0.8278
2894.603051 0.8273 0.8270 0.8270 0.8272 0.8277
2899.301576 0.8286 0.8301 0.8314 0.8324 0.8336
2904.000100 0.8351 0.8362 0.8367 0.8376 0.8391
2908.698625 0.8404 0.8414 0.8426 0.8441 0.8452
2913.397149 0.8457 0.8466 0.8481 0.8490 0.8490
2918.095674 0.8486 0.8476 0.8466 0.8456 0.8444
2922.794198 0.8429 0.8414 0.8399 0.8377 0.8347
2927.492722 0.8324 0.8308 0.8296 0.8286 0.8276
2932.191247 0.8266 0.8247 0.8217 0.8193 0.8178
2936.889771 0.8170 0.8170 0.8170 0.8170 0.8165
2941.588296 0.8155 0.8143 0.8128 0.8113 0.8098
2946.286820 0.8078 0.8053 0.8026 0.7996 0.7961
2950.985345 0.7921 0.7884 0.7849 0.7814 0.7779
2955.683869 0.7739 0.7693 0.7668 0.7663 0.7626
2960.382394 0.7556 0.7473 0.7378 0.7310 0.7270
2965.080918 0.7243 0.7228 0.7215 0.7205 0.7198
2969.779442 0.7193 0.7165 0.7115 0.7070 0.7030
2974.477967 0.6992 0.6957 0.6932 0.6917 0.6910
2979.176491 0.6910 0.6871 0.6796 0.6739 0.6699
2983.875016 0.6659 0.6619 0.6590 0.6570 0.6555
2988.573540 0.6545 0.6545 0.6555 0.6570 0.6590
2993.272065 0.6608 0.6623 0.6644 0.6669 0.6688
2997.970589 0.6703 0.6715 0.6725 0.6735 0.6745
3002.669113 0.6753 0.6758 0.6777 0.6807 0.6834
3007.367638 0.6859 0.6881 0.6901 0.6927 0.6957
3012.066162 0.6981 0.7001 0.7024 0.7049 0.7069
3016.764687 0.7084 0.7084 0.7074 0.7067 0.7062
3021.463211 0.7017 0.6942 0.6855 0.6760 0.6691
3026.161736 0.6641 0.6603 0.6573 0.6493 0.6378
3030.860260 0.6239 0.6082 0.5993 0.5948 0.5891
3035.558785 0.5826 0.5791 0.5776 0.5767 0.5762
3040.257309 0.5763 0.5768 0.5770 0.5770 0.5773
3044.955833 0.5778 0.5789 0.5804 0.5816 0.5826
3049.654358 0.5839 0.5854 0.5863 0.5868 0.5880
3054.352882 0.5895 0.5910 0.5925 0.5936 0.5946
3059.051407 0.5940 0.5925 0.5914 0.5904 0.5897
3063.749931 0.5892 0.5884 0.5874 0.5860 0.5845
3068.448456 0.5840 0.5840 0.5837 0.5832 0.5823
3073.146980 0.5813 0.5810 0.5810 0.5810 0.5810
3077.845505 0.5810 0.5810 0.5810 0.5810 0.5817
3082.544029 0.5827 0.5830 0.5830 0.5840 0.5855
3087.242553 0.5870 0.5885 0.5900 0.5915 0.5937
3091.941078 0.5962 0.6019 0.6089 0.6176 0.6271
3096.639602 0.6359 0.6444 0.6522 0.6597 0.6623
3101.338127 0.6628 0.6630 0.6630 0.6627 0.6622
3106.036651 0.6588 0.6543 0.6476 0.6401 0.6333
3110.735176 0.6268 0.6199 0.6129 0.5983 0.5808
3115.433700 0.5659 0.5519 0.5382 0.5247 0.5116
3120.132224 0.4986 0.4950 0.4950 0.4994 0.5054
3124.830749 0.5155 0.5271 0.4966 0.4521 0.4410
3129.529273 0.4410 0.4568 0.4778 0.5150 0.5575
3134.227798 0.5295 0.4785 0.4683 0.4713 0.4867
3138.926322 0.5062 0.5189 0.5294 0.5407 0.5522
3143.624847 0.5634 0.5745 0.6094 0.6509 0.6834
3148.323371 0.7134 0.7360 0.7565 0.7723 0.7868
3153.021896 0.7986 0.8096 0.8214 0.8334 0.8462
3157.720420 0.8592 0.8679 0.8754 0.8809 0.8859
3162.418944 0.8874 0.8879 0.8888 0.8898 0.8904
3167.117469 0.8909 0.8918 0.8928 0.8983 0.9048
3171.815993 0.9076 0.9096 0.9108 0.9118 0.9165
3176.514518 0.9220 0.9238 0.9248 0.9254 0.9259
3181.213042 0.9268 0.9278 0.9297 0.9317 0.9320
3185.911567 0.9320 0.9328 0.9338 0.9340 0.9340
3190.610091 0.9340 0.9340 0.9340 0.9340 0.9332
3195.308616 0.9322 0.9320 0.9320 0.9316 0.9311
3200.007140 0.9310 0.9310 0.9310 0.9310 0.9310
3204.705664 0.9310 0.9310 0.9310 0.9301 0.9291
3209.404189 0.9290 0.9290 0.9290 0.9290 0.9290
3214.102713 0.9290 0.9290 0.9290 0.9290 0.9290
3218.801238 0.9290 0.9290 0.9299 0.9309 0.9310
3223.499762 0.9310 0.9310 0.9310 0.9310 0.9310
3228.198287 0.9310 0.9310 0.9315 0.9320 0.9320
3232.896811 0.9320 0.9320 0.9320 0.9320 0.9320
3237.595336 0.9320 0.9320 0.9320 0.9320 0.9329
3242.293860 0.9339 0.9340 0.9340 0.9340 0.9340
3246.992384 0.9340 0.9340 0.9340 0.9340 0.9340
3251.690909 0.9340 0.9331 0.9321 0.9315 0.9310
3256.389433 0.9310 0.9310 0.9300 0.9290 0.9285
3261.087958 0.9280 0.9280 0.9280 0.9270 0.9260
3265.786482 0.9260 0.9260 0.9255 0.9250 0.9250
3270.485007 0.9250 0.9250 0.9250 0.9250 0.9250
3275.183531 0.9250 0.9250 0.9250 0.9250 0.9255
3279.882055 0.9260 0.9270 0.9280 0.9280 0.9280
3284.580580 0.9285 0.9290 0.9300 0.9310 0.9310
3289.279104 0.9310 0.9315 0.9320 0.9330 0.9340
3293.977629 0.9340 0.9340 0.9345 0.9350 0.9350
3298.676153 0.9350 0.9350 0.9350 0.9360 0.9370
3303.374678 0.9370 0.9370 0.9370 0.9370 0.9375
3308.073202 0.9380 0.9390 0.9400 0.9400 0.9400
3312.771727 0.9405 0.9410 0.9410 0.9410 0.9415
3317.470251 0.9420 0.9420 0.9420 0.9430 0.9440
3322.168775 0.9440 0.9440 0.9445 0.9450 0.9450
3326.867300 0.9450 0.9460 0.9470 0.9470 0.9470
3331.565824 0.9475 0.9480 0.9480 0.9480 0.9480
3336.264349 0.9481 0.9491 0.9500 0.9500 0.9500
3340.962873 0.9505 0.9510 0.9510 0.9510 0.9510
3345.661398 0.9511 0.9521 0.9530 0.9530 0.9530
3350.359922 0.9530 0.9530 0.9530 0.9530 0.9530
3355.058447 0.9530 0.9530 0.9530 0.9530 0.9530
3359.756971 0.9530 0.9530 0.9530 0.9530 0.9530
3364.455495 0.9530 0.9530 0.9530 0.9530 0.9530
3369.154020 0.9530 0.9530 0.9530 0.9530 0.9530
3373.852544 0.9530 0.9530 0.9530 0.9530 0.9530
3378.551069 0.9530 0.9530 0.9530 0.9530 0.9530
3383.249593 0.9530 0.9530 0.9530 0.9530 0.9530
3387.948118 0.9530 0.9530 0.9530 0.9530 0.9530
3392.646642 0.9528 0.9518 0.9510 0.9510 0.9510
3397.345166 0.9510 0.9510 0.9510 0.9510 0.9510
3402.043691 0.9510 0.9510 0.9510 0.9510 0.9510
3406.742215 0.9510 0.9510 0.9510 0.9510 0.9510
3411.440740 0.9510 0.9510 0.9510 0.9510 0.9510
3416.139264 0.9510 0.9510 0.9510 0.9510 0.9510
3420.837789 0.9510 0.9510 0.9510 0.9510 0.9510
3425.536313 0.9510 0.9510 0.9510 0.9512 0.9522
3430.234838 0.9530 0.9530 0.9530 0.9530 0.9530
3434.933362 0.9530 0.9531 0.9536 0.9540 0.9540
3439.631886 0.9540 0.9540 0.9540 0.9540 0.9540
3444.330411 0.9540 0.9540 0.9540 0.9540 0.9540
3449.028935 0.9540 0.9540 0.9540 0.9540 0.9540
3453.727460 0.9540 0.9540 0.9540 0.9540 0.9540
3458.425984 0.9540 0.9540 0.9540 0.9540 0.9540
3463.124509 0.9540 0.9540 0.9540 0.9540 0.9540
3467.823033 0.9540 0.9540 0.9540 0.9540 0.9540
3472.521558 0.9540 0.9540 0.9540 0.9540 0.9540
3477.220082 0.9540 0.9540 0.9540 0.9540 0.9540
3481.918606 0.9540 0.9540 0.9540 0.9540 0.9540
3486.617131 0.9540 0.9540 0.9540 0.9540 0.9538
3491.315655 0.9533 0.9530 0.9530 0.9530 0.9530
3496.014180 0.9530 0.9530 0.9527 0.9517 0.9510
3500.712704 0.9510 0.9508 0.9503 0.9500 0.9500
3505.411229 0.9500 0.9500 0.9500 0.9500 0.9500
3510.109753 0.9500 0.9500 0.9500 0.9500 0.9500
3514.808278 0.9500 0.9500 0.9502 0.9507 0.9513
3519.506802 0.9524 0.9530 0.9530 0.9530 0.9530
3524.205326 0.9530 0.9530 0.9530 0.9530 0.9530
3528.903851 0.9530 0.9530 0.9530 0.9530 0.9530
3533.602375 0.9532 0.9537 0.9540 0.9540 0.9540
3538.300900 0.9540 0.9540 0.9540 0.9540 0.9540
3542.999424 0.9540 0.9540 0.9540 0.9540 0.9540
3547.697949 0.9540 0.9544 0.9554 0.9560 0.9560
3552.396473 0.9560 0.9560 0.9560 0.9560 0.9560
3557.094997 0.9560 0.9560 0.9560 0.9560 0.9560
3561.793522 0.9554 0.9539 0.9524 0.9509 0.9502
3566.492046 0.9507 0.9521 0.9546 0.9560 0.9560
3571.190571 0.9560 0.9560 0.9560 0.9560 0.9556
3575.889095 0.9546 0.9540 0.9540 0.9540 0.9540
3580.587620 0.9520 0.9475 0.9443 0.9428 0.9425
3585.286144 0.9435 0.9460 0.9505 0.9530 0.9530
3589.984669 0.9530 0.9530 0.9530 0.9530 0.9530
3594.683193 0.9530 0.9530 0.9530 0.9525 0.9515
3599.381717 0.9510 0.9510 0.9510 0.9510 0.9510
3604.080242 0.9510 0.9508 0.9503 0.9500 0.9500
3608.778766 0.9500 0.9500 0.9500 0.9500 0.9495
3613.477291 0.9485 0.9480 0.9480 0.9480 0.9480
3618.175815 0.9480 0.9480 0.9452 0.9397 0.9362
3622.874340 0.9347 0.9343 0.9348 0.9376 0.9426
3627.572864 0.9450 0.9450 0.9450 0.9450 0.9447
3632.271389 0.9442 0.9440 0.9440 0.9440 0.9440
3636.969913 0.9435 0.9425 0.9417 0.9412 0.9399
3641.668437 0.9379 0.9327 0.9247 0.9188 0.9148
3646.366962 0.9127 0.9122 0.9131 0.9151 0.9165
3651.065486 0.9176 0.9183 0.9188 0.9196 0.9206
3655.764011 0.9210 0.9210 0.9210 0.9210 0.9210
3660.462535 0.9210 0.9210 0.9210 0.9210 0.9210
3665.161060 0.9210 0.9210 0.9204 0.9194 0.9178
3669.859584 0.9158 0.9126 0.9086 0.9037 0.8982
3674.558108 0.8945 0.8920 0.8937 0.8982 0.9054
3679.256633 0.9144 0.9180 0.9180 0.9171 0.9156
3683.955157 0.9168 0.9198 0.9225 0.9250 0.9278
3688.653682 0.9309 0.9336 0.9361 0.9382 0.9402
3693.352206 0.9410 0.9410 0.9419 0.9434 0.9443
3698.050731 0.9448 0.9456 0.9466 0.9470 0.9470
3702.749255 0.9473 0.9478 0.9480 0.9480 0.9480
3707.447780 0.9480 0.9487 0.9497 0.9500 0.9500
3712.146304 0.9500 0.9500 0.9500 0.9500 0.9500
3716.844828 0.9500 0.9500 0.9500 0.9500 0.9500
3721.543353 0.9493 0.9483 0.9480 0.9480 0.9480
3726.241877 0.9480 0.9470 0.9455 0.9440 0.9425
3730.940402 0.9403 0.9378 0.9360 0.9345 0.9340
3735.638926 0.9340 0.9350 0.9365 0.9384 0.9404
3740.337451 0.9376 0.9326 0.9276 0.9226 0.9259
3745.035975 0.9330 0.9382 0.9427 0.9461 0.9491
3749.734500 0.9504 0.9509 0.9517 0.9527 0.9534
3754.433024 0.9539 0.9540 0.9540 0.9547 0.9557
3759.131548 0.9560 0.9560 0.9564 0.9569 0.9555
3763.830073 0.9535 0.9541 0.9556 0.9564 0.9569
3768.528597 0.9570 0.9570 0.9577 0.9587 0.9590
3773.227122 0.9590 0.9590 0.9590 0.9590 0.9590
3777.925646 0.9590 0.9590 0.9590 0.9590 0.9594
3782.624171 0.9599 0.9600 0.9600 0.9600 0.9600
3787.322695 0.9600 0.9600 0.9600 0.9600 0.9600
3792.021220 0.9600
##END=
