##TITLE=GLYCINONITRILE, N-METHYLENE-
##JCAMP-DX=4.24
$$ By DXEDIT 1.05 (RS McDonald)
##DATA TYPE=INFRARED SPECTRUM
##CLASS=COBLENTZ III
##ORIGIN=WYANDOTTE CHEMICALS CORP.
##OWNER=COBLENTZ SOC.
Collection (C) 2018 copyright by the U.S. Secretary of Commerce
on behalf of the United States of America. All rights reserved.
##DATE=Not specified, most likely prior to 1970
##NAMES=(methyleneamino)acetonitrile
##CAS REGISTRY NO=109-82-0
##MOLFORM=C3 H4 N2
##MP=128-129.5 C
##SOURCE REFERENCE=COBLENTZ NO. 05918
##$NIST SOURCE=COBLENTZ
##$NIST IMAGE=cob5918
##SPECTROMETER/DATA SYSTEM=BAIRD (GRATING)
##INSTRUMENT PARAMETERS=NaCl PRISM
##STATE=SOLID (OIL MULL)
##PATH LENGTH=
$$SPECTRAL CONTAMINATION DUE TO OIL AROUND 1470 AND 2900 CM^-^1
##SAMPLING PROCEDURE=TRANSMISSION
##RESOLUTION=2
##DATA PROCESSING=DIGITIZED BY COBLENTZ SOCIETY (BATCH I) FROM HARD COPY
##XUNITS=1/CM
##YUNITS=TRANSMITTANCE
##XLABEL=Wavenumbers (cm-1)
##YLABEL=Transmittance
##XFACTOR=1
##YFACTOR=1
##DELTAX=1
##FIRSTX=4000
##LASTX=626
##FIRSTY=0.4502
##MAXX=4000
##MINX=626
##MAXY=0.8702
##MINY=0.0196
##NPOINTS=3375
##XYDATA=(X++(Y..Y))
4000.000000 0.4502 0.4502 0.4503 0.4504 0.4505
3995.000000 0.4506 0.4507 0.4508 0.4510 0.4510
3990.000000 0.4512 0.4514 0.4515 0.4517 0.4518
3985.000000 0.4520 0.4522 0.4523 0.4525 0.4526
3980.000000 0.4528 0.4529 0.4531 0.4532 0.4533
3975.000000 0.4535 0.4536 0.4538 0.4540 0.4541
3970.000000 0.4543 0.4544 0.4546 0.4547 0.4549
3965.000000 0.4551 0.4552 0.4554 0.4555 0.4557
3960.000000 0.4559 0.4560 0.4562 0.4562 0.4565
3955.000000 0.4567 0.4568 0.4569 0.4571 0.4572
3950.000000 0.4574 0.4575 0.4577 0.4578 0.4580
3945.000000 0.4582 0.4583 0.4585 0.4586 0.4588
3940.000000 0.4590 0.4591 0.4593 0.4595 0.4596
3935.000000 0.4597 0.4599 0.4600 0.4602 0.4603
3930.000000 0.4605 0.4606 0.4608 0.4610 0.4610
3925.000000 0.4612 0.4615 0.4616 0.4618 0.4619
3920.000000 0.4621 0.4623 0.4624 0.4626 0.4628
3915.000000 0.4629 0.4631 0.4632 0.4634 0.4636
3910.000000 0.4637 0.4638 0.4640 0.4641 0.4643
3905.000000 0.4645 0.4646 0.4648 0.4649 0.4651
3900.000000 0.4653 0.4654 0.4656 0.4657 0.4659
3895.000000 0.4660 0.4662 0.4662 0.4665 0.4667
3890.000000 0.4668 0.4670 0.4672 0.4673 0.4675
3885.000000 0.4676 0.4677 0.4679 0.4680 0.4682
3880.000000 0.4683 0.4685 0.4686 0.4688 0.4689
3875.000000 0.4691 0.4693 0.4694 0.4696 0.4698
3870.000000 0.4699 0.4701 0.4702 0.4704 0.4705
3865.000000 0.4707 0.4708 0.4710 0.4710 0.4712
3860.000000 0.4715 0.4716 0.4718 0.4719 0.4721
3855.000000 0.4722 0.4724 0.4725 0.4727 0.4728
3850.000000 0.4730 0.4732 0.4733 0.4735 0.4737
3845.000000 0.4738 0.4740 0.4741 0.4743 0.4744
3840.000000 0.4746 0.4747 0.4749 0.4750 0.4752
3835.000000 0.4754 0.4755 0.4757 0.4759 0.4760
3830.000000 0.4762 0.4764 0.4765 0.4767 0.4768
3825.000000 0.4770 0.4771 0.4773 0.4774 0.4776
3820.000000 0.4778 0.4779 0.4781 0.4782 0.4784
3815.000000 0.4785 0.4787 0.4788 0.4790 0.4791
3810.000000 0.4793 0.4795 0.4796 0.4798 0.4799
3805.000000 0.4801 0.4802 0.4804 0.4805 0.4806
3800.000000 0.4808 0.4809 0.4810 0.4810 0.4812
3795.000000 0.4814 0.4815 0.4816 0.4818 0.4819
3790.000000 0.4821 0.4822 0.4823 0.4825 0.4826
3785.000000 0.4827 0.4828 0.4829 0.4831 0.4832
3780.000000 0.4833 0.4834 0.4836 0.4837 0.4838
3775.000000 0.4840 0.4841 0.4842 0.4844 0.4845
3770.000000 0.4846 0.4848 0.4849 0.4850 0.4851
3765.000000 0.4853 0.4854 0.4855 0.4857 0.4858
3760.000000 0.4860 0.4860 0.4862 0.4862 0.4865
3755.000000 0.4866 0.4867 0.4869 0.4870 0.4871
3750.000000 0.4873 0.4874 0.4876 0.4877 0.4878
3745.000000 0.4879 0.4881 0.4882 0.4883 0.4884
3740.000000 0.4886 0.4887 0.4888 0.4889 0.4891
3735.000000 0.4892 0.4894 0.4895 0.4897 0.4898
3730.000000 0.4899 0.4901 0.4902 0.4904 0.4905
3725.000000 0.4907 0.4908 0.4910 0.4910 0.4912
3720.000000 0.4914 0.4915 0.4916 0.4918 0.4919
3715.000000 0.4920 0.4922 0.4923 0.4924 0.4926
3710.000000 0.4927 0.4929 0.4930 0.4932 0.4933
3705.000000 0.4935 0.4936 0.4938 0.4939 0.4940
3700.000000 0.4942 0.4943 0.4945 0.4946 0.4948
3695.000000 0.4949 0.4951 0.4952 0.4953 0.4955
3690.000000 0.4956 0.4957 0.4959 0.4960 0.4960
3685.000000 0.4962 0.4964 0.4966 0.4967 0.4969
3680.000000 0.4970 0.4972 0.4973 0.4975 0.4976
3675.000000 0.4978 0.4979 0.4981 0.4982 0.4984
3670.000000 0.4985 0.4986 0.4987 0.4989 0.4990
3665.000000 0.4991 0.4992 0.4994 0.4995 0.4996
3660.000000 0.4997 0.4998 0.4999 0.5000 0.5001
3655.000000 0.5002 0.5004 0.5005 0.5006 0.5007
3650.000000 0.5008 0.5009 0.5010 0.5010 0.5012
3645.000000 0.5012 0.5014 0.5015 0.5016 0.5017
3640.000000 0.5018 0.5020 0.5021 0.5022 0.5023
3635.000000 0.5024 0.5025 0.5026 0.5027 0.5028
3630.000000 0.5029 0.5030 0.5031 0.5032 0.5033
3625.000000 0.5034 0.5036 0.5037 0.5038 0.5039
3620.000000 0.5040 0.5041 0.5042 0.5044 0.5045
3615.000000 0.5046 0.5047 0.5048 0.5049 0.5050
3610.000000 0.5051 0.5052 0.5053 0.5054 0.5055
3605.000000 0.5056 0.5058 0.5059 0.5060 0.5060
3600.000000 0.5062 0.5062 0.5064 0.5066 0.5067
3595.000000 0.5068 0.5069 0.5069 0.5070 0.5072
3590.000000 0.5073 0.5074 0.5075 0.5076 0.5077
3585.000000 0.5079 0.5080 0.5081 0.5082 0.5083
3580.000000 0.5083 0.5084 0.5085 0.5085 0.5086
3575.000000 0.5086 0.5087 0.5088 0.5088 0.5089
3570.000000 0.5090 0.5090 0.5091 0.5092 0.5093
3565.000000 0.5093 0.5094 0.5094 0.5095 0.5096
3560.000000 0.5096 0.5097 0.5097 0.5098 0.5099
3555.000000 0.5099 0.5100 0.5100 0.5101 0.5102
3550.000000 0.5102 0.5103 0.5104 0.5105 0.5106
3545.000000 0.5106 0.5107 0.5107 0.5108 0.5109
3540.000000 0.5109 0.5110 0.5110 0.5110 0.5112
3535.000000 0.5112 0.5112 0.5114 0.5115 0.5116
3530.000000 0.5116 0.5117 0.5117 0.5118 0.5119
3525.000000 0.5119 0.5120 0.5120 0.5121 0.5122
3520.000000 0.5122 0.5123 0.5123 0.5124 0.5125
3515.000000 0.5125 0.5126 0.5127 0.5128 0.5129
3510.000000 0.5129 0.5130 0.5130 0.5131 0.5132
3505.000000 0.5132 0.5133 0.5134 0.5134 0.5135
3500.000000 0.5135 0.5136 0.5137 0.5137 0.5138
3495.000000 0.5138 0.5139 0.5140 0.5140 0.5141
3490.000000 0.5141 0.5142 0.5143 0.5143 0.5144
3485.000000 0.5145 0.5145 0.5146 0.5146 0.5147
3480.000000 0.5148 0.5148 0.5149 0.5150 0.5150
3475.000000 0.5151 0.5151 0.5152 0.5153 0.5153
3470.000000 0.5154 0.5155 0.5155 0.5156 0.5156
3465.000000 0.5157 0.5158 0.5158 0.5159 0.5160
3460.000000 0.5160 0.5160 0.5160 0.5162 0.5162
3455.000000 0.5162 0.5164 0.5165 0.5165 0.5166
3450.000000 0.5166 0.5167 0.5168 0.5168 0.5169
3445.000000 0.5170 0.5170 0.5171 0.5171 0.5172
3440.000000 0.5172 0.5172 0.5172 0.5172 0.5172
3435.000000 0.5172 0.5172 0.5172 0.5172 0.5172
3430.000000 0.5172 0.5172 0.5172 0.5172 0.5172
3425.000000 0.5172 0.5172 0.5172 0.5172 0.5172
3420.000000 0.5172 0.5172 0.5172 0.5172 0.5172
3415.000000 0.5172 0.5172 0.5172 0.5172 0.5172
3410.000000 0.5171 0.5171 0.5170 0.5170 0.5170
3405.000000 0.5169 0.5168 0.5167 0.5166 0.5165
3400.000000 0.5165 0.5164 0.5162 0.5162 0.5162
3395.000000 0.5160 0.5160 0.5159 0.5158 0.5158
3390.000000 0.5157 0.5156 0.5156 0.5155 0.5154
3385.000000 0.5153 0.5152 0.5152 0.5151 0.5150
3380.000000 0.5150 0.5149 0.5148 0.5148 0.5147
3375.000000 0.5147 0.5147 0.5146 0.5145 0.5145
3370.000000 0.5144 0.5143 0.5143 0.5142 0.5142
3365.000000 0.5142 0.5141 0.5140 0.5140 0.5139
3360.000000 0.5139 0.5139 0.5139 0.5139 0.5139
3355.000000 0.5139 0.5140 0.5141 0.5142 0.5143
3350.000000 0.5144 0.5145 0.5146 0.5147 0.5148
3345.000000 0.5149 0.5150 0.5151 0.5152 0.5153
3340.000000 0.5154 0.5154 0.5155 0.5156 0.5157
3335.000000 0.5158 0.5159 0.5160 0.5160 0.5162
3330.000000 0.5162 0.5164 0.5165 0.5166 0.5167
3325.000000 0.5168 0.5169 0.5170 0.5171 0.5172
3320.000000 0.5174 0.5174 0.5175 0.5176 0.5177
3315.000000 0.5178 0.5179 0.5181 0.5182 0.5183
3310.000000 0.5184 0.5185 0.5186 0.5187 0.5188
3305.000000 0.5189 0.5190 0.5191 0.5192 0.5193
3300.000000 0.5194 0.5196 0.5197 0.5198 0.5199
3295.000000 0.5200 0.5201 0.5202 0.5204 0.5205
3290.000000 0.5206 0.5207 0.5208 0.5209 0.5210
3285.000000 0.5212 0.5212 0.5212 0.5214 0.5215
3280.000000 0.5216 0.5218 0.5219 0.5220 0.5221
3275.000000 0.5222 0.5223 0.5225 0.5226 0.5226
3270.000000 0.5227 0.5228 0.5228 0.5229 0.5229
3265.000000 0.5230 0.5230 0.5231 0.5232 0.5232
3260.000000 0.5233 0.5234 0.5235 0.5235 0.5236
3255.000000 0.5237 0.5237 0.5238 0.5239 0.5239
3250.000000 0.5240 0.5241 0.5242 0.5242 0.5243
3245.000000 0.5244 0.5244 0.5245 0.5246 0.5246
3240.000000 0.5246 0.5246 0.5247 0.5247 0.5247
3235.000000 0.5247 0.5247 0.5247 0.5247 0.5247
3230.000000 0.5247 0.5248 0.5248 0.5248 0.5248
3225.000000 0.5248 0.5248 0.5248 0.5248 0.5248
3220.000000 0.5247 0.5247 0.5246 0.5245 0.5243
3215.000000 0.5242 0.5240 0.5239 0.5238 0.5236
3210.000000 0.5235 0.5233 0.5231 0.5230 0.5228
3205.000000 0.5226 0.5220 0.5215 0.5210 0.5204
3200.000000 0.5198 0.5193 0.5187 0.5181 0.5175
3195.000000 0.5170 0.5164 0.5158 0.5153 0.5148
3190.000000 0.5142 0.5137 0.5131 0.5126 0.5121
3185.000000 0.5116 0.5110 0.5106 0.5101 0.5096
3180.000000 0.5091 0.5087 0.5082 0.5077 0.5073
3175.000000 0.5068 0.5064 0.5059 0.5056 0.5053
3170.000000 0.5050 0.5048 0.5046 0.5046 0.5045
3165.000000 0.5045 0.5045 0.5045 0.5045 0.5045
3160.000000 0.5045 0.5045 0.5045 0.5045 0.5044
3155.000000 0.5044 0.5044 0.5044 0.5044 0.5044
3150.000000 0.5044 0.5044 0.5042 0.5041 0.5039
3145.000000 0.5037 0.5036 0.5034 0.5032 0.5031
3140.000000 0.5029 0.5027 0.5026 0.5024 0.5022
3135.000000 0.5020 0.5019 0.5017 0.5015 0.5012
3130.000000 0.5010 0.5010 0.5006 0.5003 0.5000
3125.000000 0.4997 0.4993 0.4989 0.4986 0.4982
3120.000000 0.4979 0.4975 0.4971 0.4968 0.4964
3115.000000 0.4960 0.4957 0.4953 0.4947 0.4941
3110.000000 0.4936 0.4930 0.4923 0.4917 0.4910
3105.000000 0.4905 0.4898 0.4892 0.4885 0.4879
3100.000000 0.4872 0.4866 0.4859 0.4853 0.4847
3095.000000 0.4840 0.4834 0.4825 0.4817 0.4808
3090.000000 0.4799 0.4791 0.4782 0.4774 0.4765
3085.000000 0.4756 0.4747 0.4738 0.4729 0.4720
3080.000000 0.4710 0.4702 0.4693 0.4685 0.4676
3075.000000 0.4667 0.4654 0.4641 0.4628 0.4615
3070.000000 0.4600 0.4586 0.4571 0.4556 0.4542
3065.000000 0.4527 0.4512 0.4497 0.4482 0.4467
3060.000000 0.4452 0.4430 0.4408 0.4385 0.4362
3055.000000 0.4341 0.4318 0.4296 0.4273 0.4251
3050.000000 0.4228 0.4205 0.4182 0.4157 0.4133
3045.000000 0.4109 0.4084 0.4059 0.4034 0.4008
3040.000000 0.3984 0.3959 0.3934 0.3862 0.3766
3035.000000 0.3672 0.3576 0.3500 0.3425 0.3349
3030.000000 0.3262 0.3147 0.3032 0.2917 0.2842
3025.000000 0.2791 0.2739 0.2688 0.2632 0.2577
3020.000000 0.2521 0.2465 0.2410 0.2354 0.2298
3015.000000 0.2242 0.2187 0.2131 0.2075 0.2019
3010.000000 0.1963 0.1907 0.1851 0.1794 0.1739
3005.000000 0.1683 0.1627 0.1571 0.1514 0.1458
3000.000000 0.1402 0.1345 0.1289 0.1232 0.1176
2995.000000 0.1119 0.1063 0.1006 0.0949 0.0892
2990.000000 0.0836 0.0779 0.0722 0.0666 0.0625
2985.000000 0.0588 0.0551 0.0522 0.0512 0.0503
2980.000000 0.0494 0.0485 0.0475 0.0466 0.0457
2975.000000 0.0447 0.0437 0.0427 0.0417 0.0408
2970.000000 0.0397 0.0387 0.0377 0.0366 0.0357
2965.000000 0.0348 0.0338 0.0328 0.0318 0.0309
2960.000000 0.0300 0.0290 0.0283 0.0276 0.0270
2955.000000 0.0263 0.0257 0.0251 0.0245 0.0240
2950.000000 0.0235 0.0232 0.0228 0.0225 0.0221
2945.000000 0.0217 0.0214 0.0211 0.0208 0.0206
2940.000000 0.0205 0.0205 0.0204 0.0203 0.0202
2935.000000 0.0201 0.0200 0.0199 0.0199 0.0198
2930.000000 0.0197 0.0197 0.0197 0.0196 0.0196
2925.000000 0.0196 0.0196 0.0196 0.0196 0.0196
2920.000000 0.0196 0.0196 0.0196 0.0196 0.0196
2915.000000 0.0197 0.0197 0.0198 0.0200 0.0201
2910.000000 0.0202 0.0203 0.0204 0.0204 0.0206
2905.000000 0.0207 0.0208 0.0208 0.0209 0.0210
2900.000000 0.0211 0.0212 0.0214 0.0215 0.0217
2895.000000 0.0220 0.0222 0.0225 0.0227 0.0229
2890.000000 0.0231 0.0233 0.0234 0.0236 0.0240
2885.000000 0.0242 0.0245 0.0248 0.0251 0.0254
2880.000000 0.0257 0.0260 0.0263 0.0266 0.0270
2875.000000 0.0274 0.0278 0.0284 0.0291 0.0298
2870.000000 0.0307 0.0317 0.0330 0.0341 0.0362
2865.000000 0.0383 0.0404 0.0431 0.0461 0.0491
2860.000000 0.0534 0.0594 0.0655 0.0722 0.0826
2855.000000 0.0932 0.1037 0.1073 0.1100 0.1127
2850.000000 0.1187 0.1267 0.1346 0.1442 0.1567
2845.000000 0.1690 0.1814 0.1937 0.2062 0.2185
2840.000000 0.2311 0.2434 0.2559 0.2684 0.2808
2835.000000 0.2932 0.3057 0.3182 0.3307 0.3432
2830.000000 0.3556 0.3680 0.3805 0.3899 0.3993
2825.000000 0.4087 0.4126 0.4155 0.4184 0.4219
2820.000000 0.4257 0.4294 0.4332 0.4369 0.4407
2815.000000 0.4443 0.4478 0.4512 0.4546 0.4579
2810.000000 0.4612 0.4644 0.4676 0.4707 0.4738
2805.000000 0.4768 0.4797 0.4826 0.4853 0.4878
2800.000000 0.4903 0.4924 0.4941 0.4959 0.4976
2795.000000 0.4994 0.5010 0.5031 0.5055 0.5079
2790.000000 0.5103 0.5124 0.5144 0.5165 0.5184
2785.000000 0.5203 0.5223 0.5242 0.5260 0.5279
2780.000000 0.5300 0.5321 0.5342 0.5368 0.5395
2775.000000 0.5422 0.5438 0.5449 0.5459 0.5469
2770.000000 0.5478 0.5487 0.5495 0.5500 0.5506
2765.000000 0.5510 0.5512 0.5514 0.5516 0.5519
2760.000000 0.5521 0.5523 0.5523 0.5477 0.5525
2755.000000 0.5525 0.5525 0.5525 0.5522 0.5519
2750.000000 0.5515 0.5510 0.5507 0.5502 0.5497
2745.000000 0.5492 0.5485 0.5474 0.5462 0.5452
2740.000000 0.5440 0.5428 0.5414 0.5395 0.5375
2735.000000 0.5356 0.5334 0.5312 0.5286 0.5246
2730.000000 0.5206 0.5165 0.5120 0.5076 0.5033
2725.000000 0.4997 0.4960 0.4927 0.4901 0.4875
2720.000000 0.4855 0.4847 0.4838 0.4833 0.4831
2715.000000 0.4829 0.4828 0.4828 0.4828 0.4828
2710.000000 0.4828 0.4828 0.4830 0.4834 0.4838
2705.000000 0.4843 0.4848 0.4854 0.4858 0.4862
2700.000000 0.4866 0.4868 0.4870 0.4872 0.4874
2695.000000 0.4876 0.4878 0.4868 0.4857 0.4844
2690.000000 0.4797 0.4750 0.4702 0.4654 0.4607
2685.000000 0.4559 0.4510 0.4464 0.4416 0.4368
2680.000000 0.4320 0.4272 0.4225 0.4177 0.4129
2675.000000 0.4080 0.4032 0.3984 0.3937 0.3888
2670.000000 0.3887 0.3887 0.3888 0.3891 0.3893
2665.000000 0.3896 0.3900 0.3904 0.3908 0.3912
2660.000000 0.3916 0.3925 0.3939 0.3953 0.3966
2655.000000 0.3978 0.3990 0.4000 0.4012 0.4025
2650.000000 0.4044 0.4062 0.4084 0.4110 0.4137
2645.000000 0.4165 0.4197 0.4228 0.4266 0.4306
2640.000000 0.4346 0.4454 0.4568 0.4678 0.4759
2635.000000 0.4840 0.4908 0.4952 0.4996 0.5025
2630.000000 0.5043 0.5060 0.5079 0.5097 0.5115
2625.000000 0.5134 0.5152 0.5169 0.5185 0.5201
2620.000000 0.5217 0.5233 0.5249 0.5266 0.5282
2615.000000 0.5299 0.5316 0.5334 0.5351 0.5369
2610.000000 0.5387 0.5404 0.5422 0.5439 0.5458
2605.000000 0.5476 0.5495 0.5512 0.5531 0.5550
2600.000000 0.5568 0.5587 0.5605 0.5624 0.5642
2595.000000 0.5660 0.5679 0.5696 0.5712 0.5727
2590.000000 0.5743 0.5759 0.5775 0.5791 0.5807
2585.000000 0.5823 0.5839 0.5855 0.5871 0.5887
2580.000000 0.5903 0.5919 0.5935 0.5950 0.5965
2575.000000 0.5980 0.5994 0.6008 0.6023 0.6037
2570.000000 0.6051 0.6065 0.6079 0.6093 0.6107
2565.000000 0.6122 0.6136 0.6150 0.6164 0.6178
2560.000000 0.6192 0.6206 0.6218 0.6228 0.6239
2555.000000 0.6249 0.6260 0.6270 0.6280 0.6291
2550.000000 0.6301 0.6310 0.6322 0.6332 0.6343
2545.000000 0.6353 0.6364 0.6374 0.6384 0.6394
2540.000000 0.6404 0.6412 0.6421 0.6428 0.6435
2535.000000 0.6441 0.6447 0.6451 0.6456 0.6458
2530.000000 0.6462 0.6465 0.6469 0.6474 0.6478
2525.000000 0.6481 0.6485 0.6488 0.6492 0.6496
2520.000000 0.6499 0.6503 0.6506 0.6510 0.6514
2515.000000 0.6518 0.6521 0.6524 0.6526 0.6530
2510.000000 0.6533 0.6535 0.6537 0.6540 0.6543
2505.000000 0.6546 0.6548 0.6551 0.6554 0.6556
2500.000000 0.6558 0.6561 0.6564 0.6567 0.6569
2495.000000 0.6572 0.6575 0.6576 0.6580 0.6583
2490.000000 0.6586 0.6588 0.6591 0.6594 0.6596
2485.000000 0.6599 0.6601 0.6603 0.6605 0.6606
2480.000000 0.6608 0.6610 0.6611 0.6614 0.6615
2475.000000 0.6617 0.6618 0.6619 0.6621 0.6622
2470.000000 0.6625 0.6626 0.6628 0.6631 0.6633
2465.000000 0.6634 0.6636 0.6638 0.6640 0.6642
2460.000000 0.6644 0.6647 0.6649 0.6651 0.6654
2455.000000 0.6656 0.6658 0.6661 0.6664 0.6665
2450.000000 0.6668 0.6671 0.6674 0.6675 0.6678
2445.000000 0.6681 0.6684 0.6686 0.6689 0.6692
2440.000000 0.6694 0.6697 0.6699 0.6701 0.6704
2435.000000 0.6707 0.6708 0.6712 0.6715 0.6721
2430.000000 0.6725 0.6731 0.6736 0.6740 0.6746
2425.000000 0.6751 0.6755 0.6760 0.6765 0.6768
2420.000000 0.6774 0.6778 0.6784 0.6790 0.6795
2415.000000 0.6800 0.6806 0.6811 0.6815 0.6821
2410.000000 0.6826 0.6833 0.6838 0.6843 0.6848
2405.000000 0.6854 0.6858 0.6864 0.6869 0.6875
2400.000000 0.6881 0.6886 0.6891 0.6897 0.6901
2395.000000 0.6908 0.6912 0.6918 0.6922 0.6928
2390.000000 0.6933 0.6938 0.6943 0.6948 0.6953
2385.000000 0.6958 0.6962 0.6968 0.6972 0.6978
2380.000000 0.6983 0.6988 0.6990 0.6992 0.6993
2375.000000 0.6994 0.6995 0.6995 0.6995 0.6996
2370.000000 0.6997 0.6998 0.6999 0.7000 0.7000
2365.000000 0.7001 0.7001 0.7001 0.7003 0.7003
2360.000000 0.7004 0.7004 0.7005 0.7005 0.7006
2355.000000 0.7007 0.7008 0.7008 0.7008 0.7008
2350.000000 0.7008 0.7010 0.7010 0.7011 0.7011
2345.000000 0.7012 0.7012 0.7014 0.7014 0.7015
2340.000000 0.7018 0.7019 0.7022 0.7025 0.7028
2335.000000 0.7030 0.7033 0.7036 0.7039 0.7042
2330.000000 0.7044 0.7047 0.7049 0.7051 0.7054
2325.000000 0.7057 0.7060 0.7062 0.7065 0.7068
2320.000000 0.7071 0.7075 0.7078 0.7081 0.7085
2315.000000 0.7088 0.7091 0.7094 0.7097 0.7100
2310.000000 0.7103 0.7107 0.7110 0.7112 0.7117
2305.000000 0.7119 0.7124 0.7128 0.7132 0.7135
2300.000000 0.7139 0.7143 0.7148 0.7151 0.7155
2295.000000 0.7158 0.7162 0.7167 0.7171 0.7175
2290.000000 0.7178 0.7183 0.7187 0.7191 0.7194
2285.000000 0.7198 0.7201 0.7206 0.7210 0.7214
2280.000000 0.7217 0.7221 0.7225 0.7228 0.7233
2275.000000 0.7237 0.7241 0.7244 0.7248 0.7251
2270.000000 0.7255 0.7258 0.7261 0.7265 0.7268
2265.000000 0.7272 0.7275 0.7280 0.7283 0.7286
2260.000000 0.7289 0.7292 0.7295 0.7297 0.7300
2255.000000 0.7303 0.7306 0.7308 0.7311 0.7315
2250.000000 0.7318 0.7321 0.7322 0.7325 0.7326
2245.000000 0.7328 0.7331 0.7332 0.7334 0.7336
2240.000000 0.7337 0.7337 0.7336 0.7331 0.7326
2235.000000 0.7321 0.7312 0.7276 0.7240 0.7203
2230.000000 0.7167 0.7137 0.7108 0.7078 0.7050
2225.000000 0.7025 0.7001 0.6978 0.6954 0.6930
2220.000000 0.6907 0.6883 0.6851 0.6797 0.6712
2215.000000 0.6561 0.6438 0.6366 0.6314 0.6255
2210.000000 0.6280 0.6278 0.6276 0.6274 0.6273
2205.000000 0.6273 0.6279 0.6291 0.6307 0.6324
2200.000000 0.6342 0.6359 0.6377 0.6396 0.6415
2195.000000 0.6437 0.6456 0.6475 0.6496 0.6517
2190.000000 0.6541 0.6565 0.6589 0.6612 0.6638
2185.000000 0.6661 0.6686 0.6710 0.6734 0.6758
2180.000000 0.6783 0.6807 0.6830 0.6851 0.6871
2175.000000 0.6890 0.6908 0.6928 0.6948 0.6967
2170.000000 0.6986 0.7003 0.7018 0.7033 0.7047
2165.000000 0.7060 0.7072 0.7087 0.7100 0.7114
2160.000000 0.7126 0.7140 0.7151 0.7161 0.7171
2155.000000 0.7182 0.7193 0.7204 0.7214 0.7224
2150.000000 0.7235 0.7245 0.7256 0.7265 0.7275
2145.000000 0.7286 0.7296 0.7306 0.7315 0.7325
2140.000000 0.7336 0.7346 0.7356 0.7365 0.7375
2135.000000 0.7386 0.7396 0.7407 0.7418 0.7430
2130.000000 0.7441 0.7453 0.7465 0.7475 0.7488
2125.000000 0.7495 0.7501 0.7506 0.7511 0.7517
2120.000000 0.7522 0.7528 0.7534 0.7540 0.7546
2115.000000 0.7551 0.7557 0.7562 0.7568 0.7574
2110.000000 0.7580 0.7585 0.7591 0.7597 0.7601
2105.000000 0.7608 0.7614 0.7619 0.7625 0.7632
2100.000000 0.7637 0.7643 0.7649 0.7654 0.7660
2095.000000 0.7665 0.7671 0.7676 0.7683 0.7689
2090.000000 0.7695 0.7701 0.7707 0.7711 0.7718
2085.000000 0.7724 0.7730 0.7735 0.7741 0.7747
2080.000000 0.7754 0.7760 0.7765 0.7771 0.7776
2075.000000 0.7783 0.7789 0.7794 0.7800 0.7806
2070.000000 0.7811 0.7818 0.7824 0.7830 0.7836
2065.000000 0.7842 0.7848 0.7854 0.7860 0.7865
2060.000000 0.7871 0.7876 0.7883 0.7889 0.7896
2055.000000 0.7901 0.7908 0.7914 0.7919 0.7925
2050.000000 0.7932 0.7938 0.7944 0.7949 0.7955
2045.000000 0.7961 0.7968 0.7974 0.7980 0.7986
2040.000000 0.7992 0.7998 0.8004 0.8010 0.8015
2035.000000 0.8019 0.8022 0.8025 0.8028 0.8033
2030.000000 0.8037 0.8040 0.8044 0.8047 0.8050
2025.000000 0.8054 0.8057 0.8060 0.8062 0.8065
2020.000000 0.8068 0.8071 0.8074 0.8075 0.8078
2015.000000 0.8081 0.8084 0.8086 0.8089 0.8091
2010.000000 0.8094 0.8097 0.8100 0.8101 0.8105
2005.000000 0.8107 0.8110 0.8111 0.8115 0.8115
2000.000000 0.8118 0.8118 0.8118 0.8118 0.8119
1995.000000 0.8121 0.8121 0.8121 0.8122 0.8124
1990.000000 0.8125 0.8125 0.8125 0.8126 0.8126
1985.000000 0.8128 0.8128 0.8128 0.8130 0.8130
1980.000000 0.8132 0.8133 0.8133 0.8134 0.8135
1975.000000 0.8135 0.8136 0.8137 0.8137 0.8138
1970.000000 0.8139 0.8139 0.8139 0.8139 0.8138
1965.000000 0.8138 0.8138 0.8137 0.8137 0.8137
1960.000000 0.8137 0.8136 0.8136 0.8136 0.8135
1955.000000 0.8135 0.8135 0.8135 0.8135 0.8134
1950.000000 0.8134 0.8134 0.8134 0.8135 0.8135
1945.000000 0.8136 0.8137 0.8137 0.8138 0.8138
1940.000000 0.8139 0.8140 0.8140 0.8142 0.8143
1935.000000 0.8143 0.8144 0.8145 0.8145 0.8146
1930.000000 0.8147 0.8148 0.8148 0.8150 0.8151
1925.000000 0.8154 0.8156 0.8158 0.8161 0.8164
1920.000000 0.8165 0.8168 0.8171 0.8174 0.8175
1915.000000 0.8178 0.8181 0.8184 0.8188 0.8192
1910.000000 0.8197 0.8202 0.8206 0.8210 0.8215
1905.000000 0.8220 0.8224 0.8228 0.8233 0.8237
1900.000000 0.8242 0.8247 0.8252 0.8256 0.8260
1895.000000 0.8264 0.8267 0.8271 0.8275 0.8278
1890.000000 0.8283 0.8287 0.8290 0.8295 0.8298
1885.000000 0.8302 0.8306 0.8310 0.8314 0.8318
1880.000000 0.8320 0.8321 0.8325 0.8327 0.8328
1875.000000 0.8332 0.8334 0.8336 0.8338 0.8341
1870.000000 0.8343 0.8345 0.8347 0.8349 0.8349
1865.000000 0.8348 0.8347 0.8347 0.8346 0.8345
1860.000000 0.8344 0.8344 0.8343 0.8342 0.8341
1855.000000 0.8338 0.8335 0.8332 0.8328 0.8325
1850.000000 0.8321 0.8318 0.8316 0.8316 0.8317
1845.000000 0.8318 0.8318 0.8320 0.8321 0.8328
1840.000000 0.8345 0.8361 0.8378 0.8396 0.8413
1835.000000 0.8428 0.8440 0.8448 0.8457 0.8466
1830.000000 0.8474 0.8483 0.8491 0.8499 0.8505
1825.000000 0.8505 0.8505 0.8506 0.8506 0.8506
1820.000000 0.8506 0.8507 0.8507 0.8507 0.8505
1815.000000 0.8502 0.8500 0.8498 0.8495 0.8493
1810.000000 0.8491 0.8488 0.8485 0.8483 0.8481
1805.000000 0.8478 0.8475 0.8474 0.8471 0.8471
1800.000000 0.8471 0.8473 0.8474 0.8475 0.8477
1795.000000 0.8480 0.8482 0.8483 0.8485 0.8486
1790.000000 0.8488 0.8489 0.8491 0.8492 0.8494
1785.000000 0.8496 0.8497 0.8499 0.8502 0.8506
1780.000000 0.8509 0.8513 0.8516 0.8520 0.8523
1775.000000 0.8527 0.8530 0.8534 0.8538 0.8541
1770.000000 0.8545 0.8548 0.8552 0.8556 0.8559
1765.000000 0.8562 0.8566 0.8570 0.8573 0.8577
1760.000000 0.8580 0.8583 0.8582 0.8582 0.8581
1755.000000 0.8580 0.8578 0.8578 0.8577 0.8575
1750.000000 0.8575 0.8574 0.8573 0.8571 0.8571
1745.000000 0.8570 0.8568 0.8568 0.8566 0.8566
1740.000000 0.8564 0.8562 0.8561 0.8560 0.8558
1735.000000 0.8557 0.8556 0.8554 0.8553 0.8551
1730.000000 0.8550 0.8549 0.8547 0.8546 0.8545
1725.000000 0.8543 0.8541 0.8541 0.8539 0.8537
1720.000000 0.8536 0.8535 0.8533 0.8531 0.8531
1715.000000 0.8528 0.8528 0.8527 0.8525 0.8524
1710.000000 0.8523 0.8521 0.8520 0.8518 0.8518
1705.000000 0.8517 0.8515 0.8515 0.8513 0.8512
1700.000000 0.8510 0.8509 0.8508 0.8506 0.8505
1695.000000 0.8503 0.8500 0.8497 0.8494 0.8491
1690.000000 0.8489 0.8486 0.8482 0.8480 0.8475
1685.000000 0.8473 0.8471 0.8468 0.8465 0.8462
1680.000000 0.8459 0.8456 0.8453 0.8450 0.8447
1675.000000 0.8445 0.8445 0.8445 0.8445 0.8446
1670.000000 0.8446 0.8446 0.8446 0.8447 0.8447
1665.000000 0.8447 0.8448 0.8448 0.8449 0.8449
1660.000000 0.8449 0.8449 0.8451 0.8455 0.8458
1655.000000 0.8461 0.8464 0.8468 0.8471 0.8474
1650.000000 0.8478 0.8482 0.8485 0.8488 0.8492
1645.000000 0.8494 0.8497 0.8499 0.8502 0.8505
1640.000000 0.8507 0.8509 0.8512 0.8515 0.8518
1635.000000 0.8521 0.8521 0.8525 0.8528 0.8531
1630.000000 0.8534 0.8536 0.8538 0.8541 0.8544
1625.000000 0.8547 0.8549 0.8552 0.8554 0.8557
1620.000000 0.8560 0.8563 0.8565 0.8568 0.8571
1615.000000 0.8573 0.8577 0.8580 0.8583 0.8586
1610.000000 0.8590 0.8593 0.8596 0.8599 0.8602
1605.000000 0.8605 0.8608 0.8612 0.8615 0.8618
1600.000000 0.8621 0.8624 0.8628 0.8631 0.8634
1595.000000 0.8637 0.8641 0.8644 0.8647 0.8651
1590.000000 0.8653 0.8656 0.8659 0.8662 0.8664
1585.000000 0.8666 0.8668 0.8671 0.8673 0.8675
1580.000000 0.8677 0.8678 0.8681 0.8683 0.8685
1575.000000 0.8688 0.8690 0.8692 0.8694 0.8695
1570.000000 0.8696 0.8696 0.8697 0.8697 0.8698
1565.000000 0.8698 0.8699 0.8699 0.8700 0.8701
1560.000000 0.8701 0.8702 0.8702 0.8702 0.8702
1555.000000 0.8700 0.8698 0.8696 0.8694 0.8692
1550.000000 0.8690 0.8688 0.8686 0.8683 0.8680
1545.000000 0.8677 0.8674 0.8671 0.8668 0.8665
1540.000000 0.8661 0.8658 0.8655 0.8650 0.8644
1535.000000 0.8639 0.8632 0.8627 0.8620 0.8615
1530.000000 0.8609 0.8599 0.8589 0.8580 0.8570
1525.000000 0.8560 0.8551 0.8541 0.8530 0.8515
1520.000000 0.8499 0.8483 0.8468 0.8452 0.8436
1515.000000 0.8420 0.8401 0.8381 0.8362 0.8341
1510.000000 0.8321 0.8301 0.8280 0.8252 0.8225
1505.000000 0.8197 0.8165 0.8117 0.8055 0.7994
1500.000000 0.7887 0.7265 0.6865 0.6621 0.6380
1495.000000 0.6139 0.5898 0.5656 0.5414 0.5172
1490.000000 0.4929 0.4687 0.4443 0.4199 0.3956
1485.000000 0.3712 0.3466 0.3223 0.2977 0.2732
1480.000000 0.2485 0.2239 0.1993 0.1745 0.1499
1475.000000 0.1255 0.1176 0.1151 0.1140 0.1133
1470.000000 0.1134 0.1135 0.1142 0.1155 0.1179
1465.000000 0.1218 0.1278 0.1342 0.1409 0.1495
1460.000000 0.1690 0.1822 0.1925 0.2016 0.2113
1455.000000 0.2193 0.2238 0.2264 0.2278 0.2282
1450.000000 0.2285 0.2288 0.2280 0.2263 0.2217
1445.000000 0.2149 0.2046 0.1986 0.1949 0.1934
1440.000000 0.1932 0.1941 0.1950 0.1956 0.1961
1435.000000 0.1967 0.1967 0.1967 0.1944 0.1907
1430.000000 0.1864 0.1821 0.1784 0.1754 0.1737
1425.000000 0.1735 0.1734 0.1734 0.1751 0.1777
1420.000000 0.1818 0.1953 0.2145 0.2340 0.2534
1415.000000 0.2731 0.2927 0.3123 0.3320 0.3516
1410.000000 0.3712 0.3910 0.4109 0.4307 0.4498
1405.000000 0.4578 0.4556 0.4528 0.4512 0.4512
1400.000000 0.4512 0.4532 0.4571 0.4620 0.4682
1395.000000 0.4842 0.4788 0.4795 0.4709 0.4512
1390.000000 0.4315 0.4117 0.3916 0.3718 0.3518
1385.000000 0.3318 0.3119 0.2919 0.2817 0.2817
1380.000000 0.2820 0.2829 0.2848 0.2884 0.2922
1375.000000 0.2956 0.2988 0.3016 0.3037 0.3047
1370.000000 0.3058 0.3071 0.3103 0.3145 0.3221
1365.000000 0.3380 0.3545 0.3709 0.3875 0.4040
1360.000000 0.4206 0.4373 0.4538 0.4697 0.4785
1355.000000 0.4771 0.4770 0.4692 0.4544 0.4394
1350.000000 0.4244 0.4094 0.3943 0.3792 0.3640
1345.000000 0.3489 0.3384 0.3382 0.3389 0.3404
1340.000000 0.3423 0.3446 0.3458 0.3466 0.3425
1335.000000 0.3212 0.3000 0.2787 0.2573 0.2359
1330.000000 0.2145 0.1929 0.1715 0.1500 0.1400
1325.000000 0.1326 0.1352 0.1358 0.1446 0.1654
1320.000000 0.1864 0.2072 0.2281 0.2490 0.2700
1315.000000 0.2910 0.3120 0.3330 0.3541 0.3753
1310.000000 0.3964 0.4176 0.4388 0.4498 0.4499
1305.000000 0.4500 0.4490 0.4401 0.4304 0.4207
1300.000000 0.4110 0.4008 0.4034 0.4151 0.4344
1295.000000 0.4537 0.4730 0.4923 0.5117 0.5310
1290.000000 0.5505 0.5594 0.5622 0.5635 0.5634
1285.000000 0.5645 0.5648 0.5653 0.5596 0.5460
1280.000000 0.5324 0.5189 0.5056 0.4997 0.4986
1275.000000 0.5060 0.5300 0.5554 0.5809 0.6064
1270.000000 0.6320 0.6571 0.6671 0.6748 0.6815
1265.000000 0.6875 0.6936 0.6998 0.7049 0.7083
1260.000000 0.7110 0.7126 0.7125 0.7118 0.7105
1255.000000 0.6856 0.6455 0.6053 0.5650 0.5246
1250.000000 0.4843 0.4586 0.4572 0.4660 0.4891
1245.000000 0.5128 0.5367 0.5605 0.5845 0.6084
1240.000000 0.6324 0.6551 0.6651 0.6733 0.6828
1235.000000 0.6925 0.7037 0.7148 0.7238 0.7318
1230.000000 0.7394 0.7465 0.7611 0.7580 0.7606
1225.000000 0.7606 0.7607 0.7587 0.7548 0.7458
1220.000000 0.7503 0.7519 0.7548 0.7582 0.7612
1215.000000 0.7638 0.7649 0.7653 0.7651 0.7651
1210.000000 0.7644 0.7639 0.7634 0.7611 0.7580
1205.000000 0.7548 0.7503 0.7449 0.7395 0.7328
1200.000000 0.7241 0.7150 0.7018 0.6885 0.6704
1195.000000 0.6484 0.6010 0.5593 0.5115 0.4654
1190.000000 0.4292 0.3929 0.3566 0.3202 0.2838
1185.000000 0.2472 0.2106 0.1725 0.1458 0.1391
1180.000000 0.1280 0.1340 0.1329 0.1322 0.1332
1175.000000 0.1367 0.1469 0.1604 0.1736 0.1872
1170.000000 0.1983 0.2014 0.2016 0.2007 0.1881
1165.000000 0.1737 0.1596 0.1452 0.1308 0.1315
1160.000000 0.1316 0.1317 0.1355 0.1456 0.1778
1155.000000 0.2209 0.2641 0.3074 0.3507 0.3941
1150.000000 0.4376 0.4812 0.5248 0.5685 0.6123
1145.000000 0.6350 0.6461 0.6537 0.6572 0.6594
1140.000000 0.6599 0.6571 0.6545 0.6503 0.6432
1135.000000 0.6282 0.5950 0.5507 0.5062 0.4619
1130.000000 0.4174 0.3727 0.3280 0.2833 0.2384
1125.000000 0.1946 0.1678 0.1510 0.1345 0.1180
1120.000000 0.1152 0.1172 0.1220 0.1312 0.1524
1115.000000 0.1791 0.2184 0.2574 0.2962 0.3352
1110.000000 0.3742 0.4196 0.4671 0.4875 0.5029
1105.000000 0.5138 0.5208 0.5234 0.5225 0.5179
1100.000000 0.4800 0.4387 0.3971 0.3556 0.3142
1095.000000 0.3020 0.3011 0.3038 0.3091 0.3194
1090.000000 0.3803 0.4570 0.5370 0.5541 0.5693
1085.000000 0.5847 0.6014 0.6177 0.6312 0.6447
1080.000000 0.6568 0.6660 0.6751 0.6836 0.6914
1075.000000 0.6992 0.7064 0.7133 0.7199 0.7262
1070.000000 0.7324 0.7375 0.7425 0.7478 0.7521
1065.000000 0.7556 0.7568 0.7565 0.7551 0.7528
1060.000000 0.7491 0.7458 0.7440 0.7451 0.7478
1055.000000 0.7524 0.7568 0.7611 0.7654 0.7687
1050.000000 0.7706 0.7715 0.7722 0.7725 0.7728
1045.000000 0.7704 0.7730 0.7730 0.7730 0.7728
1040.000000 0.7724 0.7715 0.7700 0.7676 0.7631
1035.000000 0.7571 0.7486 0.7387 0.7184 0.6140
1030.000000 0.5670 0.5360 0.4457 0.3496 0.2534
1025.000000 0.1851 0.1636 0.1526 0.1478 0.1438
1020.000000 0.1413 0.1375 0.1386 0.1405 0.1518
1015.000000 0.1741 0.2200 0.2660 0.3121 0.3582
1010.000000 0.4045 0.4504 0.4722 0.4916 0.5127
1005.000000 0.5345 0.5570 0.5734 0.5881 0.6008
1000.000000 0.6109 0.6203 0.6271 0.6336 0.6400
995.000000 0.6458 0.6503 0.6545 0.6572 0.6597
990.000000 0.6612 0.6622 0.6633 0.6651 0.6644
985.000000 0.6637 0.6624 0.6588 0.6511 0.6400
980.000000 0.6273 0.6157 0.6037 0.5914 0.5793
975.000000 0.5547 0.5106 0.4662 0.4221 0.3776
970.000000 0.3373 0.3322 0.3336 0.3392 0.3556
965.000000 0.3779 0.4004 0.4229 0.4454 0.4679
960.000000 0.4905 0.5099 0.5272 0.5448 0.5615
955.000000 0.5781 0.5943 0.6048 0.6112 0.6167
950.000000 0.6214 0.6254 0.6287 0.6305 0.6312
945.000000 0.6321 0.6300 0.6284 0.6236 0.6116
940.000000 0.5912 0.5631 0.5359 0.4958 0.4386
935.000000 0.3770 0.3153 0.2534 0.1965 0.1834
930.000000 0.1875 0.1921 0.2057 0.2334 0.2844
925.000000 0.3353 0.3864 0.4376 0.4888 0.5403
920.000000 0.5918 0.6284 0.6434 0.6555 0.6693
915.000000 0.6758 0.6787 0.6796 0.6793 0.6758
910.000000 0.6683 0.6567 0.6431 0.6274 0.6069
905.000000 0.5444 0.4824 0.4202 0.3579 0.2953
900.000000 0.2328 0.1700 0.1434 0.1453 0.1467
895.000000 0.1590 0.2044 0.2599 0.3083 0.3568
890.000000 0.4055 0.4542 0.5023 0.5391 0.5780
885.000000 0.6046 0.6304 0.6512 0.6728 0.6896
880.000000 0.7005 0.7095 0.7172 0.7225 0.7262
875.000000 0.7283 0.7291 0.7285 0.7265 0.7193
870.000000 0.7040 0.6421 0.5989 0.5731 0.5468
865.000000 0.4543 0.4041 0.3540 0.3037 0.2533
860.000000 0.1949 0.1809 0.1666 0.1534 0.1463
855.000000 0.1426 0.1502 0.1629 0.1770 0.1991
850.000000 0.2425 0.2783 0.3082 0.3382 0.3684
845.000000 0.3984 0.4240 0.4509 0.4866 0.5230
840.000000 0.5543 0.5779 0.5944 0.6108 0.6269
835.000000 0.6414 0.6533 0.6630 0.6680 0.6724
830.000000 0.6749 0.6772 0.6794 0.6811 0.6828
825.000000 0.6857 0.6897 0.6939 0.7000 0.7071
820.000000 0.7141 0.7211 0.7291 0.7378 0.7467
815.000000 0.7540 0.7588 0.7635 0.7681 0.7725
810.000000 0.7768 0.7811 0.7855 0.7899 0.7943
805.000000 0.7978 0.8010 0.8041 0.8072 0.8104
800.000000 0.8137 0.8165 0.8185 0.8205 0.8225
795.000000 0.8247 0.8267 0.8285 0.8304 0.8323
790.000000 0.8341 0.8358 0.8374 0.8390 0.8406
785.000000 0.8421 0.8432 0.8442 0.8445 0.8418
780.000000 0.8432 0.8409 0.8385 0.8361 0.8364
775.000000 0.8368 0.8373 0.8385 0.8397 0.8407
770.000000 0.8411 0.8415 0.8404 0.8392 0.8378
765.000000 0.8362 0.8344 0.8324 0.8300 0.8277
760.000000 0.8246 0.8218 0.8186 0.8208 0.8233
755.000000 0.8256 0.8273 0.8292 0.8315 0.8338
750.000000 0.8362 0.8377 0.8386 0.8395 0.8402
745.000000 0.8408 0.8414 0.8440 0.8417 0.8411
740.000000 0.8403 0.8392 0.8375 0.8358 0.8337
735.000000 0.8307 0.8277 0.8245 0.8212 0.8178
730.000000 0.8130 0.8060 0.7978 0.7900 0.7818
725.000000 0.7714 0.7640 0.7601 0.7569 0.7606
720.000000 0.7583 0.7624 0.7699 0.7797 0.7898
715.000000 0.8004 0.8107 0.8187 0.8267 0.8370
710.000000 0.8451 0.8512 0.8552 0.8582 0.8610
705.000000 0.8637 0.8646 0.8630 0.8653 0.8650
700.000000 0.8646 0.8600 0.8524 0.8425 0.8251
695.000000 0.7984 0.7531 0.7178 0.6969 0.6862
690.000000 0.6910 0.7001 0.7228 0.7455 0.7625
685.000000 0.7798 0.7965 0.8110 0.8262 0.8357
680.000000 0.8425 0.8489 0.8536 0.8575 0.8602
675.000000 0.8617 0.8631 0.8628 0.8618 0.8615
670.000000 0.8594 0.8571 0.8556 0.8504 0.8436
665.000000 0.8341 0.8260 0.8236 0.8235 0.8234
660.000000 0.8247 0.8215 0.8151 0.8082 0.8015
655.000000 0.7960 0.7904 0.7851 0.7801 0.7749
650.000000 0.7687 0.7625 0.7564 0.7496 0.7422
645.000000 0.7364 0.7346 0.7335 0.7325 0.7317
640.000000 0.7311 0.7306 0.7304 0.7289 0.7265
635.000000 0.7222 0.7185 0.7147 0.7108 0.7069
630.000000 0.7040 0.7039 0.7039 0.7048 0.7053
##END=
