##TITLE=FORMIC ACID, ETHYL ESTER
##JCAMP-DX=4.24
##DATA TYPE=INFRARED SPECTRUM
##CLASS=COBLENTZ
##ORIGIN=DOW CHEMICAL COMPANY
##OWNER=COBLENTZ SOCIETY
Collection (C) 2018 copyright by the U.S. Secretary of Commerce
on behalf of the United States of America. All rights reserved.
##DATE=1964
##NAMES=ethyl formate
ETHYL FORMATE
##CAS REGISTRY NO=109-94-4
##MOLFORM=C3 H6 O2
##SOURCE REFERENCE=COBLENTZ NO. 8776
##$NIST SOURCE=COBLENTZ
##$NIST IMAGE=cob-r8776
##SPECTROMETER/DATA SYSTEM=DOW KBr FOREPRISM-GRATING
##INSTRUMENT PARAMETERS=GRATING CHANGED AT 5.0, 7.5, 15.0 MICRON
##STATE=GAS (50 mmHg, N2 ADDED, TOTAL PRESSURE 600 mmHg)
##PATH LENGTH=5 CM
##SAMPLING PROCEDURE=TRANSMISSION
##RESOLUTION=2
##DATA PROCESSING=DIGITIZED BY NIST FROM HARD COPY (FROM TWO SEGMENTS)
##XUNITS=1/CM
##YUNITS=TRANSMITTANCE
##XFACTOR=1.000000
##YFACTOR=1
##DELTAX=0.935310
##FIRSTX=392.206
##LASTX=3783.64
##FIRSTY=0.92
##MAXX=3783.64
##MINX=392.206
##MAXY=1.026
##MINY=0.001
##NPOINTS=3627
##XYDATA=(X++(Y..Y))
392.206000 0.9200 0.9200 0.9200 0.9200 0.9200
396.882552 0.9200 0.9200 0.9200 0.9200 0.9200
401.559105 0.9200 0.9200 0.9200 0.9200 0.9200
406.235657 0.9190 0.9190 0.9190 0.9190 0.9190
410.912209 0.9190 0.9160 0.9160 0.9160 0.9170
415.588761 0.9170 0.9170 0.9170 0.9170 0.9170
420.265314 0.9160 0.9160 0.9160 0.9160 0.9140
424.941866 0.9140 0.9130 0.9130 0.9130 0.9110
429.618418 0.9080 0.9060 0.9010 0.8980 0.8950
434.294970 0.8940 0.8920 0.8920 0.8880 0.8850
438.971523 0.8820 0.8810 0.8780 0.8760 0.8730
443.648075 0.8720 0.8690 0.8670 0.8640 0.8630
448.324627 0.8600 0.8590 0.8560 0.8560 0.8540
453.001180 0.8540 0.8540 0.8530 0.8530 0.8540
457.677732 0.8540 0.8560 0.8560 0.8570 0.8600
462.354284 0.8630 0.8660 0.8690 0.8700 0.8750
467.030836 0.8790 0.8820 0.8850 0.8910 0.8940
471.707389 0.9000 0.9060 0.9110 0.9140 0.9200
476.383941 0.9260 0.9330 0.9350 0.9380 0.9440
481.060493 0.9500 0.9550 0.9580 0.9610 0.9640
485.737045 0.9690 0.9720 0.9770 0.9790 0.9800
490.413598 0.9850 0.9880 0.9890 0.9910 0.9920
495.090150 0.9950 0.9950 0.9970 0.9970 0.9970
499.766702 0.9980 1.0000 1.0000 1.0010 1.0010
504.443254 1.0020 1.0020 1.0020 1.0020 1.0020
509.119807 1.0020 1.0020 1.0040 1.0040 1.0040
513.796359 1.0040 1.0040 1.0040 1.0050 1.0050
518.472911 1.0050 1.0050 1.0050 1.0050 1.0050
523.149464 1.0050 1.0050 1.0050 1.0070 1.0080
527.826016 1.0080 1.0100 1.0100 1.0100 1.0100
532.502568 1.0110 1.0110 1.0110 1.0110 1.0110
537.179120 1.0130 1.0130 1.0130 1.0110 1.0100
541.855673 1.0100 1.0100 1.0100 1.0100 1.0110
546.532225 1.0110 1.0110 1.0110 1.0110 1.0130
551.208777 1.0130 1.0130 1.0140 1.0140 1.0140
555.885329 1.0130 1.0130 1.0110 1.0110 1.0130
560.561882 1.0130 1.0130 1.0130 1.0110 1.0110
565.238434 1.0100 1.0100 1.0100 1.0100 1.0100
569.914986 1.0100 1.0100 1.0100 1.0100 1.0080
574.591539 1.0080 1.0080 1.0080 1.0080 1.0100
579.268091 1.0100 1.0110 1.0110 1.0110 1.0100
583.944643 1.0100 1.0100 1.0100 1.0100 1.0100
588.621195 1.0080 1.0080 1.0070 1.0040 1.0020
593.297748 1.0010 1.0010 1.0010 1.0010 1.0010
597.974300 1.0010 1.0010 1.0000 1.0000 0.9980
602.650852 0.9970 0.9950 0.9920 0.9910 0.9910
607.327404 0.9890 0.9890 0.9880 0.9860 0.9860
612.003957 0.9880 0.9880 0.9880 0.9880 0.9880
616.680509 0.9860 0.9860 0.9860 0.9880 0.9890
621.357061 0.9910 0.9910 0.9910 0.9910 0.9910
626.033614 0.9890 0.9860 0.9800 0.9750 0.9630
630.710166 0.9530 0.9440 0.9420 0.9420 0.9470
635.386718 0.9500 0.9540 0.9540 0.9550 0.9550
640.063270 0.9600 0.9690 0.9790 0.9820 0.9880
644.739823 0.9890 0.9910 0.9920 0.9920 0.9920
649.416375 0.9940 0.9940 0.9980 0.9980 0.9980
654.092927 0.9970 0.9970 0.9970 0.9950 0.9950
658.769479 0.9950 1.0020 1.0020 1.0040 1.0050
663.446032 1.0050 1.0070 1.0070 1.0080 1.0080
668.122584 1.0100 1.0100 1.0110 1.0110 1.0130
672.799136 1.0130 1.0140 1.0140 1.0160 1.0160
677.475688 1.0160 1.0170 1.0170 1.0190 1.0190
682.152241 1.0200 1.0200 1.0200 1.0200 1.0220
686.828793 1.0220 1.0220 1.0230 1.0230 1.0230
691.505345 1.0240 1.0240 1.0240 1.0240 1.0240
696.181898 1.0240 1.0260 1.0260 1.0260 1.0260
700.858450 1.0260 1.0260 1.0260 1.0260 1.0260
705.535002 1.0260 1.0260 1.0260 1.0260 1.0260
710.211554 1.0260 1.0260 1.0260 1.0260 1.0260
714.888107 1.0240 1.0240 1.0240 1.0230 1.0220
719.564659 1.0190 1.0160 1.0110 1.0100 1.0080
724.241211 1.0040 1.0020 1.0010 1.0010 1.0000
728.917763 0.9980 0.9970 0.9910 0.9860 0.9800
733.594316 0.9800 0.9770 0.9770 0.9690 0.9660
738.270868 0.9640 0.9640 0.9630 0.9630 0.9630
742.947420 0.9630 0.9630 0.9630 0.9630 0.9630
747.623973 0.9610 0.9610 0.9600 0.9600 0.9580
752.300525 0.9580 0.9580 0.9600 0.9600 0.9630
756.977077 0.9630 0.9660 0.9690 0.9700 0.9720
761.653629 0.9760 0.9770 0.9790 0.9820 0.9830
766.330182 0.9880 0.9890 0.9910 0.9920 0.9950
771.006734 1.0000 1.0010 1.0020 1.0040 1.0050
775.683286 1.0050 1.0070 1.0080 1.0100 1.0100
780.359838 1.0110 1.0110 1.0100 1.0100 1.0080
785.036391 1.0080 1.0080 1.0070 1.0070 1.0050
789.712943 1.0040 1.0020 1.0010 1.0000 1.0000
794.389495 0.9980 0.9970 0.9950 0.9920 0.9890
799.066048 0.9890 0.9880 0.9830 0.9800 0.9750
803.742600 0.9720 0.9690 0.9640 0.9630 0.9600
808.419152 0.9570 0.9540 0.9510 0.9500 0.9470
813.095704 0.9440 0.9410 0.9380 0.9360 0.9260
817.772257 0.9230 0.9170 0.9100 0.8980 0.8920
822.448809 0.8860 0.8810 0.8750 0.8720 0.8630
827.125361 0.8540 0.8500 0.8390 0.8310 0.8121
831.801913 0.8000 0.7910 0.7840 0.7780 0.7750
836.478466 0.7730 0.7700 0.7690 0.7660 0.7650
841.155018 0.7630 0.7630 0.7620 0.7620 0.7630
845.831570 0.7790 0.7780 0.7760 0.7750 0.7750
850.508122 0.7750 0.7760 0.7760 0.7790 0.7840
855.184675 0.7900 0.7970 0.8060 0.8140 0.8190
859.861227 0.8320 0.8420 0.8560 0.8670 0.8730
864.537779 0.8790 0.8910 0.8940 0.8970 0.9060
869.214332 0.9110 0.9230 0.9350 0.9420 0.9480
873.890884 0.9570 0.9570 0.9580 0.9580 0.9580
878.567436 0.9630 0.9700 0.9790 0.9820 0.9830
883.243988 0.9850 0.9880 0.9890 0.9890 0.9890
887.920541 0.9880 0.9880 0.9880 0.9890 0.9920
892.597093 0.9950 0.9970 0.9970 0.9970 1.0000
897.273645 1.0010 1.0020 1.0020 1.0040 1.0050
901.950197 1.0070 1.0080 1.0080 1.0100 1.0130
906.626750 1.0140 1.0160 1.0170 1.0190 1.0190
911.303302 1.0200 1.0200 1.0220 1.0220 1.0220
915.979854 1.0220 1.0230 1.0230 1.0230 1.0230
920.656407 1.0230 1.0220 1.0220 1.0220 1.0200
925.332959 1.0200 1.0200 1.0200 1.0200 1.0220
930.009511 1.0220 1.0230 1.0230 1.0230 1.0230
934.686063 1.0230 1.0230 1.0230 1.0230 1.0240
939.362616 1.0240 1.0240 1.0240 1.0240 1.0240
944.039168 1.0240 1.0240 1.0240 1.0240 1.0240
948.715720 1.0240 1.0240 1.0230 1.0230 1.0230
953.392272 1.0230 1.0230 1.0230 1.0220 1.0220
958.068825 1.0200 1.0200 1.0190 1.0170 1.0170
962.745377 1.0160 1.0160 1.0160 1.0140 1.0130
967.421929 1.0100 1.0050 1.0040 1.0020 1.0000
972.098482 0.9970 0.9940 0.9910 0.9860 0.9820
976.775034 0.9790 0.9690 0.9610 0.9570 0.9500
981.451586 0.9420 0.9350 0.9250 0.9160 0.9060
986.128138 0.8980 0.8860 0.8750 0.8690 0.8560
990.804691 0.8370 0.8170 0.7970 0.7810 0.7670
995.481243 0.7410 0.7230 0.7130 0.7100 0.6931
1000.157795 0.6720 0.6660 0.6590 0.6490 0.6460
1004.834347 0.6460 0.6460 0.6430 0.6380 0.6340
1009.510900 0.6290 0.6240 0.6210 0.6210 0.6220
1014.187452 0.6270 0.6310 0.6350 0.6400 0.6440
1018.864004 0.6460 0.6510 0.6570 0.6600 0.6570
1023.540556 0.6540 0.6540 0.6570 0.6899 0.7179
1028.217109 0.7280 0.7380 0.7470 0.7540 0.7570
1032.893661 0.7600 0.7620 0.7620 0.7620 0.7620
1037.570213 0.7620 0.7600 0.7600 0.7590 0.7590
1042.246766 0.7590 0.7590 0.7570 0.7570 0.7570
1046.923318 0.7560 0.7560 0.7560 0.7560 0.7560
1051.599870 0.7560 0.7570 0.7570 0.7570 0.7590
1056.276422 0.7590 0.7620 0.7650 0.7660 0.7700
1060.952975 0.7570 0.7480 0.7380 0.7260 0.7350
1065.629527 0.7440 0.7440 0.7430 0.7410 0.7310
1070.306079 0.7190 0.7130 0.7090 0.7070 0.7010
1074.982631 0.6980 0.6960 0.6930 0.6910 0.6910
1079.659184 0.6880 0.6880 0.6880 0.6850 0.6840
1084.335736 0.6840 0.6840 0.6820 0.6820 0.6840
1089.012288 0.6840 0.6870 0.6940 0.6980 0.6980
1093.688841 0.7000 0.7010 0.7010 0.7030 0.7030
1098.365393 0.7010 0.6980 0.6940 0.6850 0.6840
1103.041945 0.6790 0.6599 0.6041 0.6690 0.6710
1107.718497 0.6710 0.6650 0.6560 0.6490 0.6460
1112.395050 0.6410 0.6340 0.6310 0.6280 0.6210
1117.071602 0.6150 0.6070 0.6060 0.6020 0.5821
1121.748154 0.5780 0.5620 0.5530 0.5500 0.5490
1126.424706 0.5470 0.5400 0.5370 0.5300 0.5250
1131.101259 0.5080 0.4910 0.4840 0.4680 0.4520
1135.777811 0.4220 0.4020 0.3750 0.3521 0.2732
1140.454363 0.2169 0.1800 0.1550 0.1380 0.1230
1145.130916 0.1050 0.0930 0.0820 0.0730 0.0640
1149.807468 0.0580 0.0510 0.0450 0.0420 0.0420
1154.484020 0.0410 0.0390 0.0320 0.0220 0.0200
1159.160572 0.0190 0.0170 0.0160 0.0140 0.0130
1163.837125 0.0110 0.0100 0.0080 0.0070 0.0050
1168.513677 0.0050 0.0040 0.0040 0.0040 0.0040
1173.190229 0.0040 0.0040 0.0040 0.0040 0.0040
1177.866781 0.0040 0.0050 0.0050 0.0050 0.0050
1182.543334 0.0050 0.0050 0.0050 0.0050 0.0070
1187.219886 0.0070 0.0070 0.0070 0.0070 0.0070
1191.896438 0.0080 0.0100 0.0100 0.0100 0.0100
1196.572990 0.0100 0.0110 0.0130 0.0140 0.0140
1201.249543 0.0160 0.0170 0.0200 0.0220 0.0270
1205.926095 0.0350 0.0451 0.1020 0.1100 0.1550
1210.602647 0.1960 0.2330 0.2669 0.2979 0.3249
1215.279200 0.3501 0.3720 0.3930 0.4120 0.4280
1219.955752 0.4430 0.4840 0.5130 0.5250 0.5499
1224.632304 0.5650 0.5820 0.6020 0.6070 0.6180
1229.308856 0.6270 0.6380 0.6490 0.6600 0.6680
1233.985409 0.6791 0.7060 0.7200 0.7290 0.7430
1238.661961 0.7570 0.7660 0.7780 0.7940 0.8120
1243.338513 0.8200 0.8320 0.8350 0.8390 0.8420
1248.015065 0.8500 0.8510 0.8510 0.8560 0.8660
1252.691618 0.8700 0.8720 0.8720 0.8730 0.8750
1257.368170 0.8780 0.8790 0.8810 0.8810 0.8850
1262.044722 0.8860 0.8860 0.8880 0.8880 0.8890
1266.721275 0.8890 0.8890 0.8890 0.8880 0.8880
1271.397827 0.8860 0.8860 0.8860 0.8860 0.8860
1276.074379 0.8850 0.8830 0.8820 0.8810 0.8790
1280.750931 0.8780 0.8760 0.8730 0.8730 0.8720
1285.427484 0.8660 0.8610 0.8590 0.8560 0.8540
1290.104036 0.8450 0.8350 0.8200 0.8010 0.7950
1294.780588 0.7790 0.7720 0.7590 0.7500 0.7480
1299.457140 0.7500 0.7510 0.7530 0.7530 0.7510
1304.133693 0.7510 0.7450 0.7370 0.7310 0.7230
1308.810245 0.7011 0.7232 0.7790 0.7810 0.7790
1313.486797 0.7790 0.7780 0.7780 0.7790 0.7810
1318.163350 0.7940 0.7980 0.8160 0.8310 0.8450
1322.839902 0.8590 0.8730 0.8830 0.8850 0.8920
1327.516454 0.9000 0.9130 0.9140 0.9190 0.9230
1332.193006 0.9300 0.9320 0.9330 0.9330 0.9330
1336.869559 0.9330 0.9320 0.9320 0.9300 0.9290
1341.546111 0.9280 0.9250 0.9230 0.9200 0.9170
1346.222663 0.9140 0.9130 0.9110 0.9100 0.9080
1350.899215 0.9010 0.8970 0.8920 0.8850 0.8820
1355.575768 0.8780 0.8750 0.8750 0.8720 0.8700
1360.252320 0.8640 0.8600 0.8570 0.8530 0.8510
1364.928872 0.8440 0.8370 0.8340 0.8320 0.8230
1369.605424 0.8200 0.8120 0.7920 0.7820 0.7780
1374.281977 0.7630 0.7510 0.7440 0.7230 0.7150
1378.958529 0.7040 0.6940 0.6780 0.6750 0.6740
1383.635081 0.6710 0.6710 0.6690 0.6690 0.6690
1388.311634 0.6660 0.6530 0.6350 0.6190 0.6280
1392.988186 0.6320 0.6460 0.6470 0.6500 0.6510
1397.664738 0.6530 0.6560 0.6570 0.6590 0.6630
1402.341290 0.6650 0.6660 0.6710 0.6740 0.6960
1407.017843 0.7100 0.7220 0.7290 0.7440 0.7730
1411.694395 0.7881 0.8060 0.8140 0.8260 0.8370
1416.370947 0.8470 0.8570 0.8690 0.8730 0.8750
1421.047499 0.8760 0.8760 0.8760 0.8760 0.8750
1425.724052 0.8750 0.8730 0.8720 0.8700 0.8690
1430.400604 0.8640 0.8610 0.8590 0.8540 0.8500
1435.077156 0.8450 0.8440 0.8380 0.8310 0.8290
1439.753709 0.8250 0.8190 0.8120 0.8070 0.8010
1444.430261 0.7970 0.7920 0.7850 0.7690 0.7650
1449.106813 0.7570 0.7500 0.7430 0.7350 0.7320
1453.783365 0.7350 0.7380 0.7400 0.7430 0.7440
1458.459918 0.7440 0.7450 0.7450 0.7470 0.7480
1463.136470 0.7500 0.7500 0.7500 0.7500 0.7500
1467.813022 0.7480 0.7480 0.7450 0.7450 0.7380
1472.489574 0.7280 0.6970 0.6970 0.7369 0.7450
1477.166127 0.7480 0.7510 0.7510 0.7530 0.7750
1481.842679 0.7820 0.7880 0.7940 0.7980 0.8040
1486.519231 0.8090 0.8120 0.8120 0.8130 0.8140
1491.195784 0.8220 0.8280 0.8380 0.8420 0.8450
1495.872336 0.8540 0.8630 0.8720 0.8760 0.8860
1500.548888 0.8920 0.9040 0.9130 0.9130 0.9140
1505.225440 0.9160 0.9170 0.9200 0.9280 0.9440
1509.901993 0.9480 0.9540 0.9580 0.9580 0.9600
1514.578545 0.9610 0.9630 0.9630 0.9640 0.9660
1519.255097 0.9660 0.9660 0.9690 0.9730 0.9760
1523.931649 0.9770 0.9790 0.9790 0.9800 0.9800
1528.608202 0.9800 0.9820 0.9820 0.9820 0.9820
1533.284754 0.9820 0.9800 0.9800 0.9790 0.9790
1537.961306 0.9760 0.9750 0.9770 0.9800 0.9830
1542.637858 0.9860 0.9880 0.9890 0.9890 0.9910
1547.314411 0.9910 0.9910 0.9910 0.9890 0.9890
1551.990963 0.9880 0.9860 0.9860 0.9850 0.9830
1556.667515 0.9800 0.9790 0.9790 0.9800 0.9830
1561.344068 0.9850 0.9880 0.9890 0.9890 0.9890
1566.020620 0.9890 0.9880 0.9880 0.9880 0.9880
1570.697172 0.9860 0.9860 0.9860 0.9860 0.9880
1575.373724 0.9890 0.9910 0.9910 0.9910 0.9910
1580.050277 0.9910 0.9890 0.9880 0.9880 0.9880
1584.726829 0.9880 0.9880 0.9880 0.9880 0.9860
1589.403381 0.9860 0.9850 0.9850 0.9850 0.9850
1594.079933 0.9850 0.9850 0.9850 0.9850 0.9850
1598.756486 0.9850 0.9830 0.9830 0.9820 0.9800
1603.433038 0.9800 0.9790 0.9800 0.9790 0.9790
1608.109590 0.9770 0.9770 0.9760 0.9750 0.9730
1612.786143 0.9690 0.9660 0.9640 0.9610 0.9610
1617.462695 0.9610 0.9610 0.9610 0.9600 0.9570
1622.139247 0.9570 0.9580 0.9580 0.9570 0.9570
1626.815799 0.9570 0.9570 0.9550 0.9550 0.9530
1631.492352 0.9510 0.9500 0.9480 0.9480 0.9510
1636.168904 0.9550 0.9570 0.9570 0.9580 0.9580
1640.845456 0.9580 0.9580 0.9570 0.9570 0.9570
1645.522008 0.9550 0.9550 0.9550 0.9550 0.9540
1650.198561 0.9500 0.9450 0.9480 0.9500 0.9510
1654.875113 0.9510 0.9510 0.9510 0.9510 0.9510
1659.551665 0.9500 0.9500 0.9480 0.9470 0.9470
1664.228218 0.9470 0.9440 0.9420 0.9410 0.9410
1668.904770 0.9410 0.9410 0.9410 0.9410 0.9390
1673.581322 0.9390 0.9390 0.9390 0.9390 0.9360
1678.257874 0.9350 0.9330 0.9290 0.9250 0.9190
1682.934427 0.9160 0.9160 0.9190 0.9190 0.9160
1687.610979 0.9140 0.9130 0.9110 0.9070 0.9010
1692.287531 0.8940 0.8830 0.8730 0.8660 0.8590
1696.964083 0.8540 0.8500 0.8310 0.8120 0.7940
1701.640636 0.7780 0.7660 0.7570 0.7500 0.7430
1706.317188 0.7370 0.7280 0.7150 0.6940 0.6820
1710.993740 0.6679 0.6399 0.6249 0.5909 0.5630
1715.670293 0.5350 0.5020 0.4770 0.4180 0.3970
1720.346845 0.3768 0.3198 0.2710 0.2550 0.2360
1725.023397 0.2169 0.1520 0.1230 0.0920 0.0850
1729.699949 0.0509 0.0220 0.0140 0.0080 0.0040
1734.376502 0.0020 0.0020 0.0010 0.0010 0.0020
1739.053054 0.0020 0.0040 0.0040 0.0040 0.0040
1743.729606 0.0050 0.0050 0.0070 0.0070 0.0070
1748.406158 0.0070 0.0070 0.0080 0.0100 0.0100
1753.082711 0.0100 0.0100 0.0100 0.0110 0.0110
1757.759263 0.0110 0.0110 0.0130 0.0130 0.0160
1762.435815 0.0220 0.0230 0.0300 0.0360 0.0520
1767.112367 0.1080 0.1171 0.1431 0.1761 0.2020
1771.788920 0.2210 0.2360 0.2420 0.2730 0.3230
1776.465472 0.3871 0.4152 0.4651 0.4863 0.5691
1781.142024 0.5970 0.6180 0.6290 0.6400 0.6500
1785.818577 0.6651 0.6811 0.6941 0.7161 0.7350
1790.495129 0.7480 0.7700 0.7810 0.7970 0.8120
1795.171681 0.8201 0.8340 0.8380 0.8500 0.8560
1799.848233 0.8690 0.8810 0.8940 0.9040 0.9140
1804.524786 0.9170 0.9250 0.9300 0.9320 0.9350
1809.201338 0.9350 0.9380 0.9410 0.9450 0.9480
1813.877890 0.9500 0.9500 0.9530 0.9550 0.9570
1818.554442 0.9580 0.9580 0.9580 0.9600 0.9610
1823.230995 0.9630 0.9630 0.9640 0.9640 0.9660
1827.907547 0.9670 0.9670 0.9690 0.9690 0.9700
1832.584099 0.9720 0.9730 0.9750 0.9750 0.9760
1837.260652 0.9770 0.9790 0.9790 0.9790 0.9800
1841.937204 0.9800 0.9800 0.9820 0.9820 0.9820
1846.613756 0.9830 0.9830 0.9830 0.9850 0.9850
1851.290308 0.9850 0.9860 0.9860 0.9860 0.9880
1855.966861 0.9880 0.9880 0.9890 0.9890 0.9890
1860.643413 0.9890 0.9890 0.9890 0.9890 0.9890
1865.319965 0.9890 0.9890 0.9890 0.9890 0.9890
1869.996517 0.9890 0.9890 0.9890 0.9890 0.9890
1874.673070 0.9890 0.9890 0.9890 0.9890 0.9890
1879.349622 0.9890 0.9880 0.9880 0.9880 0.9860
1884.026174 0.9860 0.9860 0.9850 0.9850 0.9850
1888.702727 0.9850 0.9850 0.9850 0.9850 0.9850
1893.379279 0.9830 0.9830 0.9830 0.9830 0.9830
1898.055831 0.9830 0.9830 0.9820 0.9820 0.9820
1902.732383 0.9820 0.9800 0.9800 0.9800 0.9800
1907.408936 0.9800 0.9800 0.9800 0.9800 0.9790
1912.085488 0.9790 0.9770 0.9770 0.9760 0.9760
1916.762040 0.9760 0.9760 0.9760 0.9760 0.9760
1921.438592 0.9750 0.9750 0.9750 0.9750 0.9750
1926.115145 0.9750 0.9750 0.9720 0.9720 0.9720
1930.791697 0.9720 0.9720 0.9720 0.9700 0.9700
1935.468249 0.9700 0.9700 0.9700 0.9700 0.9720
1940.144801 0.9720 0.9720 0.9720 0.9720 0.9720
1944.821354 0.9720 0.9720 0.9720 0.9720 0.9720
1949.497906 0.9720 0.9720 0.9700 0.9700 0.9690
1954.174458 0.9690 0.9670 0.9670 0.9660 0.9660
1958.851011 0.9640 0.9640 0.9640 0.9630 0.9630
1963.527563 0.9630 0.9600 0.9580 0.9570 0.9570
1968.204115 0.9550 0.9550 0.9530 0.9500 0.9470
1972.880667 0.9450 0.9440 0.9420 0.9410 0.9410
1977.557220 0.9390 0.9390 0.9390 0.9380 0.9360
1982.233772 0.9350 0.9320 0.9290 0.9290 0.9280
1986.910324 0.9280 0.9260 0.9260 0.9260 0.9260
1991.586876 0.9260 0.9260 0.9260 0.9260 0.9260
1996.263429 0.9280 0.9280 0.9280 0.9280 0.9280
2000.939981 0.9270 0.9260 0.9260 0.9260 0.9255
2005.616533 0.9250 0.9240 0.9230 0.9230 0.9230
2010.293086 0.9225 0.9220 0.9220 0.9220 0.9210
2014.969638 0.9200 0.9185 0.9170 0.9170 0.9170
2019.646190 0.9165 0.9160 0.9150 0.9140 0.9135
2024.322742 0.9130 0.9101 0.9071 0.9070 0.9070
2028.999295 0.9036 0.9001 0.8976 0.8951 0.8935
2033.675847 0.8920 0.8930 0.8940 0.8974 0.9009
2038.352399 0.9020 0.9030 0.9035 0.9040 0.9055
2043.028951 0.9070 0.9089 0.9109 0.9134 0.9159
2047.705504 0.9228 0.9297 0.9358 0.9418 0.9506
2052.382056 0.9596 0.9662 0.9727 0.9740 0.9750
2057.058608 0.9755 0.9760 0.9760 0.9760 0.9765
2061.735161 0.9770 0.9770 0.9770 0.9780 0.9790
2066.411713 0.9790 0.9790 0.9795 0.9800 0.9800
2071.088265 0.9800 0.9809 0.9819 0.9820 0.9820
2075.764817 0.9825 0.9830 0.9840 0.9850 0.9850
2080.441370 0.9850 0.9850 0.9850 0.9855 0.9860
2085.117922 0.9860 0.9860 0.9860 0.9860 0.9860
2089.794474 0.9860 0.9860 0.9860 0.9869 0.9879
2094.471026 0.9880 0.9880 0.9885 0.9890 0.9899
2099.147579 0.9909 0.9910 0.9910 0.9901 0.9891
2103.824131 0.9890 0.9890 0.9890 0.9890 0.9890
2108.500683 0.9890 0.9890 0.9890 0.9890 0.9890
2113.177235 0.9890 0.9890 0.9890 0.9890 0.9890
2117.853788 0.9890 0.9890 0.9890 0.9885 0.9880
2122.530340 0.9880 0.9880 0.9880 0.9880 0.9880
2127.206892 0.9880 0.9880 0.9880 0.9880 0.9880
2131.883445 0.9880 0.9880 0.9880 0.9880 0.9871
2136.559997 0.9861 0.9860 0.9860 0.9860 0.9860
2141.236549 0.9860 0.9860 0.9860 0.9860 0.9855
2145.913101 0.9850 0.9850 0.9850 0.9850 0.9850
2150.589654 0.9850 0.9850 0.9850 0.9850 0.9841
2155.266206 0.9831 0.9830 0.9830 0.9830 0.9830
2159.942758 0.9830 0.9830 0.9826 0.9821 0.9820
2164.619310 0.9820 0.9811 0.9801 0.9800 0.9800
2169.295863 0.9795 0.9790 0.9790 0.9790 0.9781
2173.972415 0.9771 0.9766 0.9761 0.9760 0.9760
2178.648967 0.9756 0.9751 0.9741 0.9731 0.9730
2183.325520 0.9730 0.9726 0.9721 0.9711 0.9701
2188.002072 0.9700 0.9700 0.9700 0.9700 0.9700
2192.678624 0.9700 0.9700 0.9700 0.9709 0.9719
2197.355176 0.9720 0.9720 0.9720 0.9720 0.9720
2202.031729 0.9720 0.9724 0.9729 0.9730 0.9730
2206.708281 0.9730 0.9730 0.9730 0.9730 0.9739
2211.384833 0.9749 0.9759 0.9769 0.9779 0.9789
2216.061385 0.9790 0.9790 0.9794 0.9799 0.9809
2220.737938 0.9819 0.9824 0.9829 0.9839 0.9849
2225.414490 0.9850 0.9850 0.9850 0.9850 0.9850
2230.091042 0.9850 0.9850 0.9850 0.9854 0.9859
2234.767595 0.9860 0.9860 0.9860 0.9860 0.9860
2239.444147 0.9860 0.9860 0.9860 0.9860 0.9860
2244.120699 0.9860 0.9860 0.9860 0.9860 0.9860
2248.797251 0.9860 0.9860 0.9860 0.9856 0.9851
2253.473804 0.9850 0.9850 0.9850 0.9850 0.9850
2258.150356 0.9850 0.9842 0.9832 0.9830 0.9830
2262.826908 0.9830 0.9830 0.9830 0.9830 0.9826
2267.503460 0.9821 0.9820 0.9820 0.9820 0.9820
2272.180013 0.9812 0.9802 0.9800 0.9800 0.9800
2276.856565 0.9800 0.9800 0.9800 0.9800 0.9800
2281.533117 0.9800 0.9800 0.9796 0.9791 0.9790
2286.209669 0.9790 0.9782 0.9772 0.9766 0.9761
2290.886222 0.9760 0.9760 0.9760 0.9760 0.9760
2295.562774 0.9760 0.9760 0.9760 0.9756 0.9751
2300.239326 0.9750 0.9750 0.9750 0.9750 0.9750
2304.915879 0.9750 0.9742 0.9732 0.9730 0.9730
2309.592431 0.9726 0.9721 0.9720 0.9720 0.9712
2314.268983 0.9702 0.9696 0.9691 0.9682 0.9672
2318.945535 0.9666 0.9661 0.9652 0.9642 0.9640
2323.622088 0.9640 0.9636 0.9631 0.9622 0.9612
2328.298640 0.9598 0.9583 0.9568 0.9553 0.9534
2332.975192 0.9514 0.9498 0.9483 0.9464 0.9444
2337.651744 0.9428 0.9413 0.9390 0.9365 0.9356
2342.328297 0.9351 0.9338 0.9323 0.9308 0.9293
2347.004849 0.9286 0.9281 0.9280 0.9280 0.9284
2351.681401 0.9289 0.9294 0.9299 0.9308 0.9318
2356.357954 0.9332 0.9347 0.9354 0.9359 0.9368
2361.034506 0.9378 0.9384 0.9389 0.9402 0.9417
2365.711058 0.9432 0.9447 0.9458 0.9468 0.9470
2370.387610 0.9470 0.9474 0.9479 0.9488 0.9498
2375.064163 0.9500 0.9500 0.9504 0.9509 0.9518
2379.740715 0.9528 0.9534 0.9539 0.9544 0.9549
2384.417267 0.9558 0.9568 0.9574 0.9579 0.9588
2389.093819 0.9598 0.9604 0.9609 0.9621 0.9637
2393.770372 0.9640 0.9640 0.9652 0.9666 0.9678
2398.446924 0.9688 0.9694 0.9699 0.9708 0.9718
2403.123476 0.9724 0.9729 0.9738 0.9748 0.9754
2407.800029 0.9759 0.9760 0.9760 0.9764 0.9769
2412.476581 0.9778 0.9788 0.9790 0.9790 0.9794
2417.153133 0.9799 0.9800 0.9800 0.9807 0.9817
2421.829685 0.9820 0.9820 0.9820 0.9820 0.9824
2426.506238 0.9829 0.9830 0.9830 0.9830 0.9830
2431.182790 0.9830 0.9830 0.9830 0.9830 0.9830
2435.859342 0.9830 0.9826 0.9821 0.9820 0.9820
2440.535894 0.9820 0.9820 0.9813 0.9803 0.9800
2445.212447 0.9800 0.9800 0.9800 0.9807 0.9817
2449.888999 0.9820 0.9820 0.9820 0.9820 0.9820
2454.565551 0.9820 0.9820 0.9820 0.9820 0.9820
2459.242103 0.9820 0.9820 0.9820 0.9820 0.9820
2463.918656 0.9820 0.9820 0.9820 0.9820 0.9820
2468.595208 0.9820 0.9820 0.9813 0.9803 0.9800
2473.271760 0.9800 0.9800 0.9800 0.9800 0.9800
2477.948313 0.9800 0.9800 0.9800 0.9800 0.9800
2482.624865 0.9800 0.9800 0.9800 0.9800 0.9800
2487.301417 0.9800 0.9800 0.9800 0.9800 0.9800
2491.977969 0.9800 0.9800 0.9800 0.9800 0.9800
2496.654522 0.9800 0.9800 0.9800 0.9800 0.9800
2501.331074 0.9800 0.9797 0.9792 0.9790 0.9790
2506.007626 0.9790 0.9790 0.9790 0.9790 0.9790
2510.684178 0.9790 0.9790 0.9790 0.9790 0.9790
2515.360731 0.9790 0.9790 0.9790 0.9790 0.9790
2520.037283 0.9790 0.9790 0.9790 0.9790 0.9790
2524.713835 0.9790 0.9790 0.9790 0.9790 0.9790
2529.390388 0.9790 0.9790 0.9790 0.9790 0.9790
2534.066940 0.9790 0.9790 0.9790 0.9790 0.9790
2538.743492 0.9790 0.9790 0.9790 0.9790 0.9790
2543.420044 0.9790 0.9790 0.9790 0.9790 0.9790
2548.096597 0.9790 0.9790 0.9790 0.9783 0.9773
2552.773149 0.9770 0.9770 0.9770 0.9770 0.9770
2557.449701 0.9770 0.9770 0.9770 0.9767 0.9762
2562.126253 0.9760 0.9760 0.9763 0.9768 0.9770
2566.802806 0.9770 0.9770 0.9770 0.9770 0.9770
2571.479358 0.9770 0.9770 0.9770 0.9770 0.9770
2576.155910 0.9770 0.9770 0.9770 0.9770 0.9770
2580.832463 0.9767 0.9762 0.9760 0.9760 0.9760
2585.509015 0.9760 0.9760 0.9760 0.9760 0.9760
2590.185567 0.9760 0.9760 0.9760 0.9760 0.9760
2594.862119 0.9760 0.9760 0.9760 0.9760 0.9760
2599.538672 0.9760 0.9760 0.9760 0.9760 0.9760
2604.215224 0.9760 0.9763 0.9768 0.9770 0.9770
2608.891776 0.9770 0.9770 0.9770 0.9770 0.9770
2613.568328 0.9770 0.9770 0.9770 0.9776 0.9786
2618.244881 0.9790 0.9790 0.9790 0.9790 0.9790
2622.921433 0.9790 0.9790 0.9790 0.9790 0.9790
2627.597985 0.9790 0.9790 0.9790 0.9790 0.9790
2632.274537 0.9790 0.9793 0.9798 0.9800 0.9800
2636.951090 0.9800 0.9800 0.9800 0.9800 0.9797
2641.627642 0.9792 0.9790 0.9790 0.9790 0.9790
2646.304194 0.9784 0.9774 0.9770 0.9770 0.9770
2650.980747 0.9770 0.9770 0.9770 0.9770 0.9770
2655.657299 0.9770 0.9770 0.9767 0.9762 0.9760
2660.333851 0.9760 0.9757 0.9752 0.9750 0.9750
2665.010403 0.9750 0.9750 0.9744 0.9734 0.9730
2669.686956 0.9730 0.9730 0.9730 0.9730 0.9730
2674.363508 0.9727 0.9722 0.9720 0.9720 0.9720
2679.040060 0.9720 0.9714 0.9704 0.9700 0.9700
2683.716612 0.9700 0.9700 0.9697 0.9692 0.9684
2688.393165 0.9674 0.9667 0.9662 0.9651 0.9636
2693.069717 0.9624 0.9614 0.9601 0.9586 0.9577
2697.746269 0.9572 0.9564 0.9554 0.9544 0.9534
2702.422822 0.9521 0.9506 0.9486 0.9461 0.9441
2707.099374 0.9426 0.9420 0.9420 0.9403 0.9373
2711.775926 0.9351 0.9336 0.9327 0.9322 0.9320
2716.452478 0.9320 0.9314 0.9304 0.9300 0.9300
2721.129031 0.9300 0.9300 0.9300 0.9300 0.9300
2725.805583 0.9300 0.9300 0.9300 0.9306 0.9316
2730.482135 0.9323 0.9328 0.9330 0.9330 0.9336
2735.158687 0.9346 0.9353 0.9358 0.9366 0.9376
2739.835240 0.9380 0.9380 0.9388 0.9403 0.9413
2744.511792 0.9418 0.9420 0.9420 0.9420 0.9420
2749.188344 0.9417 0.9412 0.9410 0.9410 0.9410
2753.864897 0.9410 0.9404 0.9395 0.9390 0.9390
2758.541449 0.9390 0.9390 0.9390 0.9390 0.9390
2763.218001 0.9390 0.9390 0.9390 0.9395 0.9405
2767.894553 0.9413 0.9418 0.9420 0.9420 0.9420
2772.571106 0.9420 0.9425 0.9435 0.9440 0.9440
2777.247658 0.9440 0.9440 0.9440 0.9440 0.9440
2781.924210 0.9440 0.9440 0.9440 0.9440 0.9440
2786.600762 0.9440 0.9440 0.9440 0.9440 0.9440
2791.277315 0.9440 0.9435 0.9425 0.9420 0.9420
2795.953867 0.9420 0.9420 0.9417 0.9412 0.9405
2800.630419 0.9395 0.9387 0.9382 0.9375 0.9365
2805.306971 0.9357 0.9352 0.9350 0.9350 0.9345
2809.983524 0.9335 0.9330 0.9330 0.9327 0.9322
2814.660076 0.9305 0.9275 0.9257 0.9252 0.9245
2819.336628 0.9235 0.9227 0.9223 0.9212 0.9197
2824.013181 0.9185 0.9175 0.9167 0.9162 0.9155
2828.689733 0.9145 0.9132 0.9117 0.9097 0.9072
2833.366285 0.9052 0.9038 0.9025 0.9015 0.9003
2838.042837 0.8988 0.8973 0.8958 0.8943 0.8927
2842.719390 0.8917 0.8912 0.8895 0.8865 0.8850
2847.395942 0.8850 0.8835 0.8805 0.8773 0.8738
2852.072494 0.8700 0.8660 0.8628 0.8603 0.8578
2856.749046 0.8553 0.8526 0.8496 0.8458 0.8413
2861.425599 0.8358 0.8293 0.8226 0.8156 0.8093
2866.102151 0.8038 0.7988 0.7943 0.7889 0.7824
2870.778703 0.7742 0.7642 0.7509 0.7340 0.7215
2875.455256 0.7140 0.7060 0.6975 0.6888 0.6797
2880.131808 0.6697 0.6587 0.6472 0.6353 0.6218
2884.808360 0.6069 0.5964 0.5909 0.5809 0.5660
2889.484912 0.5554 0.5499 0.5442 0.5382 0.5299
2894.161465 0.5189 0.5098 0.5028 0.4933 0.4806
2898.838017 0.4646 0.4446 0.4176 0.3827 0.3603
2903.514569 0.3523 0.3434 0.3334 0.3223 0.3098
2908.191121 0.2998 0.2928 0.2861 0.2796 0.2729
2912.867674 0.2659 0.2595 0.2541 0.2483 0.2423
2917.544226 0.2367 0.2317 0.2279 0.2254 0.2231
2922.220778 0.2211 0.2173 0.2113 0.2051 0.1986
2926.897331 0.1908 0.1813 0.1747 0.1717 0.1722
2931.573883 0.1772 0.1811 0.1836 0.1852 0.1857
2936.250435 0.1867 0.1882 0.1897 0.1912 0.1936
2940.926987 0.1970 0.2019 0.2084 0.2175 0.2299
2945.603540 0.2411 0.2506 0.2610 0.2724 0.2839
2950.280092 0.2954 0.3069 0.3184 0.3299 0.3415
2954.956644 0.3511 0.3581 0.3624 0.3634 0.3668
2959.633196 0.3733 0.3811 0.3906 0.3962 0.3967
2964.309749 0.3970 0.3970 0.3962 0.3942 0.3922
2968.986301 0.3902 0.3880 0.3855 0.3821 0.3776
2973.662853 0.3722 0.3657 0.3573 0.3463 0.3318
2978.339405 0.3123 0.2939 0.2769 0.2591 0.2401
2983.015958 0.2284 0.2269 0.2262 0.2267 0.2280
2987.692510 0.2305 0.2322 0.2327 0.2332 0.2337
2992.369062 0.2340 0.2340 0.2336 0.2326 0.2297
2997.045615 0.2243 0.2151 0.2006 0.1979 0.2123
3001.722167 0.2246 0.2336 0.2424 0.2509 0.2595
3006.398719 0.2685 0.2795 0.2934 0.3069 0.3195
3011.075271 0.3335 0.3495 0.3646 0.3786 0.3894
3015.751824 0.3954 0.4020 0.4095 0.4193 0.4328
3020.428376 0.4494 0.4708 0.5029 0.5519 0.5889
3025.104928 0.6069 0.6197 0.6242 0.6350 0.6562
3029.781480 0.6789 0.7038 0.7313 0.7628 0.7909
3034.458033 0.8139 0.8292 0.8321 0.8365 0.8430
3039.134585 0.8496 0.8566 0.8644 0.8734 0.8825
3043.811137 0.8920 0.9008 0.9083 0.9132 0.9137
3048.487690 0.9144 0.9154 0.9166 0.9181 0.9196
3053.164242 0.9211 0.9226 0.9241 0.9259 0.9284
3057.840794 0.9300 0.9300 0.9305 0.9320 0.9335
3062.517346 0.9350 0.9364 0.9374 0.9382 0.9387
3067.193899 0.9390 0.9390 0.9390 0.9390 0.9390
3071.870451 0.9390 0.9390 0.9390 0.9390 0.9390
3076.547003 0.9390 0.9390 0.9390 0.9390 0.9388
3081.223555 0.9383 0.9380 0.9380 0.9380 0.9380
3085.900108 0.9376 0.9366 0.9360 0.9360 0.9360
3090.576660 0.9360 0.9358 0.9353 0.9347 0.9337
3095.253212 0.9330 0.9330 0.9330 0.9330 0.9328
3099.929765 0.9323 0.9315 0.9300 0.9285 0.9270
3104.606317 0.9255 0.9240 0.9228 0.9223 0.9210
3109.282869 0.9180 0.9151 0.9127 0.9105 0.9090
3113.959421 0.9078 0.9073 0.9070 0.9070 0.9070
3118.635974 0.9070 0.9070 0.9070 0.9070 0.9070
3123.312526 0.9072 0.9077 0.9083 0.9093 0.9100
3127.989078 0.9100 0.9102 0.9107 0.9113 0.9123
3132.665630 0.9135 0.9150 0.9171 0.9206 0.9233
3137.342183 0.9243 0.9258 0.9283 0.9305 0.9320
3142.018735 0.9338 0.9363 0.9385 0.9400 0.9412
3146.695287 0.9417 0.9420 0.9420 0.9420 0.9420
3151.371839 0.9420 0.9420 0.9420 0.9420 0.9420
3156.048392 0.9420 0.9420 0.9420 0.9420 0.9420
3160.724944 0.9418 0.9413 0.9407 0.9397 0.9390
3165.401496 0.9390 0.9388 0.9383 0.9377 0.9367
3170.078049 0.9360 0.9360 0.9360 0.9360 0.9360
3174.754601 0.9360 0.9359 0.9354 0.9350 0.9350
3179.431153 0.9347 0.9337 0.9330 0.9330 0.9330
3184.107705 0.9330 0.9330 0.9330 0.9330 0.9330
3188.784258 0.9330 0.9330 0.9330 0.9330 0.9330
3193.460810 0.9330 0.9330 0.9330 0.9330 0.9330
3198.137362 0.9330 0.9330 0.9333 0.9343 0.9350
3202.813914 0.9350 0.9350 0.9350 0.9351 0.9356
3207.490467 0.9360 0.9360 0.9360 0.9360 0.9360
3212.167019 0.9360 0.9363 0.9373 0.9380 0.9380
3216.843571 0.9380 0.9380 0.9380 0.9380 0.9380
3221.520124 0.9380 0.9381 0.9386 0.9393 0.9403
3226.196676 0.9411 0.9416 0.9420 0.9420 0.9423
3230.873228 0.9433 0.9441 0.9446 0.9453 0.9463
3235.549780 0.9470 0.9470 0.9471 0.9476 0.9483
3240.226333 0.9493 0.9500 0.9500 0.9501 0.9506
3244.902885 0.9513 0.9523 0.9530 0.9530 0.9530
3249.579437 0.9530 0.9530 0.9530 0.9531 0.9536
3254.255989 0.9540 0.9540 0.9541 0.9546 0.9550
3258.932542 0.9550 0.9550 0.9550 0.9550 0.9550
3263.609094 0.9552 0.9562 0.9570 0.9570 0.9570
3268.285646 0.9570 0.9570 0.9570 0.9570 0.9570
3272.962199 0.9570 0.9570 0.9570 0.9570 0.9570
3277.638751 0.9570 0.9571 0.9576 0.9580 0.9580
3282.315303 0.9580 0.9580 0.9580 0.9580 0.9580
3286.991855 0.9580 0.9580 0.9580 0.9580 0.9580
3291.668408 0.9582 0.9592 0.9600 0.9600 0.9600
3296.344960 0.9600 0.9600 0.9600 0.9600 0.9600
3301.021512 0.9600 0.9600 0.9600 0.9600 0.9600
3305.698064 0.9600 0.9600 0.9600 0.9600 0.9600
3310.374617 0.9600 0.9600 0.9600 0.9600 0.9600
3315.051169 0.9600 0.9600 0.9600 0.9600 0.9600
3319.727721 0.9600 0.9600 0.9600 0.9600 0.9600
3324.404273 0.9600 0.9600 0.9600 0.9600 0.9600
3329.080826 0.9600 0.9600 0.9600 0.9600 0.9598
3333.757378 0.9588 0.9580 0.9580 0.9580 0.9580
3338.433930 0.9580 0.9580 0.9580 0.9580 0.9580
3343.110483 0.9580 0.9580 0.9580 0.9580 0.9580
3347.787035 0.9580 0.9580 0.9580 0.9580 0.9579
3352.463587 0.9574 0.9570 0.9570 0.9570 0.9570
3357.140139 0.9570 0.9570 0.9570 0.9570 0.9570
3361.816692 0.9570 0.9570 0.9570 0.9570 0.9570
3366.493244 0.9570 0.9570 0.9570 0.9570 0.9570
3371.169796 0.9570 0.9570 0.9570 0.9570 0.9570
3375.846348 0.9570 0.9570 0.9570 0.9570 0.9570
3380.522901 0.9570 0.9570 0.9570 0.9570 0.9570
3385.199453 0.9570 0.9570 0.9570 0.9570 0.9570
3389.876005 0.9570 0.9570 0.9570 0.9570 0.9570
3394.552558 0.9570 0.9570 0.9570 0.9570 0.9571
3399.229110 0.9576 0.9580 0.9580 0.9580 0.9580
3403.905662 0.9580 0.9580 0.9580 0.9580 0.9580
3408.582214 0.9580 0.9580 0.9580 0.9580 0.9580
3413.258767 0.9580 0.9580 0.9580 0.9580 0.9580
3417.935319 0.9580 0.9580 0.9580 0.9580 0.9580
3422.611871 0.9580 0.9580 0.9580 0.9580 0.9580
3427.288423 0.9580 0.9580 0.9580 0.9580 0.9580
3431.964976 0.9580 0.9580 0.9580 0.9580 0.9579
3436.641528 0.9574 0.9570 0.9570 0.9570 0.9570
3441.318080 0.9568 0.9559 0.9549 0.9544 0.9539
3445.994633 0.9534 0.9528 0.9513 0.9499 0.9489
3450.671185 0.9478 0.9463 0.9448 0.9433 0.9417
3455.347737 0.9397 0.9378 0.9363 0.9347 0.9322
3460.024289 0.9294 0.9254 0.9216 0.9186 0.9159
3464.700842 0.9149 0.9133 0.9078 0.9028 0.9013
3469.377394 0.8986 0.8877 0.8778 0.8763 0.8751
3474.053946 0.8756 0.8761 0.8771 0.8781 0.8786
3478.730498 0.8791 0.8801 0.8808 0.8793 0.8778
3483.407051 0.8763 0.8746 0.8716 0.8685 0.8645
3488.083603 0.8607 0.8582 0.8564 0.8599 0.8635
3492.760155 0.8680 0.8730 0.8825 0.8914 0.8949
3497.436707 0.8989 0.9064 0.9137 0.9202 0.9266
3502.113260 0.9316 0.9363 0.9393 0.9423 0.9448
3506.789812 0.9471 0.9476 0.9481 0.9491 0.9501
3511.466364 0.9516 0.9530 0.9535 0.9540 0.9540
3516.142917 0.9540 0.9540 0.9540 0.9540 0.9540
3520.819469 0.9545 0.9550 0.9550 0.9550 0.9550
3525.496021 0.9550 0.9550 0.9550 0.9545 0.9540
3530.172573 0.9540 0.9540 0.9540 0.9540 0.9540
3534.849126 0.9540 0.9535 0.9530 0.9530 0.9529
3539.525678 0.9519 0.9510 0.9510 0.9510 0.9505
3544.202230 0.9499 0.9489 0.9480 0.9480 0.9480
3548.878782 0.9480 0.9481 0.9491 0.9500 0.9500
3553.555335 0.9500 0.9505 0.9511 0.9521 0.9530
3558.231887 0.9530 0.9530 0.9530 0.9530 0.9530
3562.908439 0.9530 0.9535 0.9540 0.9540 0.9540
3567.584992 0.9540 0.9540 0.9540 0.9540 0.9540
3572.261544 0.9540 0.9535 0.9529 0.9519 0.9510
3576.938096 0.9510 0.9510 0.9505 0.9500 0.9500
3581.614648 0.9500 0.9500 0.9500 0.9500 0.9500
3586.291201 0.9500 0.9500 0.9500 0.9500 0.9505
3590.967753 0.9511 0.9521 0.9530 0.9530 0.9530
3595.644305 0.9535 0.9540 0.9540 0.9540 0.9535
3600.320857 0.9530 0.9530 0.9530 0.9530 0.9530
3604.997410 0.9520 0.9510 0.9510 0.9510 0.9510
3609.673962 0.9510 0.9510 0.9510 0.9505 0.9500
3614.350514 0.9500 0.9500 0.9500 0.9500 0.9500
3619.027067 0.9500 0.9490 0.9480 0.9480 0.9480
3623.703619 0.9480 0.9480 0.9475 0.9470 0.9470
3628.380171 0.9470 0.9470 0.9470 0.9460 0.9450
3633.056723 0.9450 0.9450 0.9450 0.9450 0.9445
3637.733276 0.9440 0.9440 0.9440 0.9430 0.9420
3642.409828 0.9415 0.9410 0.9385 0.9360 0.9345
3647.086380 0.9329 0.9309 0.9290 0.9275 0.9260
3651.762932 0.9245 0.9230 0.9230 0.9230 0.9225
3656.439485 0.9220 0.9220 0.9220 0.9210 0.9200
3661.116037 0.9200 0.9200 0.9195 0.9190 0.9190
3665.792589 0.9190 0.9180 0.9170 0.9170 0.9170
3670.469141 0.9165 0.9160 0.9150 0.9140 0.9140
3675.145694 0.9140 0.9135 0.9130 0.9130 0.9130
3679.822246 0.9135 0.9140 0.9150 0.9160 0.9165
3684.498798 0.9170 0.9185 0.9200 0.9210 0.9220
3689.175351 0.9235 0.9250 0.9255 0.9260 0.9275
3693.851903 0.9290 0.9305 0.9320 0.9325 0.9330
3698.528455 0.9345 0.9360 0.9370 0.9380 0.9395
3703.205007 0.9410 0.9425 0.9440 0.9440 0.9440
3707.881560 0.9445 0.9450 0.9460 0.9470 0.9470
3712.558112 0.9470 0.9475 0.9480 0.9480 0.9480
3717.234664 0.9480 0.9480 0.9495 0.9510 0.9510
3721.911216 0.9510 0.9520 0.9530 0.9530 0.9530
3726.587769 0.9535 0.9540 0.9540 0.9540 0.9540
3731.264321 0.9540 0.9540 0.9540 0.9540 0.9540
3735.940873 0.9535 0.9530 0.9530 0.9530 0.9530
3740.617426 0.9530 0.9515 0.9500 0.9490 0.9480
3745.293978 0.9480 0.9480 0.9490 0.9500 0.9505
3749.970530 0.9510 0.9520 0.9530 0.9535 0.9540
3754.647082 0.9540 0.9540 0.9545 0.9550 0.9550
3759.323635 0.9550 0.9560 0.9570 0.9570 0.9570
3764.000187 0.9570 0.9570 0.9570 0.9570 0.9570
3768.676739 0.9570 0.9561 0.9551 0.9550 0.9550
3773.353291 0.9550 0.9550 0.9550 0.9550 0.9550
3778.029844 0.9550 0.9550 0.9550 0.9550 0.9550
3782.706396 0.9550 0.9550
##END=
