##TITLE=PIPERIDINE
##JCAMP-DX=4.24
##DATA TYPE=INFRARED SPECTRUM
##CLASS=COBLENTZ
##ORIGIN=MONSANTO (JOHN J. FREEMAN)
##OWNER=COBLENTZ SOCIETY
Collection (C) 2018 copyright by the U.S. Secretary of Commerce
on behalf of the United States of America. All rights reserved.
##DATE=1979/07/17
##CAS REGISTRY NO=110-89-4
##MOLFORM=C5 H11 N
##BP=106 C
##SOURCE REFERENCE=COBLENTZ NO. 10519
##$NIST SOURCE=COBLENTZ
##$NIST IMAGE=cob-r10519
##SPECTROMETER/DATA SYSTEM=NICOLET FTIR
##INSTRUMENT PARAMETERS=Hg-Cd-Te DETECTOR - TYPE A, DEAD BELOW 680 CM^-^1, LOW S/N 710 - 680
$$ SPECTRAL CONTAMINATION DUE TO H2O IN THE 1600 CM^-^1 REGION.
##STATE=VAPOR (0.5 MICROLITER AT 150 C)
##PATH LENGTH=0.2 CM x 30 CM GOLD-PLATED LIGHT PIPE. HELIUM CARRIER. INTERFEROGRAMS CO-ADDED FOR FULL TRANSIT TIME.
##SAMPLING PROCEDURE=TRANSMISSION
##RESOLUTION=4 CM^-^1
##DATA PROCESSING=DIGITIZED BY NIST FROM HARD COPY (FROM TWO SEGMENTS)
##XUNITS=1/CM
##YUNITS=TRANSMITTANCE
##XFACTOR=1.000000
##YFACTOR=1
##DELTAX=1.151463
##FIRSTX=709.212
##LASTX=4011.61
##FIRSTY=0.575
##MAXX=4011.61
##MINX=709.212
##MAXY=1.008
##MINY=0.056
##NPOINTS=2869
##XYDATA=(X++(Y..Y))
709.212000 0.5750 0.5270 0.4961 0.4641 0.4152
714.969313 0.3742 0.3700 0.3670 0.3531 0.3461
720.726625 0.3360 0.3330 0.3250 0.3160 0.2911
726.483938 0.2741 0.2561 0.2530 0.2520 0.2560
732.241250 0.2560 0.2540 0.2400 0.2280 0.1911
737.998563 0.1761 0.1591 0.1520 0.2205 0.2408
743.755876 0.2840 0.3060 0.3260 0.3529 0.3620
749.513188 0.3670 0.3849 0.3959 0.4010 0.4089
755.270501 0.4230 0.4470 0.4580 0.4819 0.5438
761.027814 0.6018 0.6289 0.6519 0.7037 0.7675
766.785126 0.8100 0.8230 0.8430 0.8530 0.8809
772.542439 0.8910 0.9099 0.9199 0.9289 0.9300
778.299751 0.9360 0.9390 0.9420 0.9430 0.9440
784.057064 0.9440 0.9440 0.9430 0.9410 0.9370
789.814377 0.9350 0.9350 0.9340 0.9340 0.9340
795.571689 0.9340 0.9330 0.9330 0.9310 0.9320
801.329002 0.9320 0.9330 0.9330 0.9330 0.9320
807.086315 0.9310 0.9300 0.9300 0.9250 0.9220
812.843627 0.9250 0.9260 0.9290 0.9310 0.9320
818.600940 0.9350 0.9360 0.9350 0.9330 0.9300
824.358252 0.9290 0.9210 0.9200 0.9120 0.9060
830.115565 0.9000 0.8910 0.8781 0.8641 0.8491
835.872878 0.8330 0.8190 0.8150 0.8010 0.7870
841.630190 0.7760 0.7660 0.7570 0.7550 0.7481
847.387503 0.7380 0.7230 0.7100 0.7020 0.6940
853.144816 0.6940 0.6980 0.6930 0.6870 0.6364
858.902128 0.6210 0.5910 0.5610 0.6069 0.6319
864.659441 0.7087 0.7269 0.7389 0.7460 0.7559
870.416753 0.7600 0.7670 0.7700 0.7750 0.7770
876.174066 0.7850 0.7880 0.7940 0.8049 0.8149
881.931379 0.8180 0.8260 0.8310 0.8340 0.8420
887.688691 0.8470 0.8510 0.8560 0.8600 0.8620
893.446004 0.8630 0.8670 0.8710 0.8750 0.8790
899.203316 0.8820 0.8890 0.8910 0.8920 0.8930
904.960629 0.8990 0.9010 0.9080 0.9110 0.9190
910.717942 0.9200 0.9220 0.9260 0.9290 0.9310
916.475254 0.9330 0.9350 0.9360 0.9350 0.9330
922.232567 0.9310 0.9290 0.9260 0.9250 0.9240
927.989880 0.9210 0.9210 0.9260 0.9260 0.9290
933.747192 0.9290 0.9230 0.9220 0.9210 0.9200
939.504505 0.9190 0.9200 0.9200 0.9210 0.9220
945.261817 0.9220 0.9230 0.9230 0.9240 0.9240
951.019130 0.9240 0.9250 0.9260 0.9290 0.9310
956.776443 0.9320 0.9350 0.9360 0.9370 0.9370
962.533755 0.9370 0.9370 0.9390 0.9390 0.9400
968.291068 0.9400 0.9410 0.9440 0.9460 0.9470
974.048381 0.9470 0.9470 0.9460 0.9450 0.9430
979.805693 0.9420 0.9410 0.9400 0.9400 0.9370
985.563006 0.9360 0.9340 0.9320 0.9290 0.9240
991.320318 0.9210 0.9200 0.9190 0.9140 0.9110
997.077631 0.9100 0.9080 0.9050 0.9000 0.8930
1002.834944 0.8900 0.8800 0.8780 0.8770 0.8750
1008.592256 0.8790 0.8790 0.8740 0.8660 0.8580
1014.349569 0.8510 0.8440 0.8410 0.8360 0.8320
1020.106882 0.8330 0.8340 0.8340 0.8360 0.8360
1025.864194 0.8320 0.8250 0.8170 0.8071 0.7971
1031.621507 0.7640 0.7510 0.7270 0.7080 0.7080
1037.378819 0.7150 0.7299 0.7449 0.7450 0.7142
1043.136132 0.7000 0.7000 0.7080 0.7200 0.7270
1048.893445 0.7350 0.7380 0.7400 0.7400 0.7450
1054.650757 0.7510 0.7570 0.7660 0.7760 0.7850
1060.408070 0.8029 0.8070 0.8130 0.8170 0.8259
1066.165382 0.8370 0.8470 0.8570 0.8700 0.8800
1071.922695 0.8820 0.8900 0.8970 0.9000 0.9020
1077.680008 0.9040 0.9040 0.9020 0.8990 0.8920
1083.437320 0.8820 0.8740 0.8690 0.8531 0.8331
1089.194633 0.8230 0.8120 0.8000 0.7820 0.7651
1094.951946 0.7441 0.7261 0.7101 0.6941 0.6811
1100.709258 0.6660 0.6350 0.6310 0.6051 0.6000
1106.466571 0.5930 0.5890 0.5830 0.5760 0.5730
1112.223883 0.5720 0.5660 0.5640 0.5630 0.5600
1117.981196 0.5600 0.5620 0.5640 0.5739 0.5919
1123.738509 0.6030 0.6130 0.6200 0.6230 0.6310
1129.495821 0.6340 0.6459 0.6599 0.6987 0.7119
1135.253134 0.7240 0.7330 0.7460 0.7580 0.7670
1141.010447 0.7690 0.7710 0.7750 0.7750 0.7740
1146.767759 0.7690 0.7610 0.7410 0.7290 0.7250
1152.525072 0.7130 0.7080 0.7070 0.7050 0.7050
1158.282384 0.7040 0.7020 0.6970 0.6950 0.6930
1164.039697 0.6910 0.7029 0.7169 0.7369 0.7549
1169.797010 0.7600 0.7600 0.7570 0.7530 0.7500
1175.554322 0.7480 0.7480 0.7480 0.7550 0.7639
1181.311635 0.7700 0.7770 0.7860 0.8030 0.8090
1187.068948 0.8150 0.8180 0.8210 0.8220 0.8220
1192.826260 0.8250 0.8310 0.8330 0.8380 0.8430
1198.583573 0.8470 0.8490 0.8510 0.8530 0.8570
1204.340885 0.8620 0.8700 0.8740 0.8840 0.9089
1210.098198 0.9200 0.9300 0.9399 0.9460 0.9510
1215.855511 0.9560 0.9590 0.9630 0.9660 0.9670
1221.612823 0.9670 0.9680 0.9670 0.9660 0.9660
1227.370136 0.9620 0.9560 0.9490 0.9450 0.9430
1233.127448 0.9370 0.9231 0.9180 0.9110 0.9040
1238.884761 0.8980 0.8830 0.8800 0.8720 0.8640
1244.642074 0.8610 0.8610 0.8580 0.8530 0.8510
1250.399386 0.8480 0.8410 0.8340 0.8320 0.8260
1256.156699 0.8220 0.8081 0.8060 0.8060 0.8080
1261.914012 0.8090 0.8110 0.8130 0.8160 0.8180
1267.671324 0.8230 0.8270 0.8320 0.8330 0.8370
1273.428637 0.8470 0.8540 0.8600 0.8620 0.8660
1279.185949 0.8710 0.8730 0.8770 0.8800 0.8810
1284.943262 0.8830 0.8850 0.8880 0.8930 0.9000
1290.700575 0.9090 0.9080 0.9060 0.9000 0.8901
1296.457887 0.8800 0.8710 0.8290 0.8120 0.7950
1302.215200 0.7761 0.7660 0.7372 0.7062 0.6871
1307.972513 0.6680 0.6500 0.6370 0.6310 0.6170
1313.729825 0.6050 0.5911 0.5860 0.5820 0.5731
1319.487138 0.5570 0.5490 0.5480 0.5490 0.5550
1325.244450 0.5600 0.5650 0.5650 0.5630 0.5511
1331.001763 0.5500 0.5530 0.5630 0.5880 0.5990
1336.759076 0.6209 0.6409 0.6619 0.6809 0.6949
1342.516388 0.7080 0.7220 0.7460 0.7470 0.7610
1348.273701 0.7749 0.8158 0.8230 0.8280 0.8369
1354.031014 0.8480 0.8570 0.8640 0.8720 0.8820
1359.788326 0.8850 0.8870 0.8870 0.8870 0.8870
1365.545639 0.8870 0.8900 0.8900 0.8930 0.8930
1371.302951 0.8910 0.8900 0.8830 0.8820 0.8830
1377.060264 0.8850 0.8870 0.8910 0.8980 0.9000
1382.817577 0.9010 0.9010 0.9000 0.9000 0.8990
1388.574889 0.9010 0.9120 0.9140 0.9150 0.9150
1394.332202 0.9140 0.9140 0.9140 0.9150 0.9190
1400.089514 0.9220 0.9250 0.9280 0.9290 0.9290
1405.846827 0.9290 0.9280 0.9260 0.9200 0.9111
1411.604140 0.9090 0.9030 0.8970 0.8890 0.8790
1417.361452 0.8621 0.8222 0.8091 0.7951 0.7682
1423.118765 0.7560 0.7170 0.7050 0.6880 0.6720
1428.876078 0.6620 0.6481 0.6311 0.6111 0.5991
1434.633390 0.5920 0.5810 0.5700 0.5540 0.5510
1440.390703 0.5510 0.5490 0.5440 0.4983 0.4593
1446.148015 0.4190 0.3990 0.3990 0.4260 0.4489
1451.905328 0.4639 0.4690 0.4859 0.5009 0.5189
1457.662641 0.5280 0.5430 0.5550 0.5710 0.5790
1463.419953 0.5900 0.5910 0.5980 0.6050 0.6209
1469.177266 0.6340 0.6370 0.6380 0.6570 0.7288
1474.934579 0.8057 0.8249 0.8340 0.8569 0.8669
1480.691891 0.8780 0.8900 0.8950 0.9090 0.9140
1486.449204 0.9200 0.9230 0.9300 0.9399 0.9440
1492.206516 0.9520 0.9570 0.9640 0.9640 0.9630
1497.963829 0.9620 0.9670 0.9809 0.9899 0.9920
1503.721142 0.9860 0.9770 0.9730 0.9680 0.9760
1509.478454 0.9810 0.9850 0.9870 0.9870 0.9870
1515.235767 0.9860 0.9860 0.9860 0.9820 0.9810
1520.993080 0.9810 0.9820 0.9840 0.9850 0.9860
1526.750392 0.9860 0.9870 0.9880 0.9860 0.9840
1532.507705 0.9820 0.9860 0.9900 0.9940 0.9940
1538.265017 0.9770 0.9760 0.9760 0.9760 0.9770
1544.022330 0.9780 0.9820 0.9830 0.9820 0.9820
1549.779643 0.9820 0.9830 0.9850 0.9930 0.9930
1555.536955 0.9880 0.9830 0.9671 0.9670 0.9769
1561.294268 0.9820 0.9850 0.9860 0.9900 0.9900
1567.051580 0.9820 0.9780 0.9780 0.9860 0.9870
1572.808893 0.9820 0.9780 0.9780 0.9810 0.9810
1578.566206 0.9840 0.9840 0.9830 0.9830 0.9830
1584.323518 0.9820 0.9820 0.9810 0.9810 0.9810
1590.080831 0.9810 0.9810 0.9810 0.9800 0.9780
1595.838144 0.9780 0.9780 0.9780 0.9770 0.9770
1601.595456 0.9770 0.9770 0.9770 0.9760 0.9760
1607.352769 0.9750 0.9750 0.9760 0.9780 0.9780
1613.110081 0.9750 0.9670 0.9660 0.9739 0.9770
1618.867394 0.9780 0.9760 0.9760 0.9760 0.9760
1624.624707 0.9760 0.9760 0.9820 0.9870 0.9900
1630.382019 0.9920 0.9880 0.9830 0.9750 0.9750
1636.139332 0.9800 0.9860 0.9880 0.9910 0.9920
1641.896645 0.9860 0.9820 0.9770 0.9760 0.9860
1647.653957 0.9960 0.9880 0.9840 0.9681 0.9680
1653.411270 0.9780 0.9850 0.9870 0.9900 0.9860
1659.168582 0.9850 0.9820 0.9820 0.9850 0.9860
1664.925895 0.9860 0.9870 0.9850 0.9870 0.9900
1670.683208 0.9900 0.9850 0.9850 0.9850 0.9860
1676.440520 0.9910 0.9980 0.9970 0.9920 0.9860
1682.197833 0.9810 0.9840 0.9860 0.9870 0.9880
1687.955146 0.9950 0.9960 0.9960 0.9910 0.9880
1693.712458 0.9880 0.9870 0.9900 0.9850 0.9810
1699.469771 0.9880 0.9920 0.9900 0.9880 0.9870
1705.227083 0.9860 0.9860 0.9870 0.9880 0.9910
1710.984396 0.9920 0.9920 0.9860 0.9830 0.9830
1716.741709 0.9860 0.9900 0.9910 0.9920 0.9910
1722.499021 0.9900 0.9900 0.9900 0.9910 0.9920
1728.256334 0.9950 0.9920 0.9870 0.9830 0.9830
1734.013646 0.9870 0.9910 0.9910 0.9870 0.9870
1739.770959 0.9860 0.9860 0.9870 0.9870 0.9870
1745.528272 0.9850 0.9820 0.9820 0.9810 0.9820
1751.285584 0.9850 0.9870 0.9870 0.9870 0.9870
1757.042897 0.9870 0.9860 0.9830 0.9830 0.9840
1762.800210 0.9850 0.9860 0.9860 0.9860 0.9860
1768.557522 0.9840 0.9810 0.9780 0.9780 0.9810
1774.314835 0.9840 0.9860 0.9860 0.9860 0.9860
1780.072147 0.9860 0.9850 0.9850 0.9860 0.9860
1785.829460 0.9880 0.9930 0.9930 0.9870 0.9860
1791.586773 0.9860 0.9860 0.9880 0.9910 0.9920
1797.344085 0.9920 0.9910 0.9900 0.9900 0.9900
1803.101398 0.9910 0.9920 0.9920 0.9920 0.9920
1808.858711 0.9910 0.9910 0.9910 0.9910 0.9910
1814.616023 0.9910 0.9900 0.9880 0.9880 0.9880
1820.373336 0.9870 0.9870 0.9870 0.9860 0.9860
1826.130648 0.9860 0.9850 0.9840 0.9840 0.9840
1831.887961 0.9850 0.9850 0.9840 0.9840 0.9840
1837.645274 0.9840 0.9840 0.9840 0.9820 0.9780
1843.402586 0.9780 0.9780 0.9780 0.9810 0.9830
1849.159899 0.9850 0.9860 0.9860 0.9860 0.9860
1854.917212 0.9860 0.9860 0.9850 0.9850 0.9850
1860.674524 0.9850 0.9860 0.9870 0.9870 0.9880
1866.431837 0.9870 0.9860 0.9840 0.9860 0.9860
1872.189149 0.9870 0.9870 0.9900 0.9910 0.9900
1877.946462 0.9880 0.9860 0.9860 0.9860 0.9850
1883.703775 0.9850 0.9850 0.9850 0.9840 0.9830
1889.461087 0.9820 0.9820 0.9820 0.9820 0.9800
1895.218400 0.9780 0.9780 0.9780 0.9780 0.9780
1900.975713 0.9800 0.9800 0.9800 0.9800 0.9800
1906.733025 0.9780 0.9780 0.9780 0.9780 0.9780
1912.490338 0.9780 0.9780 0.9810 0.9810 0.9780
1918.247650 0.9780 0.9800 0.9810 0.9810 0.9820
1924.004963 0.9820 0.9830 0.9840 0.9850 0.9850
1929.762276 0.9850 0.9860 0.9860 0.9870 0.9870
1935.519588 0.9870 0.9870 0.9870 0.9880 0.9900
1941.276901 0.9900 0.9880 0.9880 0.9880 0.9910
1947.034213 0.9910 0.9910 0.9920 0.9920 0.9920
1952.791526 0.9920 0.9920 0.9910 0.9910 0.9910
1958.548839 0.9910 0.9900 0.9900 0.9900 0.9900
1964.306151 0.9900 0.9870 0.9870 0.9870 0.9870
1970.063464 0.9870 0.9870 0.9880 0.9880 0.9880
1975.820777 0.9880 0.9880 0.9880 0.9880 0.9870
1981.578089 0.9870 0.9870 0.9870 0.9870 0.9870
1987.335402 0.9870 0.9860 0.9850 0.9840 0.9840
1993.092714 0.9840 0.9840 0.9840 0.9830 0.9830
1998.850027 0.9840 0.9830 0.9825 0.9820 0.9820
2004.607340 0.9820 0.9820 0.9820 0.9811 0.9801
2010.364652 0.9791 0.9781 0.9780 0.9780 0.9780
2016.121965 0.9780 0.9789 0.9799 0.9813 0.9828
2021.879278 0.9834 0.9839 0.9844 0.9849 0.9854
2027.636590 0.9859 0.9860 0.9860 0.9864 0.9869
2033.393903 0.9870 0.9870 0.9870 0.9870 0.9882
2039.151215 0.9897 0.9904 0.9909 0.9914 0.9919
2044.908528 0.9920 0.9920 0.9920 0.9920 0.9920
2050.665841 0.9920 0.9924 0.9929 0.9930 0.9930
2056.423153 0.9930 0.9930 0.9930 0.9930 0.9930
2062.180466 0.9930 0.9933 0.9938 0.9940 0.9940
2067.937779 0.9940 0.9940 0.9943 0.9948 0.9950
2073.695091 0.9950 0.9950 0.9950 0.9947 0.9942
2079.452404 0.9940 0.9940 0.9940 0.9940 0.9940
2085.209716 0.9940 0.9940 0.9940 0.9940 0.9940
2090.967029 0.9940 0.9940 0.9940 0.9940 0.9942
2096.724342 0.9947 0.9948 0.9943 0.9940 0.9940
2102.481654 0.9940 0.9940 0.9940 0.9940 0.9938
2108.238967 0.9933 0.9930 0.9930 0.9928 0.9923
2113.996279 0.9920 0.9920 0.9920 0.9920 0.9920
2119.753592 0.9920 0.9920 0.9920 0.9920 0.9920
2125.510905 0.9918 0.9914 0.9909 0.9904 0.9900
2131.268217 0.9900 0.9897 0.9887 0.9880 0.9880
2137.025530 0.9879 0.9874 0.9870 0.9870 0.9870
2142.782843 0.9870 0.9870 0.9870 0.9870 0.9870
2148.540155 0.9870 0.9870 0.9870 0.9870 0.9869
2154.297468 0.9864 0.9859 0.9854 0.9850 0.9850
2160.054780 0.9850 0.9850 0.9850 0.9850 0.9850
2165.812093 0.9850 0.9850 0.9845 0.9840 0.9835
2171.569406 0.9830 0.9830 0.9830 0.9825 0.9820
2177.326718 0.9810 0.9800 0.9785 0.9770 0.9765
2183.084031 0.9760 0.9760 0.9760 0.9755 0.9750
2188.841344 0.9745 0.9740 0.9740 0.9740 0.9735
2194.598656 0.9730 0.9730 0.9730 0.9730 0.9730
2200.355969 0.9730 0.9730 0.9730 0.9730 0.9730
2206.113281 0.9730 0.9734 0.9739 0.9740 0.9740
2211.870594 0.9744 0.9749 0.9750 0.9750 0.9750
2217.627907 0.9750 0.9762 0.9777 0.9788 0.9798
2223.385219 0.9804 0.9809 0.9810 0.9810 0.9814
2229.142532 0.9819 0.9820 0.9820 0.9820 0.9820
2234.899845 0.9820 0.9820 0.9820 0.9820 0.9820
2240.657157 0.9820 0.9820 0.9820 0.9817 0.9812
2246.414470 0.9810 0.9810 0.9813 0.9818 0.9823
2252.171782 0.9828 0.9830 0.9830 0.9830 0.9830
2257.929095 0.9830 0.9830 0.9830 0.9830 0.9833
2263.686408 0.9838 0.9843 0.9848 0.9850 0.9850
2269.443720 0.9850 0.9850 0.9850 0.9850 0.9852
2275.201033 0.9857 0.9860 0.9860 0.9858 0.9853
2280.958345 0.9850 0.9850 0.9850 0.9850 0.9850
2286.715658 0.9850 0.9846 0.9836 0.9826 0.9816
2292.472971 0.9810 0.9810 0.9810 0.9810 0.9805
2298.230283 0.9790 0.9778 0.9773 0.9770 0.9770
2303.987596 0.9770 0.9770 0.9768 0.9763 0.9760
2309.744909 0.9760 0.9759 0.9754 0.9750 0.9750
2315.502221 0.9749 0.9744 0.9739 0.9734 0.9731
2321.259534 0.9736 0.9740 0.9740 0.9741 0.9746
2327.016846 0.9750 0.9750 0.9750 0.9750 0.9750
2332.774159 0.9750 0.9750 0.9750 0.9749 0.9744
2338.531472 0.9740 0.9740 0.9740 0.9740 0.9742
2344.288784 0.9762 0.9782 0.9802 0.9819 0.9815
2350.046097 0.9809 0.9794 0.9780 0.9780 0.9779
2355.803410 0.9764 0.9750 0.9740 0.9730 0.9720
2361.560722 0.9710 0.9695 0.9680 0.9675 0.9670
2367.318035 0.9675 0.9680 0.9695 0.9710 0.9720
2373.075347 0.9730 0.9740 0.9749 0.9759 0.9769
2378.832660 0.9793 0.9818 0.9825 0.9830 0.9830
2384.589973 0.9830 0.9834 0.9839 0.9844 0.9849
2390.347285 0.9850 0.9850 0.9850 0.9850 0.9850
2396.104598 0.9850 0.9850 0.9850 0.9838 0.9823
2401.861911 0.9820 0.9820 0.9820 0.9820 0.9820
2407.619223 0.9820 0.9820 0.9820 0.9824 0.9829
2413.376536 0.9830 0.9830 0.9823 0.9813 0.9806
2419.133848 0.9801 0.9800 0.9800 0.9803 0.9808
2424.891161 0.9813 0.9818 0.9823 0.9828 0.9836
2430.648474 0.9846 0.9847 0.9842 0.9834 0.9824
2436.405786 0.9817 0.9812 0.9810 0.9810 0.9813
2442.163099 0.9818 0.9820 0.9820 0.9817 0.9812
2447.920411 0.9810 0.9810 0.9807 0.9802 0.9795
2453.677724 0.9785 0.9777 0.9773 0.9770 0.9770
2459.435037 0.9768 0.9763 0.9758 0.9753 0.9745
2465.192349 0.9735 0.9728 0.9723 0.9716 0.9706
2470.949662 0.9696 0.9686 0.9678 0.9673 0.9670
2476.706975 0.9670 0.9670 0.9670 0.9668 0.9663
2482.464287 0.9660 0.9660 0.9658 0.9653 0.9650
2488.221600 0.9650 0.9650 0.9650 0.9652 0.9657
2493.978912 0.9661 0.9666 0.9671 0.9676 0.9680
2499.736225 0.9680 0.9683 0.9692 0.9702 0.9712
2505.493538 0.9723 0.9738 0.9750 0.9750 0.9750
2511.250850 0.9750 0.9751 0.9756 0.9761 0.9766
2517.008163 0.9770 0.9770 0.9771 0.9776 0.9780
2522.765476 0.9780 0.9779 0.9774 0.9770 0.9770
2528.522788 0.9770 0.9765 0.9760 0.9760 0.9760
2534.280101 0.9760 0.9760 0.9755 0.9750 0.9745
2540.037413 0.9740 0.9735 0.9730 0.9725 0.9720
2545.794726 0.9720 0.9720 0.9715 0.9710 0.9705
2551.552039 0.9700 0.9690 0.9680 0.9670 0.9660
2557.309351 0.9641 0.9621 0.9606 0.9591 0.9576
2563.066664 0.9561 0.9542 0.9522 0.9507 0.9492
2568.823977 0.9477 0.9462 0.9451 0.9441 0.9410
2574.581289 0.9375 0.9345 0.9315 0.9277 0.9237
2580.338602 0.9201 0.9166 0.9148 0.9133 0.9122
2586.095914 0.9112 0.9106 0.9101 0.9092 0.9082
2591.853227 0.9072 0.9063 0.9056 0.9051 0.9028
2597.610540 0.8998 0.8976 0.8956 0.8946 0.8941
2603.367852 0.8919 0.8889 0.8856 0.8821 0.8803
2609.125165 0.8793 0.8790 0.8790 0.8784 0.8774
2614.882477 0.8751 0.8721 0.8695 0.8670 0.8645
2620.639790 0.8620 0.8595 0.8571 0.8554 0.8544
2626.397103 0.8534 0.8524 0.8463 0.8364 0.8262
2632.154415 0.8158 0.8051 0.7942 0.8067 0.8405
2637.911728 0.8570 0.8570 0.8538 0.8474 0.8409
2643.669041 0.8345 0.8292 0.8252 0.8214 0.8179
2649.426353 0.8151 0.8131 0.8129 0.8149 0.8154
2655.183666 0.8139 0.8116 0.8081 0.8054 0.8039
2660.940978 0.8024 0.8009 0.7974 0.7905 0.7841
2666.698291 0.7786 0.7740 0.7710 0.7690 0.7690
2672.455604 0.7693 0.7703 0.7715 0.7730 0.7742
2678.212916 0.7746 0.7751 0.7756 0.7761 0.7766
2683.970229 0.7773 0.7782 0.7796 0.7821 0.7848
2689.727542 0.7883 0.7913 0.7928 0.7941 0.7946
2695.484854 0.7949 0.7944 0.7931 0.7881 0.7828
2701.242167 0.7758 0.7688 0.7614 0.7542 0.7488
2706.999479 0.7418 0.7249 0.7089 0.6995 0.6900
2712.756792 0.6801 0.6685 0.6392 0.6111 0.5975
2718.514105 0.5840 0.5711 0.5585 0.5511 0.5431
2724.271417 0.5242 0.5057 0.4973 0.4888 0.4804
2730.028730 0.4720 0.4700 0.4680 0.4366 0.4048
2735.786043 0.3721 0.3394 0.3623 0.3876 0.4027
2741.543355 0.4173 0.4643 0.5129 0.5160 0.5160
2747.300668 0.5101 0.5036 0.5030 0.5030 0.5034
2753.057980 0.5039 0.5075 0.5115 0.5180 0.5249
2758.815293 0.5298 0.5342 0.5383 0.5423 0.5430
2764.572606 0.5430 0.5418 0.5403 0.5279 0.5131
2770.329918 0.4974 0.4815 0.4652 0.4488 0.4423
2776.087231 0.4389 0.4142 0.3824 0.3700 0.3645
2781.844543 0.3587 0.3528 0.3444 0.3349 0.3258
2787.601856 0.3167 0.3078 0.2988 0.2943 0.2918
2793.359169 0.2883 0.2844 0.2788 0.2723 0.2678
2799.116481 0.2643 0.2608 0.2574 0.2466 0.2313
2804.873794 0.2250 0.2250 0.2270 0.2305 0.2337
2810.631107 0.2367 0.2485 0.2669 0.2803 0.2897
2816.388419 0.2991 0.3085 0.3164 0.3229 0.3290
2822.145732 0.3350 0.3405 0.3454 0.3580 0.3789
2827.903044 0.3935 0.4009 0.4070 0.4115 0.4160
2833.660357 0.4205 0.4239 0.4259 0.4270 0.4270
2839.417670 0.4214 0.4080 0.3960 0.3861 0.3760
2845.174982 0.3656 0.3524 0.3345 0.3177 0.3028
2850.932295 0.2900 0.2810 0.2732 0.2678 0.2621
2856.689608 0.2561 0.2511 0.2481 0.2434 0.2350
2862.446920 0.2290 0.2290 0.2297 0.2322 0.2353
2868.204233 0.2402 0.2471 0.2601 0.2722 0.2816
2873.961545 0.2901 0.2950 0.2999 0.3044 0.3106
2879.718858 0.3246 0.3381 0.3490 0.3601 0.3720
2885.476171 0.3828 0.3878 0.3932 0.4017 0.4094
2891.233483 0.4124 0.4152 0.4172 0.4173 0.4009
2896.990796 0.3853 0.3768 0.3684 0.3605 0.3520
2902.748109 0.3344 0.3167 0.2974 0.2780 0.2581
2908.505421 0.2385 0.2241 0.2098 0.1994 0.1889
2914.262734 0.1800 0.1711 0.1681 0.1651 0.1616
2920.020046 0.1581 0.1494 0.1405 0.1283 0.1159
2925.777359 0.1080 0.1005 0.0939 0.0875 0.0861
2931.534672 0.0851 0.0845 0.0841 0.0836 0.0831
2937.291984 0.0821 0.0811 0.0801 0.0791 0.0693
2943.049297 0.0579 0.0560 0.0560 0.0637 0.0732
2948.806609 0.0766 0.0786 0.0798 0.0808 0.0818
2954.563922 0.0828 0.0834 0.0839 0.0844 0.0849
2960.321235 0.0913 0.0998 0.1155 0.1339 0.1566
2966.078547 0.1809 0.1968 0.2092 0.2391 0.2768
2971.835860 0.3186 0.3623 0.3940 0.4203 0.4856
2977.593173 0.5700 0.6110 0.6294 0.6898 0.7736
2983.350485 0.8118 0.8228 0.8373 0.8542 0.8678
2989.107798 0.8792 0.8938 0.9107 0.9188 0.9203
2994.865110 0.9235 0.9280 0.9317 0.9346 0.9374
3000.622423 0.9398 0.9421 0.9440 0.9478 0.9533
3006.379736 0.9560 0.9560 0.9562 0.9567 0.9582
3012.137048 0.9606 0.9627 0.9642 0.9650 0.9650
3017.894361 0.9652 0.9657 0.9660 0.9660 0.9660
3023.651674 0.9660 0.9662 0.9667 0.9670 0.9670
3029.408986 0.9670 0.9670 0.9670 0.9670 0.9670
3035.166299 0.9670 0.9670 0.9670 0.9670 0.9670
3040.923611 0.9671 0.9677 0.9683 0.9693 0.9701
3046.680924 0.9706 0.9713 0.9723 0.9731 0.9736
3052.438237 0.9741 0.9746 0.9751 0.9756 0.9760
3058.195549 0.9760 0.9760 0.9760 0.9761 0.9766
3063.952862 0.9773 0.9788 0.9800 0.9800 0.9800
3069.710175 0.9800 0.9801 0.9806 0.9811 0.9816
3075.467487 0.9820 0.9820 0.9820 0.9820 0.9820
3081.224800 0.9820 0.9820 0.9820 0.9820 0.9820
3086.982112 0.9820 0.9820 0.9820 0.9820 0.9820
3092.739425 0.9820 0.9820 0.9820 0.9820 0.9820
3098.496738 0.9820 0.9820 0.9820 0.9825 0.9830
3104.254050 0.9835 0.9840 0.9840 0.9840 0.9840
3110.011363 0.9840 0.9840 0.9840 0.9840 0.9840
3115.768675 0.9845 0.9849 0.9854 0.9859 0.9860
3121.525988 0.9860 0.9860 0.9860 0.9860 0.9860
3127.283301 0.9860 0.9860 0.9856 0.9851 0.9846
3133.040613 0.9841 0.9836 0.9831 0.9822 0.9812
3138.797926 0.9798 0.9783 0.9776 0.9771 0.9763
3144.555239 0.9753 0.9746 0.9741 0.9726 0.9706
3150.312551 0.9689 0.9675 0.9667 0.9662 0.9660
3156.069864 0.9660 0.9647 0.9627 0.9617 0.9612
3161.827176 0.9603 0.9594 0.9584 0.9574 0.9567
3167.584489 0.9562 0.9557 0.9552 0.9547 0.9542
3173.341802 0.9537 0.9532 0.9530 0.9530 0.9530
3179.099114 0.9530 0.9530 0.9530 0.9535 0.9545
3184.856427 0.9553 0.9558 0.9570 0.9590 0.9612
3190.613740 0.9637 0.9652 0.9657 0.9665 0.9675
3196.371052 0.9694 0.9723 0.9753 0.9783 0.9808
3202.128365 0.9828 0.9842 0.9847 0.9852 0.9857
3207.885677 0.9860 0.9860 0.9864 0.9874 0.9884
3213.642990 0.9894 0.9900 0.9900 0.9900 0.9900
3219.400303 0.9902 0.9907 0.9912 0.9917 0.9921
3225.157615 0.9926 0.9930 0.9930 0.9930 0.9930
3230.914928 0.9930 0.9930 0.9930 0.9930 0.9931
3236.672241 0.9936 0.9940 0.9940 0.9940 0.9940
3242.429553 0.9940 0.9940 0.9940 0.9940 0.9940
3248.186866 0.9940 0.9940 0.9940 0.9940 0.9940
3253.944178 0.9940 0.9940 0.9940 0.9940 0.9940
3259.701491 0.9940 0.9940 0.9940 0.9940 0.9940
3265.458804 0.9940 0.9940 0.9940 0.9935 0.9930
3271.216116 0.9930 0.9930 0.9925 0.9920 0.9915
3276.973429 0.9910 0.9910 0.9910 0.9905 0.9900
3282.730741 0.9900 0.9900 0.9900 0.9900 0.9900
3288.488054 0.9900 0.9900 0.9900 0.9891 0.9881
3294.245367 0.9875 0.9870 0.9861 0.9851 0.9850
3300.002679 0.9850 0.9846 0.9841 0.9831 0.9821
3305.759992 0.9811 0.9801 0.9792 0.9782 0.9772
3311.517305 0.9762 0.9760 0.9760 0.9756 0.9751
3317.274617 0.9746 0.9741 0.9717 0.9686 0.9645
3323.031930 0.9600 0.9590 0.9590 0.9616 0.9651
3328.789242 0.9664 0.9669 0.9674 0.9679 0.9680
3334.546555 0.9680 0.9680 0.9680 0.9690 0.9705
3340.303868 0.9710 0.9710 0.9717 0.9727 0.9733
3346.061180 0.9738 0.9743 0.9748 0.9753 0.9758
3351.818493 0.9763 0.9768 0.9770 0.9770 0.9770
3357.575806 0.9770 0.9770 0.9770 0.9778 0.9793
3363.333118 0.9800 0.9800 0.9803 0.9808 0.9813
3369.090431 0.9818 0.9820 0.9820 0.9820 0.9820
3374.847743 0.9820 0.9820 0.9822 0.9827 0.9830
3380.605056 0.9830 0.9837 0.9852 0.9862 0.9867
3386.362369 0.9876 0.9891 0.9900 0.9900 0.9900
3392.119681 0.9900 0.9904 0.9914 0.9922 0.9927
3397.876994 0.9932 0.9937 0.9942 0.9947 0.9950
3403.634307 0.9950 0.9950 0.9950 0.9950 0.9950
3409.391619 0.9950 0.9950 0.9950 0.9950 0.9951
3415.148932 0.9956 0.9959 0.9954 0.9950 0.9950
3420.906244 0.9950 0.9950 0.9951 0.9956 0.9960
3426.663557 0.9960 0.9960 0.9960 0.9959 0.9954
3432.420870 0.9950 0.9950 0.9950 0.9950 0.9950
3438.178182 0.9950 0.9949 0.9944 0.9939 0.9934
3443.935495 0.9930 0.9930 0.9930 0.9930 0.9929
3449.692807 0.9914 0.9899 0.9889 0.9880 0.9870
3455.450120 0.9860 0.9860 0.9860 0.9855 0.9850
3461.207433 0.9845 0.9840 0.9830 0.9820 0.9820
3466.964745 0.9820 0.9815 0.9810 0.9805 0.9800
3472.722058 0.9791 0.9781 0.9775 0.9770 0.9765
3478.479371 0.9760 0.9760 0.9760 0.9769 0.9779
3484.236683 0.9789 0.9799 0.9804 0.9809 0.9814
3489.993996 0.9819 0.9820 0.9820 0.9828 0.9838
3495.751308 0.9856 0.9876 0.9892 0.9907 0.9910
3501.508621 0.9910 0.9914 0.9919 0.9920 0.9920
3507.265934 0.9920 0.9920 0.9924 0.9929 0.9930
3513.023246 0.9930 0.9926 0.9921 0.9920 0.9920
3518.780559 0.9923 0.9928 0.9930 0.9930 0.9937
3524.537872 0.9947 0.9950 0.9950 0.9950 0.9950
3530.295184 0.9947 0.9942 0.9937 0.9932 0.9930
3536.052497 0.9930 0.9927 0.9922 0.9920 0.9920
3541.809809 0.9929 0.9943 0.9956 0.9965 0.9967
3547.567122 0.9962 0.9957 0.9952 0.9950 0.9950
3553.324435 0.9945 0.9935 0.9938 0.9952 0.9960
3559.081747 0.9960 0.9941 0.9901 0.9880 0.9880
3564.839060 0.9898 0.9937 0.9964 0.9974 0.9972
3570.596373 0.9952 0.9932 0.9912 0.9900 0.9900
3576.353685 0.9912 0.9942 0.9951 0.9926 0.9901
3582.110998 0.9876 0.9874 0.9914 0.9940 0.9940
3587.868310 0.9940 0.9940 0.9940 0.9940 0.9940
3593.625623 0.9940 0.9941 0.9946 0.9950 0.9950
3599.382936 0.9943 0.9919 0.9895 0.9875 0.9861
3605.140248 0.9866 0.9877 0.9906 0.9933 0.9948
3610.897561 0.9964 0.9984 1.0000 1.0000 0.9986
3616.654873 0.9902 0.9845 0.9944 1.0030 1.0030
3622.412186 1.0017 0.9922 0.9848 0.9907 0.9960
3628.169499 0.9960 0.9958 0.9938 0.9920 0.9920
3633.926811 0.9918 0.9883 0.9853 0.9902 0.9950
3639.684124 0.9960 0.9970 0.9970 0.9969 0.9864
3645.441437 0.9760 0.9760 0.9760 0.9854 0.9949
3651.198749 0.9945 0.9940 0.9911 0.9881 0.9871
3656.956062 0.9861 0.9860 0.9860 0.9860 0.9860
3662.713374 0.9887 0.9917 0.9876 0.9826 0.9886
3668.470687 0.9962 0.9957 0.9942 0.9905 0.9866
3674.228000 0.9856 0.9851 0.9896 0.9951 0.9964
3679.985312 0.9969 0.9970 0.9970 0.9907 0.9827
3685.742625 0.9810 0.9810 0.9860 0.9924 0.9951
3691.499938 0.9966 0.9970 0.9970 0.9929 0.9875
3697.257250 0.9838 0.9808 0.9800 0.9800 0.9859
3703.014563 0.9944 0.9970 0.9970 0.9907 0.9812
3708.771875 0.9780 0.9780 0.9806 0.9845 0.9873
3714.529188 0.9893 0.9900 0.9900 0.9875 0.9836
3720.286501 0.9802 0.9772 0.9786 0.9831 0.9867
3726.043813 0.9897 0.9910 0.9910 0.9858 0.9764
3731.801126 0.9720 0.9720 0.9758 0.9833 0.9870
3737.558439 0.9870 0.9867 0.9863 0.9858 0.9853
3743.315751 0.9848 0.9843 0.9819 0.9775 0.9770
3749.073064 0.9815 0.9840 0.9840 0.9844 0.9854
3754.830376 0.9842 0.9797 0.9780 0.9804 0.9826
3760.587689 0.9841 0.9854 0.9864 0.9863 0.9843
3766.345002 0.9830 0.9830 0.9833 0.9843 0.9858
3772.102314 0.9883 0.9900 0.9900 0.9896 0.9881
3777.859627 0.9870 0.9870 0.9870 0.9870 0.9870
3783.616940 0.9870 0.9870 0.9870 0.9869 0.9864
3789.374252 0.9860 0.9860 0.9858 0.9848 0.9840
3795.131565 0.9840 0.9840 0.9840 0.9840 0.9840
3800.888877 0.9845 0.9874 0.9900 0.9900 0.9900
3806.646190 0.9900 0.9900 0.9900 0.9893 0.9834
3812.403503 0.9780 0.9780 0.9784 0.9828 0.9870
3818.160815 0.9875 0.9880 0.9880 0.9880 0.9875
3823.918128 0.9870 0.9860 0.9850 0.9825 0.9800
3829.675440 0.9800 0.9800 0.9830 0.9860 0.9865
3835.432753 0.9870 0.9870 0.9870 0.9846 0.9821
3841.190066 0.9811 0.9801 0.9828 0.9857 0.9960
3846.947378 1.0069 1.0080 1.0080 0.9918 0.9734
3852.704691 0.9710 0.9710 0.9814 0.9934 0.9950
3858.462004 0.9950 0.9895 0.9831 0.9824 0.9829
3864.219316 0.9842 0.9857 0.9856 0.9851 0.9850
3869.976629 0.9850 0.9858 0.9868 0.9870 0.9870
3875.733941 0.9859 0.9844 0.9818 0.9788 0.9780
3881.491254 0.9780 0.9798 0.9823 0.9861 0.9906
3887.248567 0.9920 0.9920 0.9863 0.9779 0.9750
3893.005879 0.9750 0.9769 0.9799 0.9819 0.9834
3898.763192 0.9840 0.9840 0.9828 0.9808 0.9806
3904.520505 0.9816 0.9823 0.9828 0.9830 0.9830
3910.277817 0.9833 0.9838 0.9840 0.9840 0.9832
3916.035130 0.9817 0.9807 0.9802 0.9800 0.9800
3921.792442 0.9802 0.9807 0.9810 0.9810 0.9812
3927.549755 0.9817 0.9811 0.9791 0.9778 0.9773
3933.307068 0.9770 0.9770 0.9772 0.9777 0.9780
3939.064380 0.9780 0.9772 0.9752 0.9740 0.9740
3944.821693 0.9740 0.9740 0.9738 0.9733 0.9730
3950.579006 0.9730 0.9728 0.9723 0.9720 0.9720
3956.336318 0.9717 0.9707 0.9697 0.9687 0.9680
3962.093631 0.9680 0.9680 0.9680 0.9680 0.9680
3967.850943 0.9678 0.9668 0.9660 0.9660 0.9660
3973.608256 0.9660 0.9660 0.9660 0.9662 0.9672
3979.365569 0.9682 0.9692 0.9702 0.9712 0.9720
3985.122881 0.9720 0.9720 0.9720 0.9721 0.9726
3990.880194 0.9731 0.9736 0.9735 0.9696 0.9661
3996.637506 0.9671 0.9681 0.9691 0.9701 0.9711
4002.394819 0.9720 0.9720 0.9720 0.9720 0.9720
4008.152132 0.9725 0.9730 0.9735 0.9740
##END=
