##TITLE=CYCLOHEXANE
##JCAMP-DX=4.24
##DATA TYPE=INFRARED SPECTRUM
##CLASS=COBLENTZ
##ORIGIN=DOW CHEMICAL COMPANY
##OWNER=COBLENTZ SOCIETY
Collection (C) 2018 copyright by the U.S. Secretary of Commerce
on behalf of the United States of America. All rights reserved.
##DATE=1979/03/15
##CAS REGISTRY NO=110-82-7
##MOLFORM=C6 H12
##SOURCE REFERENCE=COBLENTZ NO. 10506
##$NIST SOURCE=COBLENTZ
##$NIST IMAGE=cob-r10506
##SPECTROMETER/DATA SYSTEM=PERKIN-ELMER 180
##STATE=GAS (25 mmHg, N2 ADDED, TOTAL PRESSURE 600 mmHg)
##PATH LENGTH=18 CM
##SAMPLING PROCEDURE=TRANSMISSION
##RESOLUTION=2
##DATA PROCESSING=DIGITIZED BY NIST FROM HARD COPY (FROM TWO SEGMENTS)
##XUNITS=1/CM
##YUNITS=TRANSMITTANCE
##XFACTOR=1.000000
##YFACTOR=1
##DELTAX=1.515158
##FIRSTX=172.727
##LASTX=4000.02
##FIRSTY=0.001
##MAXX=4000.02
##MINX=172.727
##MAXY=0.881981
##MINY=0.001
##NPOINTS=2527
##XYDATA=(X++(Y..Y))
172.727000 0.0010 0.0050 0.0070 0.0100 0.0100
180.302790 0.0100 0.0100 0.0080 0.0080 0.0050
187.878579 0.0050 0.0070 0.0080 0.0110 0.0140
195.454369 0.0160 0.0140 0.0130 0.0110 0.0070
203.030158 0.0040 0.0020 0.0020 0.0040 0.0050
210.605948 0.0070 0.0070 0.0080 0.0080 0.0080
218.181738 0.0070 0.0050 0.0050 0.0040 0.0040
225.757527 0.0020 0.0020 0.0010 0.0010 0.0010
233.333317 0.0010 0.0010 0.0010 0.0010 0.0010
240.909106 0.0010 0.0010 0.0010 0.0010 0.0010
248.484896 0.0010 0.0010 0.0010 0.0010 0.0010
256.060686 0.0010 0.0010 0.0010 0.0010 0.0010
263.636475 0.0010 0.0010 0.0010 0.0010 0.0010
271.212265 0.0010 0.0010 0.0010 0.0010 0.0010
278.788055 0.0010 0.0010 0.0010 0.0010 0.0010
286.363844 0.0010 0.0010 0.0010 0.0010 0.0010
293.939634 0.0010 0.0010 0.0010 0.0020 0.0040
301.515423 0.0050 0.0080 0.0130 0.0190 0.0220
309.091213 0.0260 0.0290 0.0360 0.0380 0.0440
316.667003 0.0470 0.0599 0.0719 0.0750 0.0819
324.242792 0.0860 0.0920 0.0970 0.1110 0.1230
331.818582 0.1350 0.1410 0.1470 0.1510 0.1619
339.394371 0.1790 0.1880 0.1940 0.2010 0.2070
346.970161 0.2219 0.2409 0.2509 0.2659 0.2700
354.545951 0.2790 0.2900 0.3040 0.3210 0.3280
362.121740 0.3350 0.3430 0.3529 0.3679 0.3779
369.697530 0.3960 0.4100 0.4270 0.4350 0.4380
377.273319 0.4460 0.4520 0.4649 0.4799 0.4869
384.849109 0.5080 0.5190 0.5280 0.5430 0.5580
392.424899 0.5670 0.5809 0.5860 0.5959 0.6049
400.000688 0.6200 0.6310 0.6390 0.6450 0.6500
407.576478 0.6550 0.6580 0.6640 0.6700 0.6750
415.152267 0.6830 0.6890 0.6950 0.6990 0.7050
422.728057 0.7090 0.7140 0.7180 0.7240 0.7290
430.303847 0.7390 0.7460 0.7490 0.7510 0.7550
437.879636 0.7560 0.7560 0.7590 0.7650 0.7680
445.455426 0.7730 0.7740 0.7800 0.7860 0.7990
453.031215 0.8050 0.8070 0.8080 0.8100 0.8140
460.607005 0.8150 0.8170 0.8170 0.8180 0.8240
468.182795 0.8270 0.8300 0.8330 0.8350 0.8360
475.758584 0.8360 0.8370 0.8370 0.8370 0.8360
483.334374 0.8360 0.8320 0.8260 0.8180 0.8170
490.910164 0.8170 0.8260 0.8260 0.8240 0.8150
498.485953 0.8100 0.8070 0.8100 0.8140 0.8180
506.061743 0.8210 0.8240 0.8240 0.8260 0.8290
513.637532 0.8350 0.8390 0.8400 0.8400 0.8400
521.213322 0.8420 0.8420 0.8450 0.8540 0.8540
528.789112 0.8550 0.8570 0.8580 0.8610 0.8640
536.364901 0.8670 0.8680 0.8680 0.8700 0.8730
543.940691 0.8730 0.8740 0.8770 0.8790 0.8790
551.516480 0.8770 0.8740 0.8730 0.8710 0.8710
559.092270 0.8700 0.8700 0.8680 0.8650 0.8640
566.668060 0.8630 0.8610 0.8610 0.8600 0.8600
574.243849 0.8610 0.8630 0.8630 0.8630 0.8610
581.819639 0.8610 0.8610 0.8630 0.8640 0.8650
589.395428 0.8650 0.8630 0.8630 0.8650 0.8680
596.971218 0.8700 0.8710 0.8710 0.8700 0.8650
604.547008 0.8630 0.8600 0.8600 0.8580 0.8580
612.122797 0.8600 0.8610 0.8630 0.8630 0.8640
619.698587 0.8650 0.8680 0.8680 0.8670 0.8650
627.274376 0.8640 0.8630 0.8600 0.8580 0.8570
634.850166 0.8550 0.8540 0.8540 0.8540 0.8550
642.425956 0.8550 0.8550 0.8570 0.8580 0.8610
650.001745 0.8630 0.8650 0.8670 0.8670 0.8670
657.577535 0.8670 0.8650 0.8650 0.8650 0.8650
665.153325 0.8650 0.8640 0.8630 0.8630 0.8610
672.729114 0.8610 0.8630 0.8640 0.8640 0.8630
680.304904 0.8630 0.8630 0.8630 0.8610 0.8610
687.880693 0.8600 0.8600 0.8580 0.8550 0.8540
695.456483 0.8520 0.8520 0.8540 0.8540 0.8540
703.032273 0.8570 0.8570 0.8570 0.8550 0.8540
710.608062 0.8520 0.8490 0.8450 0.8450 0.8460
718.183852 0.8460 0.8480 0.8490 0.8520 0.8550
725.759641 0.8580 0.8600 0.8580 0.8580 0.8570
733.335431 0.8570 0.8520 0.8520 0.8510 0.8510
740.911221 0.8510 0.8490 0.8490 0.8490 0.8490
748.487010 0.8490 0.8510 0.8510 0.8510 0.8490
756.062800 0.8490 0.8510 0.8510 0.8510 0.8510
763.638589 0.8490 0.8450 0.8390 0.8390 0.8430
771.214379 0.8450 0.8450 0.8460 0.8460 0.8450
778.790169 0.8450 0.8430 0.8430 0.8400 0.8390
786.365958 0.8360 0.8270 0.8240 0.8240 0.8260
793.941748 0.8320 0.8360 0.8290 0.8300 0.8330
801.517537 0.8370 0.8420 0.8430 0.8430 0.8430
809.093327 0.8430 0.8430 0.8430 0.8430 0.8390
816.669117 0.8370 0.8370 0.8370 0.8370 0.8350
824.244906 0.8270 0.8210 0.8180 0.8150 0.8050
831.820696 0.7930 0.7820 0.7621 0.7511 0.7401
839.396485 0.7330 0.7200 0.7180 0.7180 0.7240
846.972275 0.7340 0.7460 0.7510 0.7550 0.7520
854.548065 0.5959 0.5309 0.4661 0.7509 0.7480
862.123854 0.7151 0.6861 0.6830 0.6840 0.6920
869.699644 0.7050 0.7200 0.7360 0.7540 0.7670
877.275434 0.7770 0.7820 0.7840 0.7840 0.7840
884.851223 0.7820 0.7760 0.7670 0.7560 0.7460
892.427013 0.7300 0.7061 0.6712 0.6501 0.6460
900.002802 0.6481 0.6780 0.6800 0.6800 0.6520
907.578592 0.6500 0.6520 0.6699 0.6949 0.7666
915.154382 0.7920 0.8040 0.8180 0.8300 0.8390
922.730171 0.8450 0.8480 0.8550 0.8570 0.8570
930.305961 0.8570 0.8550 0.8520 0.8460 0.8460
937.881750 0.8450 0.8420 0.8370 0.8370 0.8430
945.457540 0.8460 0.8480 0.8480 0.8450 0.8450
953.033330 0.8420 0.8400 0.8400 0.8420 0.8430
960.609119 0.8430 0.8430 0.8430 0.8460 0.8490
968.184909 0.8520 0.8520 0.8510 0.8490 0.8460
975.760698 0.8430 0.8430 0.8430 0.8430 0.8390
983.336488 0.8390 0.8430 0.8490 0.8490 0.8450
990.912278 0.8430 0.8390 0.8270 0.8240 0.8240
998.488067 0.8230 0.8150 0.8070 0.8020 0.7950
1006.063857 0.7920 0.7930 0.7960 0.7990 0.8040
1013.639646 0.8140 0.8150 0.8120 0.8050 0.7951
1021.215436 0.7870 0.7860 0.7840 0.7840 0.7840
1028.791226 0.7830 0.7770 0.7700 0.7551 0.7232
1036.367015 0.7230 0.7260 0.7520 0.7760 0.7950
1043.942805 0.7980 0.7930 0.7930 0.7930 0.7950
1051.518594 0.7950 0.8020 0.8120 0.8290 0.8390
1059.094384 0.8420 0.8420 0.8420 0.8480 0.8540
1066.670174 0.8570 0.8580 0.8580 0.8550 0.8550
1074.245963 0.8570 0.8610 0.8630 0.8630 0.8610
1081.821753 0.8490 0.8420 0.8390 0.8370 0.8390
1089.397543 0.8400 0.8450 0.8490 0.8540 0.8630
1096.973332 0.8640 0.8640 0.8640 0.8700 0.8700
1104.549122 0.8650 0.8630 0.8600 0.8550 0.8520
1112.124911 0.8540 0.8580 0.8610 0.8630 0.8650
1119.700701 0.8710 0.8710 0.8650 0.8600 0.8481
1127.276491 0.8450 0.8450 0.8480 0.8510 0.8520
1134.852280 0.8520 0.8510 0.8490 0.8480 0.8480
1142.428070 0.8480 0.8490 0.8570 0.8600 0.8600
1150.003859 0.8540 0.8540 0.8520 0.8520 0.8490
1157.579649 0.8460 0.8450 0.8450 0.8480 0.8540
1165.155439 0.8570 0.8570 0.8570 0.8550 0.8480
1172.731228 0.8460 0.8460 0.8460 0.8460 0.8460
1180.307018 0.8460 0.8460 0.8460 0.8480 0.8510
1187.882807 0.8520 0.8580 0.8610 0.8630 0.8610
1195.458597 0.8580 0.8550 0.8510 0.8510 0.8510
1203.034387 0.8510 0.8520 0.8540 0.8540 0.8540
1210.610176 0.8510 0.8510 0.8490 0.8490 0.8490
1218.185966 0.8490 0.8480 0.8460 0.8450 0.8430
1225.761755 0.8430 0.8420 0.8390 0.8370 0.8360
1233.337545 0.8350 0.8300 0.8210 0.8070 0.7860
1240.913335 0.7770 0.7680 0.7590 0.7480 0.7331
1248.489124 0.7240 0.7230 0.7240 0.7330 0.7270
1256.064914 0.7150 0.6891 0.6461 0.6460 0.6579
1263.640704 0.6981 0.7180 0.7210 0.7210 0.7140
1271.216493 0.7150 0.7230 0.7310 0.7370 0.7619
1278.792283 0.7920 0.8080 0.8210 0.8300 0.8350
1286.368072 0.8360 0.8400 0.8450 0.8480 0.8490
1293.943862 0.8490 0.8510 0.8540 0.8640 0.8650
1301.519652 0.8680 0.8650 0.8600 0.8570 0.8490
1309.095441 0.8480 0.8490 0.8510 0.8520 0.8520
1316.671231 0.8490 0.8460 0.8490 0.8520 0.8520
1324.247020 0.8570 0.8600 0.8580 0.8550 0.8510
1331.822810 0.8480 0.8450 0.8450 0.8430 0.8420
1339.398600 0.8420 0.8400 0.8400 0.8400 0.8420
1346.974389 0.8430 0.8430 0.8450 0.8450 0.8480
1354.550179 0.8490 0.8520 0.8520 0.8540 0.8540
1362.125968 0.8550 0.8550 0.8580 0.8739 0.8760
1369.701758 0.8760 0.8730 0.8670 0.8540 0.8450
1377.277548 0.8390 0.8350 0.8330 0.8420 0.8430
1384.853337 0.8520 0.8520 0.8430 0.8390 0.8260
1392.429127 0.8230 0.8240 0.8260 0.8300 0.8390
1400.004916 0.8460 0.8490 0.8520 0.8520 0.8480
1407.580706 0.8480 0.8460 0.8460 0.8430 0.8360
1415.156496 0.8210 0.8210 0.8270 0.8300 0.8240
1422.732285 0.8150 0.8010 0.7561 0.7211 0.6702
1430.308075 0.6268 0.5579 0.5149 0.4709 0.3000
1437.883864 0.2590 0.2191 0.2120 0.2319 0.2340
1445.459654 0.2340 0.2320 0.2190 0.1940 0.1840
1453.035444 0.0861 0.2816 0.2820 0.2222 0.2200
1460.611233 0.2201 0.2431 0.2811 0.3120 0.3340
1468.187023 0.3630 0.3940 0.5666 0.6448 0.6928
1475.762813 0.7171 0.7481 0.7710 0.7860 0.8230
1483.338602 0.8540 0.8550 0.8570 0.8570 0.8550
1490.914392 0.8520 0.8490 0.8460 0.8480 0.8540
1498.490181 0.8520 0.8460 0.8430 0.8460 0.8520
1506.065971 0.8600 0.8640 0.8650 0.8610 0.8610
1513.641761 0.8680 0.8730 0.8730 0.8710 0.8670
1521.217550 0.8630 0.8580 0.8570 0.8570 0.8580
1528.793340 0.8650 0.8740 0.8740 0.8740 0.8730
1536.369129 0.8650 0.8630 0.8610 0.8570 0.8600
1543.944919 0.8640 0.8670 0.8700 0.8770 0.8820
1551.520709 0.8820 0.8770 0.8740 0.8740 0.8730
1559.096498 0.8730 0.8700 0.8680 0.8670 0.8630
1566.672288 0.8610 0.8600 0.8610 0.8630 0.8630
1574.248077 0.8640 0.8640 0.8640 0.8640 0.8610
1581.823867 0.8610 0.8600 0.8610 0.8630 0.8630
1589.399657 0.8640 0.8650 0.8650 0.8650 0.8650
1596.975446 0.8670 0.8670 0.8680 0.8680 0.8680
1604.551236 0.8650 0.8650 0.8640 0.8610 0.8610
1612.127025 0.8600 0.8610 0.8630 0.8630 0.8640
1619.702815 0.8670 0.8670 0.8650 0.8650 0.8650
1627.278605 0.8650 0.8640 0.8630 0.8630 0.8640
1634.854394 0.8640 0.8640 0.8670 0.8700 0.8710
1642.430184 0.8710 0.8730 0.8730 0.8710 0.8670
1650.005974 0.8640 0.8610 0.8610 0.8600 0.8580
1657.581763 0.8580 0.8570 0.8570 0.8550 0.8550
1665.157553 0.8550 0.8550 0.8570 0.8570 0.8580
1672.733342 0.8600 0.8610 0.8600 0.8550 0.8540
1680.309132 0.8540 0.8570 0.8600 0.8630 0.8680
1687.884922 0.8700 0.8700 0.8710 0.8710 0.8710
1695.460711 0.8700 0.8670 0.8670 0.8680 0.8700
1703.036501 0.8700 0.8710 0.8730 0.8730 0.8740
1710.612290 0.8740 0.8730 0.8730 0.8710 0.8700
1718.188080 0.8680 0.8670 0.8650 0.8650 0.8640
1725.763870 0.8630 0.8610 0.8570 0.8570 0.8570
1733.339659 0.8570 0.8570 0.8580 0.8600 0.8610
1740.915449 0.8600 0.8570 0.8570 0.8570 0.8570
1748.491238 0.8550 0.8550 0.8550 0.8550 0.8570
1756.067028 0.8570 0.8580 0.8600 0.8630 0.8610
1763.642818 0.8600 0.8570 0.8540 0.8540 0.8510
1771.218607 0.8510 0.8510 0.8520 0.8520 0.8540
1778.794397 0.8550 0.8570 0.8580 0.8610 0.8610
1786.370186 0.8600 0.8580 0.8600 0.8610 0.8610
1793.945976 0.8610 0.8630 0.8630 0.8630 0.8610
1801.521766 0.8610 0.8580 0.8570 0.8550 0.8540
1809.097555 0.8510 0.8510 0.8510 0.8520 0.8520
1816.673345 0.8520 0.8540 0.8540 0.8550 0.8570
1824.249134 0.8550 0.8540 0.8540 0.8520 0.8520
1831.824924 0.8550 0.8580 0.8580 0.8600 0.8600
1839.400714 0.8580 0.8550 0.8550 0.8570 0.8580
1846.976503 0.8600 0.8600 0.8600 0.8570 0.8550
1854.552293 0.8550 0.8540 0.8520 0.8520 0.8520
1862.128083 0.8490 0.8480 0.8450 0.8430 0.8430
1869.703872 0.8430 0.8430 0.8450 0.8450 0.8460
1877.279662 0.8460 0.8450 0.8480 0.8490 0.8510
1884.855451 0.8510 0.8490 0.8490 0.8510 0.8540
1892.431241 0.8550 0.8550 0.8550 0.8540 0.8540
1900.007031 0.8550 0.8550 0.8570 0.8600 0.8600
1907.582820 0.8610 0.8610 0.8630 0.8610 0.8600
1915.158610 0.8580 0.8570 0.8570 0.8550 0.8550
1922.734399 0.8610 0.8610 0.8610 0.8600 0.8580
1930.310189 0.8570 0.8550 0.8550 0.8570 0.8570
1937.885979 0.8570 0.8550 0.8540 0.8540 0.8550
1945.461768 0.8550 0.8550 0.8540 0.8520 0.8520
1953.037558 0.8540 0.8570 0.8610 0.8630 0.8610
1960.613347 0.8580 0.8580 0.8570 0.8570 0.8570
1968.189137 0.8570 0.8570 0.8550 0.8550 0.8540
1975.764927 0.8540 0.8520 0.8520 0.8540 0.8540
1983.340716 0.8520 0.8510 0.8490 0.8490 0.8480
1990.916506 0.8480 0.8510 0.8510 0.8520 0.8540
1998.492295 0.8580 0.8580 0.8590 0.8600 0.8600
2006.068085 0.8600 0.8590 0.8581 0.8566 0.8551
2013.643875 0.8545 0.8541 0.8531 0.8521 0.8507
2021.219664 0.8492 0.8486 0.8481 0.8484 0.8489
2028.795454 0.8498 0.8508 0.8522 0.8537 0.8556
2036.371243 0.8576 0.8588 0.8598 0.8611 0.8626
2043.947033 0.8623 0.8613 0.8599 0.8585 0.8570
2051.522823 0.8555 0.8537 0.8517 0.8504 0.8494
2059.098612 0.8487 0.8482 0.8480 0.8480 0.8480
2066.674402 0.8480 0.8483 0.8488 0.8490 0.8490
2074.250192 0.8487 0.8482 0.8472 0.8457 0.8450
2081.825981 0.8450 0.8452 0.8457 0.8465 0.8475
2089.401771 0.8480 0.8480 0.8476 0.8466 0.8441
2096.977560 0.8396 0.8370 0.8370 0.8362 0.8342
2104.553350 0.8325 0.8310 0.8295 0.8280 0.8270
2112.129140 0.8270 0.8270 0.8270 0.8266 0.8251
2119.704929 0.8214 0.8113 0.8040 0.8040 0.8047
2127.280719 0.8077 0.8106 0.8130 0.8159 0.8204
2134.856508 0.8259 0.8363 0.8450 0.8450 0.8435
2142.432298 0.8331 0.8240 0.8240 0.8246 0.8305
2150.008088 0.8361 0.8376 0.8390 0.8390 0.8387
2157.583877 0.8337 0.8287 0.8228 0.8170 0.8155
2165.159667 0.8140 0.8145 0.8150 0.8189 0.8228
2172.735456 0.8235 0.8240 0.8161 0.8077 0.8070
2180.311246 0.8070 0.8088 0.8108 0.8123 0.8138
2187.887036 0.8192 0.8252 0.8273 0.8288 0.8294
2195.462825 0.8299 0.8296 0.8291 0.8254 0.8210
2203.038615 0.8188 0.8174 0.8174 0.8179 0.8202
2210.614404 0.8231 0.8279 0.8335 0.8364 0.8384
2218.190194 0.8400 0.8415 0.8413 0.8403 0.8390
2225.765984 0.8375 0.8367 0.8362 0.8351 0.8336
2233.341773 0.8321 0.8306 0.8297 0.8292 0.8282
2240.917563 0.8267 0.8231 0.8176 0.8142 0.8127
2248.493353 0.8143 0.8188 0.8222 0.8247 0.8267
2256.069142 0.8282 0.8292 0.8297 0.8306 0.8321
2263.644932 0.8344 0.8379 0.8400 0.8400 0.8375
2271.220721 0.8305 0.8260 0.8260 0.8260 0.8260
2278.796511 0.8270 0.8300 0.8320 0.8320 0.8320
2286.372301 0.8320 0.8320 0.8320 0.8318 0.8308
2293.948090 0.8296 0.8276 0.8260 0.8260 0.8260
2301.523880 0.8260 0.8263 0.8283 0.8306 0.8341
2309.099669 0.8374 0.8404 0.8432 0.8447 0.8460
2316.675459 0.8460 0.8460 0.8455 0.8450 0.8450
2324.251249 0.8450 0.8455 0.8460 0.8460 0.8460
2331.827038 0.8455 0.8450 0.8440 0.8430 0.8401
2339.402828 0.8371 0.8370 0.8370 0.8365 0.8360
2346.978617 0.8346 0.8331 0.8303 0.8274 0.8257
2354.554407 0.8242 0.8210 0.8176 0.8158 0.8143
2362.130197 0.8132 0.8122 0.8120 0.8120 0.8132
2369.705986 0.8147 0.8162 0.8176 0.8199 0.8224
2377.281776 0.8230 0.8230 0.8230 0.8230 0.8223
2384.857565 0.8213 0.8210 0.8210 0.8207 0.8202
2392.433355 0.8203 0.8208 0.8219 0.8234 0.8249
2400.009145 0.8264 0.8270 0.8270 0.8276 0.8286
2407.584934 0.8290 0.8290 0.8293 0.8298 0.8300
2415.160724 0.8300 0.8307 0.8322 0.8337 0.8352
2422.736513 0.8362 0.8367 0.8370 0.8370 0.8376
2430.312303 0.8391 0.8404 0.8414 0.8426 0.8441
2437.888093 0.8452 0.8457 0.8465 0.8480 0.8485
2445.463882 0.8470 0.8455 0.8441 0.8426 0.8411
2453.039672 0.8403 0.8413 0.8414 0.8389 0.8360
2460.615462 0.8320 0.8284 0.8260 0.8237 0.8222
2468.191251 0.8209 0.8204 0.8196 0.8171 0.8150
2475.767041 0.8150 0.8151 0.8161 0.8172 0.8186
2483.342830 0.8204 0.8248 0.8291 0.8306 0.8321
2490.918620 0.8336 0.8350 0.8355 0.8360 0.8360
2498.494410 0.8360 0.8360 0.8360 0.8360 0.8360
2506.070199 0.8360 0.8360 0.8360 0.8360 0.8365
2513.645989 0.8370 0.8370 0.8370 0.8361 0.8351
2521.221778 0.8341 0.8331 0.8317 0.8302 0.8283
2528.797568 0.8264 0.8260 0.8260 0.8248 0.8233
2536.373358 0.8234 0.8239 0.8247 0.8257 0.8264
2543.949147 0.8269 0.8277 0.8287 0.8290 0.8290
2551.524937 0.8293 0.8298 0.8300 0.8300 0.8290
2559.100726 0.8275 0.8261 0.8246 0.8222 0.8192
2566.676516 0.8177 0.8172 0.8142 0.8092 0.8037
2574.252306 0.7978 0.7876 0.7738 0.7624 0.7533
2581.828095 0.7480 0.7460 0.7428 0.7383 0.7343
2589.403885 0.7309 0.7270 0.7225 0.7200 0.7200
2596.979674 0.7208 0.7228 0.7263 0.7323 0.7376
2604.555464 0.7421 0.7466 0.7510 0.7568 0.7653
2612.131254 0.7723 0.7763 0.7806 0.7855 0.7887
2619.707043 0.7877 0.7869 0.7864 0.7848 0.7798
2627.282833 0.7740 0.7651 0.7490 0.7060 0.6687
2634.858623 0.6563 0.6427 0.6229 0.6039 0.5893
2642.434412 0.5770 0.5770 0.5787 0.5916 0.6026
2650.010202 0.5992 0.5957 0.5928 0.5900 0.5900
2657.585991 0.5903 0.5962 0.6025 0.6213 0.6401
2665.161781 0.6648 0.6896 0.7036 0.7175 0.7180
2672.737571 0.7180 0.7055 0.6927 0.6925 0.6930
2680.313360 0.6944 0.6959 0.6973 0.6988 0.7034
2687.889150 0.7083 0.7175 0.7274 0.7311 0.7336
2695.464939 0.7409 0.7493 0.7597 0.7706 0.7773
2703.040729 0.7828 0.7898 0.7973 0.8020 0.8060
2710.616519 0.8099 0.8139 0.8168 0.8193 0.8210
2718.192308 0.8225 0.8233 0.8238 0.8247 0.8256
2725.768098 0.8263 0.8268 0.8276 0.8286 0.8290
2733.343887 0.8290 0.8284 0.8274 0.8261 0.8247
2740.919677 0.8229 0.8209 0.8184 0.8154 0.8122
2748.495467 0.8087 0.8043 0.7989 0.7929 0.7865
2756.071256 0.7794 0.7715 0.7629 0.7535 0.7435
2763.647046 0.7324 0.7202 0.7063 0.6915 0.6752
2771.222835 0.6598 0.6459 0.6349 0.6290 0.6222
2778.798625 0.6138 0.5979 0.5658 0.5430 0.5430
2786.374415 0.5465 0.5593 0.5742 0.5949 0.6174
2793.950204 0.6455 0.6679 0.6719 0.6760 0.6804
2801.525994 0.6863 0.6982 0.7090 0.7150 0.7205
2809.101783 0.7240 0.7267 0.7248 0.7188 0.6802
2816.677573 0.6391 0.5703 0.5015 0.4322 0.3588
2824.253363 0.1940 0.0376 0.0297 0.0217 0.0133
2831.829152 0.0050 0.0035 0.0020 0.0020 0.0020
2839.404942 0.0020 0.0020 0.0020 0.0020 0.0020
2846.980732 0.0020 0.0020 0.0020 0.0029 0.0039
2854.556521 0.0053 0.0068 0.0122 0.0181 0.0287
2862.132311 0.0400 0.0535 0.0673 0.0883 0.1111
2869.708100 0.1536 0.2016 0.2130 0.2130 0.1969
2877.283890 0.1751 0.1491 0.1214 0.0988 0.0786
2884.859680 0.0574 0.0358 0.0209 0.0090 0.0047
2892.435469 0.0042 0.0040 0.0040 0.0034 0.0024
2900.011259 0.0020 0.0020 0.0020 0.0020 0.0020
2907.587048 0.0020 0.0020 0.0020 0.0020 0.0020
2915.162838 0.0020 0.0020 0.0020 0.0020 0.0020
2922.738628 0.0020 0.0020 0.0020 0.0020 0.0020
2930.314417 0.0020 0.0020 0.0020 0.0020 0.0024
2937.890207 0.0034 0.0042 0.0047 0.0055 0.0070
2945.465996 0.0240 0.0758 0.1455 0.2533 0.3793
2953.041786 0.5480 0.6790 0.7117 0.7380 0.7459
2960.617576 0.7542 0.7636 0.7712 0.7722 0.7739
2968.193365 0.7789 0.7838 0.7888 0.7934 0.7958
2975.769155 0.7982 0.7997 0.8010 0.8010 0.8011
2983.344944 0.8016 0.8021 0.8031 0.8040 0.8045
2990.920734 0.8051 0.8066 0.8080 0.8090 0.8100
2998.496524 0.8100 0.8100 0.8090 0.8080 0.8080
3006.072313 0.8080 0.8075 0.8070 0.8070 0.8070
3013.648103 0.8093 0.8118 0.8143 0.8167 0.8201
3021.223892 0.8235 0.8253 0.8268 0.8278 0.8288
3028.799682 0.8306 0.8326 0.8330 0.8330 0.8330
3036.375472 0.8330 0.8326 0.8321 0.8320 0.8320
3043.951261 0.8320 0.8320 0.8313 0.8303 0.8297
3051.527051 0.8292 0.8290 0.8290 0.8283 0.8274
3059.102841 0.8267 0.8262 0.8260 0.8260 0.8254
3066.678630 0.8244 0.8231 0.8216 0.8193 0.8163
3074.254420 0.8122 0.8073 0.8050 0.8050 0.8055
3081.830209 0.8065 0.8070 0.8070 0.8089 0.8129
3089.405999 0.8170 0.8215 0.8246 0.8261 0.8270
3096.981789 0.8270 0.8268 0.8263 0.8256 0.8246
3104.557578 0.8238 0.8233 0.8226 0.8217 0.8203
3112.133368 0.8184 0.8165 0.8150 0.8131 0.8102
3119.709157 0.8071 0.8036 0.7996 0.7942 0.7882
3127.284947 0.7803 0.7727 0.7667 0.7619 0.7614
3134.860737 0.7610 0.7610 0.7611 0.7616 0.7620
3142.436526 0.7620 0.7622 0.7637 0.7651 0.7661
3150.012316 0.7674 0.7724 0.7777 0.7886 0.7992
3157.588105 0.8037 0.8081 0.8111 0.8141 0.8171
3165.163895 0.8200 0.8220 0.8240 0.8269 0.8299
3172.739685 0.8329 0.8359 0.8365 0.8370 0.8370
3180.315474 0.8370 0.8370 0.8370 0.8370 0.8370
3187.891264 0.8379 0.8388 0.8403 0.8418 0.8424
3195.467053 0.8429 0.8426 0.8421 0.8420 0.8420
3203.042843 0.8412 0.8402 0.8400 0.8400 0.8396
3210.618633 0.8391 0.8379 0.8364 0.8357 0.8352
3218.194422 0.8350 0.8350 0.8350 0.8350 0.8350
3225.770212 0.8350 0.8350 0.8350 0.8350 0.8350
3233.346002 0.8356 0.8366 0.8370 0.8370 0.8370
3240.921791 0.8370 0.8367 0.8362 0.8352 0.8337
3248.497581 0.8335 0.8345 0.8345 0.8335 0.8320
3256.073370 0.8301 0.8276 0.8247 0.8223 0.8209
3263.649160 0.8196 0.8186 0.8178 0.8173 0.8170
3271.224950 0.8170 0.8181 0.8210 0.8230 0.8230
3278.800739 0.8227 0.8217 0.8210 0.8210 0.8210
3286.376529 0.8210 0.8209 0.8204 0.8200 0.8200
3293.952318 0.8200 0.8200 0.8197 0.8182 0.8167
3301.528108 0.8152 0.8140 0.8140 0.8141 0.8146
3309.103898 0.8152 0.8167 0.8181 0.8191 0.8201
3316.679687 0.8206 0.8211 0.8221 0.8230 0.8235
3324.255477 0.8240 0.8240 0.8240 0.8240 0.8240
3331.831266 0.8240 0.8240 0.8240 0.8240 0.8235
3339.407056 0.8230 0.8230 0.8230 0.8230 0.8230
3346.982846 0.8221 0.8211 0.8205 0.8201 0.8204
3354.558635 0.8209 0.8223 0.8238 0.8253 0.8267
3362.134425 0.8278 0.8288 0.8290 0.8290 0.8282
3369.710214 0.8272 0.8281 0.8296 0.8311 0.8326
3377.286004 0.8337 0.8347 0.8350 0.8350 0.8339
3384.861794 0.8325 0.8320 0.8320 0.8320 0.8320
3392.437583 0.8323 0.8328 0.8336 0.8346 0.8341
3400.013373 0.8326 0.8306 0.8281 0.8262 0.8247
3407.589162 0.8237 0.8232 0.8230 0.8230 0.8225
3415.164952 0.8215 0.8195 0.8165 0.8138 0.8113
3422.740742 0.8093 0.8078 0.8063 0.8049 0.8030
3430.316531 0.8005 0.7984 0.7969 0.7958 0.7953
3437.892321 0.7950 0.7950 0.7952 0.7957 0.7968
3445.468111 0.7993 0.8016 0.8036 0.8057 0.8082
3453.043900 0.8105 0.8125 0.8151 0.8196 0.8233
3460.619690 0.8248 0.8261 0.8266 0.8270 0.8270
3468.195479 0.8272 0.8282 0.8291 0.8296 0.8302
3475.771269 0.8311 0.8321 0.8326 0.8333 0.8363
3483.347059 0.8391 0.8406 0.8420 0.8420 0.8419
3490.922848 0.8410 0.8400 0.8400 0.8400 0.8400
3498.498638 0.8400 0.8385 0.8370 0.8360 0.8350
3506.074427 0.8350 0.8350 0.8350 0.8350 0.8355
3513.650217 0.8360 0.8378 0.8398 0.8409 0.8419
3521.226007 0.8420 0.8420 0.8407 0.8393 0.8390
3528.801796 0.8390 0.8390 0.8390 0.8390 0.8390
3536.377586 0.8382 0.8372 0.8366 0.8361 0.8349
3543.953375 0.8334 0.8330 0.8330 0.8340 0.8355
3551.529165 0.8374 0.8393 0.8407 0.8416 0.8420
3559.104955 0.8420 0.8404 0.8379 0.8364 0.8354
3566.680744 0.8350 0.8350 0.8353 0.8358 0.8363
3574.256534 0.8368 0.8375 0.8385 0.8393 0.8398
3581.832323 0.8405 0.8415 0.8422 0.8427 0.8430
3589.408113 0.8430 0.8435 0.8445 0.8452 0.8457
3596.983903 0.8464 0.8474 0.8482 0.8487 0.8490
3604.559692 0.8490 0.8490 0.8490 0.8488 0.8483
3612.135482 0.8480 0.8480 0.8477 0.8467 0.8459
3619.711272 0.8454 0.8446 0.8431 0.8411 0.8376
3627.287061 0.8348 0.8338 0.8332 0.8342 0.8350
3634.862851 0.8350 0.8351 0.8356 0.8360 0.8360
3642.438640 0.8360 0.8360 0.8360 0.8360 0.8360
3650.014430 0.8360 0.8360 0.8360 0.8360 0.8360
3657.590220 0.8360 0.8365 0.8371 0.8385 0.8400
3665.166009 0.8410 0.8420 0.8425 0.8430 0.8430
3672.741799 0.8430 0.8425 0.8420 0.8406 0.8391
3680.317588 0.8376 0.8361 0.8355 0.8351 0.8350
3687.893378 0.8350 0.8354 0.8359 0.8377 0.8397
3695.469168 0.8396 0.8391 0.8382 0.8372 0.8366
3703.044957 0.8361 0.8345 0.8325 0.8313 0.8303
3710.620747 0.8296 0.8291 0.8290 0.8290 0.8294
3718.196536 0.8298 0.8310 0.8325 0.8340 0.8355
3725.772326 0.8370 0.8384 0.8402 0.8422 0.8436
3733.348116 0.8446 0.8450 0.8450 0.8450 0.8450
3740.923905 0.8442 0.8427 0.8404 0.8374 0.8357
3748.499695 0.8352 0.8345 0.8335 0.8328 0.8323
3756.075484 0.8320 0.8320 0.8316 0.8306 0.8298
3763.651274 0.8293 0.8286 0.8276 0.8268 0.8263
3771.227064 0.8260 0.8260 0.8260 0.8260 0.8265
3778.802853 0.8280 0.8292 0.8297 0.8308 0.8332
3786.378643 0.8351 0.8356 0.8364 0.8379 0.8390
3793.954432 0.8390 0.8390 0.8390 0.8384 0.8354
3801.530222 0.8330 0.8330 0.8332 0.8342 0.8351
3809.106012 0.8356 0.8361 0.8366 0.8370 0.8370
3816.681801 0.8370 0.8370 0.8372 0.8397 0.8420
3824.257591 0.8425 0.8430 0.8430 0.8430 0.8415
3831.833381 0.8400 0.8400 0.8400 0.8410 0.8420
3839.409170 0.8425 0.8430 0.8439 0.8449 0.8464
3846.984960 0.8479 0.8480 0.8480 0.8471 0.8461
3854.560749 0.8456 0.8451 0.8442 0.8432 0.8426
3862.136539 0.8421 0.8408 0.8393 0.8382 0.8372
3869.712329 0.8362 0.8352 0.8342 0.8332 0.8326
3877.288118 0.8321 0.8320 0.8320 0.8313 0.8303
3884.863908 0.8300 0.8300 0.8300 0.8300 0.8297
3892.439697 0.8292 0.8290 0.8290 0.8290 0.8290
3900.015487 0.8290 0.8290 0.8284 0.8274 0.8270
3907.591277 0.8270 0.8270 0.8270 0.8270 0.8270
3915.167066 0.8270 0.8270 0.8268 0.8263 0.8260
3922.742856 0.8260 0.8256 0.8246 0.8238 0.8233
3930.318645 0.8226 0.8216 0.8208 0.8203 0.8196
3937.894435 0.8186 0.8173 0.8153 0.8135 0.8120
3945.470225 0.8108 0.8103 0.8093 0.8068 0.8038
3953.046014 0.7993 0.7952 0.7922 0.7896 0.7881
3960.621804 0.7869 0.7864 0.7861 0.7866 0.7872
3968.197593 0.7882 0.7893 0.7908 0.7923 0.7943
3975.773383 0.7964 0.7994 0.8026 0.8075 0.8125
3983.349173 0.8180 0.8232 0.8262 0.8290 0.8290
3990.924962 0.8290 0.8295 0.8300 0.8300 0.8300
3998.500752 0.8300 0.8300
##END=
