##TITLE=1-PENTANETHIOL
##JCAMP-DX=4.24
$$ By DXEDIT 1.05 (RS McDonald)
##DATA TYPE=INFRARED SPECTRUM
##CLASS=COBLENTZ III
##ORIGIN=WYANDOTTE CHEMICALS CORP.
##OWNER=COBLENTZ SOC.
Collection (C) 2018 copyright by the U.S. Secretary of Commerce
on behalf of the United States of America. All rights reserved.
##DATE=1956/10/09
##NAMES=pentyl hydrosulfide
##CAS REGISTRY NO=110-66-7
##MOLFORM=C5 H12 S
##BP=124 C
##SOURCE REFERENCE=COBLENTZ NO. 06000
##$NIST SOURCE=COBLENTZ
##$NIST IMAGE=cob6000
##SPECTROMETER/DATA SYSTEM=BAIRD (GRATING)
##INSTRUMENT PARAMETERS=NaCl PRISM
##STATE=LIQUID
##PATH LENGTH=0.005 CM
##SAMPLING PROCEDURE=TRANSMISSION
##RESOLUTION=2
##DATA PROCESSING=DIGITIZED BY COBLENTZ SOCIETY (BATCH I) FROM HARD COPY
##XUNITS=1/CM
##YUNITS=TRANSMITTANCE
##XLABEL=Wavenumbers (cm-1)
##YLABEL=Transmittance
##XFACTOR=1
##YFACTOR=1
##DELTAX=1
##FIRSTX=4000
##LASTX=626
##FIRSTY=0.9128
##MAXX=4000
##MINX=626
##MAXY=0.9125
##MINY=0.0245
##NPOINTS=3375
##XYDATA=(X++(Y..Y))
4000.000000 0.9128 0.9127 0.9125 0.9124 0.9123
3995.000000 0.9121 0.9120 0.9118 0.9117 0.9116
3990.000000 0.9115 0.9114 0.9112 0.9111 0.9110
3985.000000 0.9108 0.9107 0.9105 0.9104 0.9103
3980.000000 0.9102 0.9101 0.9100 0.9099 0.9099
3975.000000 0.9098 0.9097 0.9097 0.9096 0.9095
3970.000000 0.9095 0.9094 0.9093 0.9093 0.9092
3965.000000 0.9091 0.9091 0.9090 0.9090 0.9089
3960.000000 0.9088 0.9088 0.9087 0.9086 0.9086
3955.000000 0.9085 0.9084 0.9084 0.9083 0.9082
3950.000000 0.9082 0.9081 0.9081 0.9080 0.9078
3945.000000 0.9078 0.9078 0.9077 0.9077 0.9075
3940.000000 0.9075 0.9075 0.9074 0.9073 0.9073
3935.000000 0.9073 0.9071 0.9071 0.9071 0.9071
3930.000000 0.9070 0.9070 0.9070 0.9070 0.9070
3925.000000 0.9070 0.9068 0.9068 0.9068 0.9068
3920.000000 0.9068 0.9068 0.9068 0.9068 0.9068
3915.000000 0.9068 0.9068 0.9068 0.9067 0.9067
3910.000000 0.9067 0.9067 0.9067 0.9067 0.9067
3905.000000 0.9067 0.9067 0.9067 0.9067 0.9067
3900.000000 0.9068 0.9068 0.9070 0.9071 0.9071
3895.000000 0.9073 0.9075 0.9075 0.9077 0.9078
3890.000000 0.9078 0.9080 0.9082 0.9083 0.9084
3885.000000 0.9085 0.9086 0.9087 0.9088 0.9089
3880.000000 0.9090 0.9091 0.9092 0.9093 0.9094
3875.000000 0.9095 0.9096 0.9097 0.9098 0.9099
3870.000000 0.9099 0.9100 0.9101 0.9101 0.9102
3865.000000 0.9103 0.9103 0.9104 0.9105 0.9106
3860.000000 0.9107 0.9108 0.9109 0.9109 0.9110
3855.000000 0.9111 0.9111 0.9112 0.9113 0.9113
3850.000000 0.9114 0.9115 0.9116 0.9117 0.9118
3845.000000 0.9118 0.9118 0.9120 0.9120 0.9121
3840.000000 0.9121 0.9121 0.9121 0.9121 0.9121
3835.000000 0.9121 0.9123 0.9123 0.9123 0.9123
3830.000000 0.9123 0.9123 0.9124 0.9124 0.9124
3825.000000 0.9124 0.9124 0.9124 0.9124 0.9124
3820.000000 0.9124 0.9124 0.9124 0.9124 0.9124
3815.000000 0.9124 0.9124 0.9124 0.9124 0.9124
3810.000000 0.9125 0.9125 0.9125 0.9125 0.9125
3805.000000 0.9124 0.9124 0.9124 0.9123 0.9123
3800.000000 0.9123 0.9121 0.9121 0.9121 0.9121
3795.000000 0.9121 0.9121 0.9120 0.9120 0.9118
3790.000000 0.9118 0.9118 0.9118 0.9117 0.9117
3785.000000 0.9116 0.9115 0.9115 0.9114 0.9114
3780.000000 0.9113 0.9113 0.9112 0.9112 0.9111
3775.000000 0.9111 0.9111 0.9110 0.9110 0.9110
3770.000000 0.9109 0.9109 0.9108 0.9108 0.9107
3765.000000 0.9106 0.9106 0.9105 0.9105 0.9104
3760.000000 0.9104 0.9103 0.9103 0.9103 0.9102
3755.000000 0.9102 0.9102 0.9101 0.9101 0.9100
3750.000000 0.9099 0.9099 0.9098 0.9098 0.9098
3745.000000 0.9097 0.9097 0.9097 0.9096 0.9096
3740.000000 0.9095 0.9095 0.9094 0.9094 0.9093
3735.000000 0.9093 0.9092 0.9092 0.9092 0.9091
3730.000000 0.9091 0.9091 0.9090 0.9090 0.9090
3725.000000 0.9089 0.9089 0.9088 0.9087 0.9087
3720.000000 0.9086 0.9086 0.9086 0.9085 0.9085
3715.000000 0.9085 0.9084 0.9084 0.9084 0.9083
3710.000000 0.9083 0.9082 0.9082 0.9082 0.9081
3705.000000 0.9081 0.9081 0.9080 0.9080 0.9078
3700.000000 0.9078 0.9078 0.9077 0.9077 0.9077
3695.000000 0.9075 0.9075 0.9075 0.9075 0.9075
3690.000000 0.9074 0.9074 0.9074 0.9073 0.9073
3685.000000 0.9071 0.9071 0.9071 0.9071 0.9071
3680.000000 0.9071 0.9071 0.9071 0.9071 0.9071
3675.000000 0.9071 0.9071 0.9071 0.9071 0.9070
3670.000000 0.9070 0.9070 0.9070 0.9070 0.9070
3665.000000 0.9070 0.9070 0.9070 0.9070 0.9070
3660.000000 0.9070 0.9070 0.9070 0.9070 0.9070
3655.000000 0.9070 0.9070 0.9070 0.9070 0.9070
3650.000000 0.9070 0.9070 0.9070 0.9070 0.9070
3645.000000 0.9070 0.9070 0.9070 0.9070 0.9070
3640.000000 0.9070 0.9070 0.9070 0.9071 0.9071
3635.000000 0.9071 0.9071 0.9073 0.9073 0.9074
3630.000000 0.9075 0.9075 0.9075 0.9075 0.9075
3625.000000 0.9077 0.9077 0.9078 0.9078 0.9078
3620.000000 0.9078 0.9080 0.9080 0.9081 0.9082
3615.000000 0.9082 0.9083 0.9083 0.9084 0.9084
3610.000000 0.9085 0.9086 0.9086 0.9087 0.9087
3605.000000 0.9087 0.9088 0.9088 0.9089 0.9089
3600.000000 0.9090 0.9090 0.9091 0.9092 0.9092
3595.000000 0.9093 0.9093 0.9094 0.9094 0.9095
3590.000000 0.9096 0.9097 0.9098 0.9098 0.9099
3585.000000 0.9100 0.9100 0.9101 0.9101 0.9102
3580.000000 0.9102 0.9103 0.9104 0.9104 0.9105
3575.000000 0.9106 0.9106 0.9107 0.9108 0.9109
3570.000000 0.9109 0.9110 0.9111 0.9111 0.9112
3565.000000 0.9113 0.9113 0.9114 0.9115 0.9116
3560.000000 0.9116 0.9117 0.9117 0.9118 0.9118
3555.000000 0.9118 0.9120 0.9120 0.9121 0.9121
3550.000000 0.9121 0.9121 0.9123 0.9123 0.9124
3545.000000 0.9124 0.9124 0.9124 0.9124 0.9124
3540.000000 0.9124 0.9124 0.9124 0.9124 0.9124
3535.000000 0.9124 0.9124 0.9124 0.9124 0.9124
3530.000000 0.9124 0.9124 0.9124 0.9124 0.9123
3525.000000 0.9123 0.9123 0.9123 0.9123 0.9121
3520.000000 0.9121 0.9121 0.9121 0.9120 0.9118
3515.000000 0.9118 0.9118 0.9118 0.9118 0.9117
3510.000000 0.9117 0.9117 0.9116 0.9116 0.9115
3505.000000 0.9115 0.9114 0.9113 0.9113 0.9112
3500.000000 0.9112 0.9112 0.9111 0.9111 0.9110
3495.000000 0.9110 0.9109 0.9108 0.9108 0.9107
3490.000000 0.9106 0.9105 0.9105 0.9104 0.9103
3485.000000 0.9102 0.9101 0.9100 0.9100 0.9099
3480.000000 0.9098 0.9097 0.9095 0.9094 0.9093
3475.000000 0.9092 0.9091 0.9090 0.9089 0.9088
3470.000000 0.9088 0.9087 0.9086 0.9085 0.9084
3465.000000 0.9083 0.9082 0.9081 0.9080 0.9078
3460.000000 0.9078 0.9077 0.9077 0.9075 0.9075
3455.000000 0.9074 0.9073 0.9071 0.9070 0.9068
3450.000000 0.9068 0.9067 0.9066 0.9065 0.9063
3445.000000 0.9062 0.9060 0.9059 0.9057 0.9055
3440.000000 0.9054 0.9052 0.9050 0.9049 0.9047
3435.000000 0.9046 0.9044 0.9043 0.9041 0.9039
3430.000000 0.9038 0.9036 0.9034 0.9033 0.9032
3425.000000 0.9030 0.9028 0.9027 0.9025 0.9024
3420.000000 0.9023 0.9021 0.9020 0.9018 0.9017
3415.000000 0.9015 0.9014 0.9013 0.9011 0.9010
3410.000000 0.9009 0.9007 0.9006 0.9004 0.9003
3405.000000 0.9001 0.9000 0.8999 0.8997 0.8996
3400.000000 0.8994 0.8993 0.8991 0.8990 0.8989
3395.000000 0.8988 0.8987 0.8985 0.8984 0.8983
3390.000000 0.8982 0.8981 0.8980 0.8978 0.8978
3385.000000 0.8977 0.8975 0.8975 0.8973 0.8971
3380.000000 0.8971 0.8970 0.8968 0.8968 0.8967
3375.000000 0.8966 0.8965 0.8964 0.8963 0.8962
3370.000000 0.8961 0.8960 0.8959 0.8958 0.8958
3365.000000 0.8957 0.8956 0.8955 0.8955 0.8954
3360.000000 0.8953 0.8952 0.8952 0.8951 0.8950
3355.000000 0.8949 0.8948 0.8948 0.8947 0.8947
3350.000000 0.8947 0.8947 0.8947 0.8947 0.8947
3345.000000 0.8947 0.8947 0.8947 0.8947 0.8947
3340.000000 0.8947 0.8947 0.8947 0.8946 0.8946
3335.000000 0.8946 0.8946 0.8946 0.8946 0.8946
3330.000000 0.8946 0.8946 0.8945 0.8945 0.8945
3325.000000 0.8945 0.8944 0.8944 0.8944 0.8944
3320.000000 0.8943 0.8943 0.8943 0.8943 0.8943
3315.000000 0.8942 0.8942 0.8941 0.8941 0.8940
3310.000000 0.8939 0.8938 0.8938 0.8937 0.8936
3305.000000 0.8935 0.8935 0.8934 0.8933 0.8932
3300.000000 0.8931 0.8928 0.8928 0.8925 0.8923
3295.000000 0.8920 0.8917 0.8914 0.8911 0.8909
3290.000000 0.8906 0.8902 0.8898 0.8894 0.8889
3285.000000 0.8884 0.8875 0.8868 0.8860 0.8852
3280.000000 0.8843 0.8835 0.8827 0.8818 0.8809
3275.000000 0.8798 0.8788 0.8777 0.8767 0.8756
3270.000000 0.8746 0.8735 0.8725 0.8714 0.8703
3265.000000 0.8692 0.8682 0.8671 0.8661 0.8651
3260.000000 0.8641 0.8631 0.8621 0.8611 0.8601
3255.000000 0.8590 0.8580 0.8570 0.8560 0.8550
3250.000000 0.8536 0.8521 0.8508 0.8494 0.8478
3245.000000 0.8461 0.8443 0.8425 0.8409 0.8392
3240.000000 0.8375 0.8358 0.8342 0.8328 0.8315
3235.000000 0.8302 0.8288 0.8275 0.8262 0.8249
3230.000000 0.8236 0.8223 0.8210 0.8197 0.8184
3225.000000 0.8171 0.8158 0.8146 0.8134 0.8121
3220.000000 0.8108 0.8096 0.8084 0.8074 0.8067
3215.000000 0.8061 0.8054 0.8048 0.8044 0.8040
3210.000000 0.8036 0.8032 0.8028 0.8024 0.8019
3205.000000 0.8015 0.8012 0.8011 0.8008 0.8005
3200.000000 0.8004 0.8003 0.8001 0.8000 0.7998
3195.000000 0.7997 0.7995 0.7994 0.7992 0.7991
3190.000000 0.7989 0.7988 0.7986 0.7985 0.7983
3185.000000 0.7982 0.7981 0.7980 0.7978 0.7978
3180.000000 0.7976 0.7975 0.7974 0.7972 0.7971
3175.000000 0.7969 0.7968 0.7968 0.7967 0.7965
3170.000000 0.7964 0.7962 0.7961 0.7960 0.7958
3165.000000 0.7956 0.7955 0.7953 0.7951 0.7950
3160.000000 0.7949 0.7947 0.7945 0.7943 0.7942
3155.000000 0.7940 0.7939 0.7937 0.7935 0.7934
3150.000000 0.7932 0.7930 0.7928 0.7925 0.7922
3145.000000 0.7919 0.7917 0.7914 0.7910 0.7907
3140.000000 0.7903 0.7899 0.7896 0.7892 0.7889
3135.000000 0.7885 0.7881 0.7876 0.7871 0.7865
3130.000000 0.7858 0.7853 0.7845 0.7837 0.7828
3125.000000 0.7821 0.7812 0.7805 0.7797 0.7789
3120.000000 0.7781 0.7772 0.7765 0.7757 0.7749
3115.000000 0.7741 0.7733 0.7722 0.7708 0.7696
3110.000000 0.7682 0.7665 0.7646 0.7625 0.7606
3105.000000 0.7586 0.7565 0.7546 0.7525 0.7504
3100.000000 0.7483 0.7461 0.7439 0.7417 0.7395
3095.000000 0.7371 0.7350 0.7328 0.7306 0.7284
3090.000000 0.7234 0.7094 0.6954 0.6814 0.6718
3085.000000 0.6687 0.6656 0.6624 0.6596 0.6571
3080.000000 0.6545 0.6519 0.6493 0.6465 0.6439
3075.000000 0.6410 0.6334 0.6258 0.6181 0.6120
3070.000000 0.6103 0.6086 0.6069 0.6028 0.5960
3065.000000 0.5892 0.5824 0.5753 0.5682 0.5610
3060.000000 0.5538 0.5467 0.5395 0.5323 0.5252
3055.000000 0.5180 0.5107 0.5035 0.4962 0.4891
3050.000000 0.4819 0.4746 0.4674 0.4602 0.4529
3045.000000 0.4457 0.4384 0.4312 0.4240 0.4167
3040.000000 0.4094 0.4022 0.3949 0.3876 0.3803
3035.000000 0.3730 0.3657 0.3584 0.3510 0.3438
3030.000000 0.3364 0.3292 0.3218 0.3145 0.3072
3025.000000 0.2998 0.2925 0.2851 0.2778 0.2704
3020.000000 0.2630 0.2557 0.2483 0.2410 0.2335
3015.000000 0.2262 0.2188 0.2114 0.2040 0.1966
3010.000000 0.1891 0.1817 0.1743 0.1669 0.1594
3005.000000 0.1520 0.1445 0.1371 0.1296 0.1223
3000.000000 0.1148 0.1073 0.0997 0.0922 0.0847
2995.000000 0.0774 0.0699 0.0624 0.0549 0.0473
2990.000000 0.0413 0.0368 0.0325 0.0282 0.0273
2985.000000 0.0271 0.0267 0.0266 0.0264 0.0262
2980.000000 0.0260 0.0259 0.0258 0.0257 0.0256
2975.000000 0.0255 0.0255 0.0254 0.0253 0.0252
2970.000000 0.0251 0.0250 0.0250 0.0249 0.0249
2965.000000 0.0248 0.0248 0.0248 0.0248 0.0248
2960.000000 0.0248 0.0248 0.0247 0.0247 0.0247
2955.000000 0.0246 0.0246 0.0246 0.0246 0.0245
2950.000000 0.0245 0.0245 0.0245 0.0245 0.0245
2945.000000 0.0245 0.0245 0.0245 0.0245 0.0246
2940.000000 0.0246 0.0246 0.0246 0.0246 0.0246
2935.000000 0.0246 0.0247 0.0247 0.0247 0.0247
2930.000000 0.0247 0.0247 0.0247 0.0248 0.0248
2925.000000 0.0248 0.0248 0.0248 0.0248 0.0248
2920.000000 0.0249 0.0249 0.0249 0.0250 0.0250
2915.000000 0.0250 0.0250 0.0250 0.0250 0.0250
2910.000000 0.0251 0.0251 0.0251 0.0251 0.0252
2905.000000 0.0252 0.0252 0.0253 0.0253 0.0253
2900.000000 0.0254 0.0254 0.0254 0.0254 0.0255
2895.000000 0.0255 0.0255 0.0256 0.0257 0.0258
2890.000000 0.0259 0.0260 0.0260 0.0261 0.0262
2885.000000 0.0263 0.0264 0.0265 0.0266 0.0266
2880.000000 0.0267 0.0270 0.0271 0.0273 0.0277
2875.000000 0.0282 0.0287 0.0291 0.0296 0.0301
2870.000000 0.0306 0.0310 0.0315 0.0318 0.0331
2865.000000 0.0344 0.0356 0.0367 0.0381 0.0394
2860.000000 0.0408 0.0423 0.0439 0.0456 0.0484
2855.000000 0.0511 0.0538 0.0567 0.0596 0.0626
2850.000000 0.0673 0.0732 0.0791 0.0849 0.0907
2845.000000 0.0965 0.1046 0.1271 0.1496 0.1722
2840.000000 0.2034 0.2354 0.2674 0.2995 0.3316
2835.000000 0.3637 0.3958 0.4279 0.4601 0.4854
2830.000000 0.4909 0.4964 0.5022 0.5114 0.5207
2825.000000 0.5299 0.5348 0.5389 0.5431 0.5479
2820.000000 0.5530 0.5581 0.5641 0.5710 0.5779
2815.000000 0.5842 0.5891 0.5941 0.5986 0.6012
2810.000000 0.6039 0.6065 0.6092 0.6118 0.6145
2805.000000 0.6176 0.6207 0.6238 0.6271 0.6306
2800.000000 0.6340 0.6376 0.6414 0.6451 0.6489
2795.000000 0.6526 0.6564 0.6601 0.6635 0.6668
2790.000000 0.6701 0.6724 0.6747 0.6769 0.6800
2785.000000 0.6828 0.6858 0.6865 0.6872 0.6880
2780.000000 0.6883 0.6887 0.6890 0.6892 0.6893
2775.000000 0.6894 0.6895 0.6897 0.6898 0.6899
2770.000000 0.6900 0.6900 0.6900 0.6900 0.6900
2765.000000 0.6896 0.6887 0.6878 0.6867 0.6849
2760.000000 0.6831 0.6812 0.6795 0.6775 0.6758
2755.000000 0.6740 0.6721 0.6705 0.6689 0.6674
2750.000000 0.6661 0.6660 0.6658 0.6656 0.6656
2745.000000 0.6656 0.6656 0.6668 0.6680 0.6694
2740.000000 0.6714 0.6733 0.6753 0.6772 0.6792
2735.000000 0.6811 0.6831 0.6851 0.6869 0.6890
2730.000000 0.6910 0.6930 0.6949 0.6968 0.6989
2725.000000 0.7008 0.7028 0.7049 0.7068 0.7088
2720.000000 0.7107 0.7126 0.7147 0.7167 0.7187
2715.000000 0.7264 0.7226 0.7247 0.7267 0.7278
2710.000000 0.7283 0.7287 0.7285 0.7278 0.7271
2705.000000 0.7258 0.7240 0.7221 0.7204 0.7185
2700.000000 0.7165 0.7148 0.7128 0.7111 0.7093
2695.000000 0.7074 0.7056 0.7038 0.7018 0.7001
2690.000000 0.6990 0.6978 0.6969 0.6971 0.6972
2685.000000 0.6976 0.6984 0.6991 0.7001 0.7015
2680.000000 0.7028 0.7042 0.7055 0.7067 0.7078
2675.000000 0.7090 0.7101 0.7108 0.7114 0.7119
2670.000000 0.7125 0.7131 0.7136 0.7139 0.7143
2665.000000 0.7146 0.7148 0.7149 0.7149 0.7149
2660.000000 0.7147 0.7146 0.7145 0.7144 0.7142
2655.000000 0.7141 0.7140 0.7139 0.7137 0.7136
2650.000000 0.7135 0.7135 0.7134 0.7139 0.7143
2645.000000 0.7148 0.7151 0.7156 0.7162 0.7169
2640.000000 0.7176 0.7187 0.7197 0.7207 0.7214
2635.000000 0.7221 0.7226 0.7233 0.7238 0.7242
2630.000000 0.7245 0.7248 0.7251 0.7254 0.7258
2625.000000 0.7261 0.7262 0.7265 0.7265 0.7264
2620.000000 0.7262 0.7261 0.7261 0.7257 0.7251
2615.000000 0.7245 0.7224 0.7203 0.7175 0.7140
2610.000000 0.7103 0.7067 0.7030 0.6994 0.6957
2605.000000 0.6919 0.6883 0.6847 0.6810 0.6774
2600.000000 0.6737 0.6700 0.6662 0.6625 0.6589
2595.000000 0.6551 0.6515 0.6478 0.6441 0.6404
2590.000000 0.6367 0.6330 0.6293 0.6255 0.6218
2585.000000 0.6181 0.6143 0.6106 0.6069 0.6031
2580.000000 0.5994 0.5957 0.5919 0.5888 0.5870
2575.000000 0.5852 0.5844 0.5830 0.5838 0.5837
2570.000000 0.5836 0.5835 0.5834 0.5833 0.5855
2565.000000 0.5885 0.5915 0.5953 0.5992 0.6029
2560.000000 0.6067 0.6105 0.6143 0.6181 0.6220
2555.000000 0.6258 0.6296 0.6335 0.6373 0.6411
2550.000000 0.6450 0.6488 0.6526 0.6565 0.6603
2545.000000 0.6641 0.6680 0.6718 0.6757 0.6796
2540.000000 0.6835 0.6872 0.6911 0.6951 0.6990
2535.000000 0.7026 0.7061 0.7096 0.7125 0.7155
2530.000000 0.7184 0.7214 0.7244 0.7274 0.7305
2525.000000 0.7337 0.7368 0.7401 0.7433 0.7465
2520.000000 0.7497 0.7521 0.7547 0.7568 0.7590
2515.000000 0.7610 0.7631 0.7651 0.7671 0.7692
2510.000000 0.7712 0.7739 0.7765 0.7791 0.7817
2505.000000 0.7843 0.7855 0.7868 0.7881 0.7893
2500.000000 0.7905 0.7917 0.7928 0.7942 0.7954
2495.000000 0.7965 0.7976 0.7988 0.8000 0.8011
2490.000000 0.8022 0.8034 0.8046 0.8057 0.8068
2485.000000 0.8078 0.8086 0.8093 0.8100 0.8106
2480.000000 0.8112 0.8118 0.8125 0.8132 0.8139
2475.000000 0.8146 0.8153 0.8158 0.8165 0.8171
2470.000000 0.8178 0.8182 0.8186 0.8190 0.8194
2465.000000 0.8198 0.8203 0.8207 0.8211 0.8216
2460.000000 0.8220 0.8224 0.8228 0.8233 0.8237
2455.000000 0.8241 0.8245 0.8249 0.8253 0.8257
2450.000000 0.8259 0.8261 0.8262 0.8263 0.8264
2445.000000 0.8265 0.8266 0.8267 0.8268 0.8270
2440.000000 0.8271 0.8273 0.8274 0.8275 0.8275
2435.000000 0.8275 0.8274 0.8274 0.8274 0.8274
2430.000000 0.8274 0.8273 0.8273 0.8271 0.8271
2425.000000 0.8271 0.8271 0.8271 0.8271 0.8271
2420.000000 0.8270 0.8270 0.8270 0.8268 0.8268
2415.000000 0.8268 0.8267 0.8266 0.8266 0.8266
2410.000000 0.8265 0.8265 0.8264 0.8264 0.8263
2405.000000 0.8263 0.8263 0.8263 0.8263 0.8263
2400.000000 0.8263 0.8264 0.8265 0.8265 0.8266
2395.000000 0.8266 0.8267 0.8267 0.8268 0.8268
2390.000000 0.8268 0.8268 0.8268 0.8270 0.8270
2385.000000 0.8271 0.8271 0.8273 0.8275 0.8277
2380.000000 0.8278 0.8281 0.8283 0.8285 0.8287
2375.000000 0.8289 0.8291 0.8293 0.8294 0.8297
2370.000000 0.8299 0.8301 0.8302 0.8305 0.8307
2365.000000 0.8310 0.8314 0.8318 0.8321 0.8325
2360.000000 0.8330 0.8334 0.8338 0.8343 0.8347
2355.000000 0.8351 0.8355 0.8360 0.8365 0.8370
2350.000000 0.8375 0.8382 0.8388 0.8394 0.8400
2345.000000 0.8406 0.8412 0.8418 0.8423 0.8428
2340.000000 0.8435 0.8441 0.8447 0.8453 0.8459
2335.000000 0.8466 0.8471 0.8478 0.8485 0.8491
2330.000000 0.8497 0.8502 0.8507 0.8511 0.8514
2325.000000 0.8517 0.8521 0.8523 0.8523 0.8523
2320.000000 0.8521 0.8521 0.8521 0.8521 0.8520
2315.000000 0.8518 0.8518 0.8518 0.8517 0.8516
2310.000000 0.8515 0.8515 0.8514 0.8513 0.8512
2305.000000 0.8512 0.8512 0.8512 0.8512 0.8512
2300.000000 0.8512 0.8512 0.8512 0.8512 0.8512
2295.000000 0.8512 0.8512 0.8511 0.8511 0.8511
2290.000000 0.8511 0.8511 0.8511 0.8511 0.8511
2285.000000 0.8511 0.8511 0.8512 0.8512 0.8512
2280.000000 0.8512 0.8512 0.8512 0.8512 0.8512
2275.000000 0.8512 0.8512 0.8512 0.8513 0.8513
2270.000000 0.8513 0.8513 0.8513 0.8513 0.8514
2265.000000 0.8514 0.8514 0.8514 0.8515 0.8515
2260.000000 0.8515 0.8515 0.8516 0.8516 0.8516
2255.000000 0.8516 0.8517 0.8517 0.8517 0.8517
2250.000000 0.8518 0.8518 0.8518 0.8518 0.8518
2245.000000 0.8520 0.8521 0.8521 0.8523 0.8524
2240.000000 0.8525 0.8525 0.8528 0.8528 0.8530
2235.000000 0.8531 0.8532 0.8533 0.8535 0.8536
2230.000000 0.8537 0.8538 0.8539 0.8540 0.8542
2225.000000 0.8544 0.8546 0.8547 0.8549 0.8550
2220.000000 0.8552 0.8553 0.8555 0.8556 0.8558
2215.000000 0.8561 0.8564 0.8567 0.8570 0.8573
2210.000000 0.8575 0.8578 0.8582 0.8585 0.8588
2205.000000 0.8591 0.8594 0.8597 0.8600 0.8603
2200.000000 0.8607 0.8610 0.8613 0.8616 0.8618
2195.000000 0.8621 0.8621 0.8618 0.8617 0.8615
2190.000000 0.8613 0.8611 0.8607 0.8604 0.8599
2185.000000 0.8595 0.8590 0.8586 0.8581 0.8575
2180.000000 0.8568 0.8563 0.8556 0.8551 0.8546
2175.000000 0.8542 0.8537 0.8532 0.8527 0.8523
2170.000000 0.8518 0.8515 0.8511 0.8507 0.8503
2165.000000 0.8499 0.8497 0.8497 0.8497 0.8497
2160.000000 0.8496 0.8496 0.8496 0.8496 0.8497
2155.000000 0.8498 0.8501 0.8504 0.8507 0.8510
2150.000000 0.8512 0.8515 0.8518 0.8521 0.8525
2145.000000 0.8528 0.8531 0.8534 0.8537 0.8541
2140.000000 0.8544 0.8546 0.8549 0.8553 0.8556
2135.000000 0.8559 0.8563 0.8566 0.8568 0.8571
2130.000000 0.8575 0.8578 0.8581 0.8584 0.8587
2125.000000 0.8590 0.8594 0.8597 0.8600 0.8603
2120.000000 0.8606 0.8609 0.8613 0.8616 0.8618
2115.000000 0.8621 0.8624 0.8627 0.8630 0.8633
2110.000000 0.8635 0.8637 0.8640 0.8643 0.8645
2105.000000 0.8647 0.8650 0.8652 0.8655 0.8657
2100.000000 0.8660 0.8663 0.8664 0.8665 0.8665
2095.000000 0.8666 0.8666 0.8666 0.8667 0.8667
2090.000000 0.8668 0.8668 0.8668 0.8668 0.8668
2085.000000 0.8670 0.8670 0.8670 0.8670 0.8670
2080.000000 0.8670 0.8670 0.8670 0.8670 0.8670
2075.000000 0.8670 0.8670 0.8670 0.8668 0.8668
2070.000000 0.8668 0.8668 0.8668 0.8668 0.8668
2065.000000 0.8668 0.8668 0.8668 0.8670 0.8671
2060.000000 0.8671 0.8671 0.8671 0.8673 0.8673
2055.000000 0.8673 0.8674 0.8674 0.8674 0.8671
2050.000000 0.8670 0.8668 0.8668 0.8667 0.8665
2045.000000 0.8664 0.8662 0.8661 0.8660 0.8658
2040.000000 0.8657 0.8655 0.8654 0.8653 0.8651
2035.000000 0.8651 0.8652 0.8652 0.8652 0.8652
2030.000000 0.8652 0.8652 0.8652 0.8652 0.8652
2025.000000 0.8652 0.8653 0.8653 0.8653 0.8653
2020.000000 0.8653 0.8653 0.8653 0.8653 0.8654
2015.000000 0.8654 0.8654 0.8654 0.8654 0.8654
2010.000000 0.8654 0.8655 0.8655 0.8655 0.8655
2005.000000 0.8655 0.8656 0.8656 0.8656 0.8656
2000.000000 0.8657 0.8657 0.8657 0.8657 0.8657
1995.000000 0.8658 0.8658 0.8658 0.8658 0.8658
1990.000000 0.8658 0.8658 0.8658 0.8658 0.8658
1985.000000 0.8658 0.8658 0.8658 0.8658 0.8658
1980.000000 0.8658 0.8658 0.8658 0.8658 0.8658
1975.000000 0.8658 0.8659 0.8659 0.8659 0.8659
1970.000000 0.8659 0.8659 0.8659 0.8659 0.8659
1965.000000 0.8659 0.8659 0.8660 0.8660 0.8660
1960.000000 0.8660 0.8660 0.8660 0.8661 0.8661
1955.000000 0.8661 0.8661 0.8661 0.8661 0.8662
1950.000000 0.8662 0.8662 0.8662 0.8662 0.8662
1945.000000 0.8663 0.8663 0.8663 0.8663 0.8663
1940.000000 0.8663 0.8664 0.8664 0.8664 0.8664
1935.000000 0.8664 0.8664 0.8665 0.8665 0.8665
1930.000000 0.8665 0.8665 0.8665 0.8666 0.8666
1925.000000 0.8666 0.8666 0.8667 0.8667 0.8667
1920.000000 0.8667 0.8667 0.8667 0.8668 0.8668
1915.000000 0.8668 0.8668 0.8668 0.8668 0.8668
1910.000000 0.8668 0.8668 0.8668 0.8668 0.8668
1905.000000 0.8670 0.8670 0.8670 0.8670 0.8670
1900.000000 0.8670 0.8671 0.8671 0.8671 0.8671
1895.000000 0.8671 0.8671 0.8671 0.8671 0.8671
1890.000000 0.8671 0.8673 0.8673 0.8673 0.8674
1885.000000 0.8674 0.8674 0.8675 0.8675 0.8675
1880.000000 0.8675 0.8675 0.8677 0.8677 0.8677
1875.000000 0.8677 0.8678 0.8678 0.8678 0.8678
1870.000000 0.8678 0.8678 0.8680 0.8680 0.8680
1865.000000 0.8681 0.8681 0.8681 0.8682 0.8682
1860.000000 0.8683 0.8683 0.8683 0.8683 0.8683
1855.000000 0.8684 0.8684 0.8685 0.8685 0.8685
1850.000000 0.8686 0.8686 0.8686 0.8687 0.8687
1845.000000 0.8688 0.8688 0.8688 0.8688 0.8688
1840.000000 0.8689 0.8689 0.8690 0.8690 0.8690
1835.000000 0.8691 0.8691 0.8691 0.8692 0.8692
1830.000000 0.8693 0.8693 0.8693 0.8694 0.8694
1825.000000 0.8694 0.8695 0.8695 0.8696 0.8696
1820.000000 0.8696 0.8697 0.8697 0.8697 0.8698
1815.000000 0.8698 0.8698 0.8698 0.8697 0.8696
1810.000000 0.8696 0.8696 0.8695 0.8694 0.8694
1805.000000 0.8693 0.8693 0.8692 0.8692 0.8691
1800.000000 0.8691 0.8690 0.8690 0.8689 0.8689
1795.000000 0.8688 0.8686 0.8684 0.8682 0.8680
1790.000000 0.8678 0.8675 0.8674 0.8671 0.8670
1785.000000 0.8668 0.8665 0.8663 0.8660 0.8657
1780.000000 0.8654 0.8650 0.8647 0.8643 0.8640
1775.000000 0.8637 0.8634 0.8630 0.8627 0.8624
1770.000000 0.8620 0.8617 0.8613 0.8610 0.8606
1765.000000 0.8602 0.8597 0.8593 0.8588 0.8584
1760.000000 0.8577 0.8567 0.8558 0.8551 0.8544
1755.000000 0.8537 0.8531 0.8523 0.8517 0.8510
1750.000000 0.8503 0.8496 0.8489 0.8481 0.8475
1745.000000 0.8468 0.8461 0.8454 0.8448 0.8444
1740.000000 0.8441 0.8440 0.8440 0.8440 0.8442
1735.000000 0.8442 0.8444 0.8446 0.8447 0.8447
1730.000000 0.8446 0.8446 0.8445 0.8444 0.8442
1725.000000 0.8438 0.8432 0.8427 0.8421 0.8416
1720.000000 0.8411 0.8405 0.8398 0.8388 0.8378
1715.000000 0.8370 0.8360 0.8351 0.8344 0.8339
1710.000000 0.8334 0.8328 0.8324 0.8318 0.8315
1705.000000 0.8314 0.8314 0.8314 0.8314 0.8314
1700.000000 0.8315 0.8315 0.8315 0.8315 0.8315
1695.000000 0.8315 0.8315 0.8317 0.8318 0.8320
1690.000000 0.8321 0.8324 0.8325 0.8327 0.8328
1685.000000 0.8331 0.8333 0.8334 0.8336 0.8339
1680.000000 0.8338 0.8338 0.8338 0.8337 0.8337
1675.000000 0.8337 0.8336 0.8336 0.8335 0.8335
1670.000000 0.8334 0.8334 0.8334 0.8333 0.8331
1665.000000 0.8328 0.8325 0.8321 0.8318 0.8315
1660.000000 0.8311 0.8309 0.8305 0.8301 0.8299
1655.000000 0.8295 0.8292 0.8287 0.8282 0.8275
1650.000000 0.8271 0.8265 0.8256 0.8247 0.8238
1645.000000 0.8228 0.8220 0.8213 0.8207 0.8200
1640.000000 0.8194 0.8188 0.8182 0.8175 0.8175
1635.000000 0.8175 0.8175 0.8174 0.8172 0.8172
1630.000000 0.8171 0.8171 0.8171 0.8171 0.8171
1625.000000 0.8171 0.8169 0.8168 0.8168 0.8165
1620.000000 0.8165 0.8162 0.8161 0.8161 0.8158
1615.000000 0.8158 0.8157 0.8156 0.8154 0.8151
1610.000000 0.8150 0.8148 0.8146 0.8144 0.8142
1605.000000 0.8140 0.8137 0.8135 0.8132 0.8125
1600.000000 0.8121 0.8115 0.8108 0.8103 0.8097
1595.000000 0.8090 0.8083 0.8072 0.8062 0.8053
1590.000000 0.8043 0.8032 0.8021 0.8012 0.8004
1585.000000 0.7994 0.7984 0.7975 0.7965 0.7956
1580.000000 0.7947 0.7938 0.7928 0.7919 0.7911
1575.000000 0.7901 0.7891 0.7880 0.7868 0.7856
1570.000000 0.7845 0.7833 0.7821 0.7810 0.7797
1565.000000 0.7786 0.7774 0.7762 0.7751 0.7741
1560.000000 0.7728 0.7711 0.7695 0.7676 0.7658
1555.000000 0.7641 0.7624 0.7608 0.7590 0.7582
1550.000000 0.7578 0.7572 0.7568 0.7564 0.7558
1545.000000 0.7551 0.7544 0.7536 0.7526 0.7518
1540.000000 0.7507 0.7490 0.7471 0.7454 0.7437
1535.000000 0.7411 0.7381 0.7348 0.7315 0.7283
1530.000000 0.7250 0.7215 0.7174 0.7131 0.7075
1525.000000 0.7005 0.6944 0.6893 0.6842 0.6798
1520.000000 0.6765 0.6735 0.6704 0.6674 0.6636
1515.000000 0.6594 0.6551 0.6510 0.6462 0.6410
1510.000000 0.6357 0.6303 0.6226 0.6138 0.6037
1505.000000 0.5796 0.5571 0.5406 0.5272 0.5160
1500.000000 0.4790 0.4458 0.4218 0.3977 0.3736
1495.000000 0.3495 0.3253 0.3011 0.2768 0.2525
1490.000000 0.2282 0.2039 0.1794 0.1551 0.1307
1485.000000 0.1063 0.0818 0.0573 0.0380 0.0332
1480.000000 0.0316 0.0306 0.0301 0.0299 0.0308
1475.000000 0.0316 0.0330 0.0343 0.0356 0.0373
1470.000000 0.0397 0.0421 0.0445 0.0471 0.0501
1465.000000 0.0532 0.0573 0.0618 0.0665 0.0715
1460.000000 0.0776 0.0838 0.0900 0.0963 0.1026
1455.000000 0.1089 0.1144 0.1188 0.1231 0.1275
1450.000000 0.1312 0.1348 0.1384 0.1420 0.1459
1445.000000 0.1523 0.1592 0.1673 0.1763 0.1853
1440.000000 0.1934 0.2014 0.2094 0.2214 0.2447
1435.000000 0.2761 0.3079 0.3397 0.3714 0.4032
1430.000000 0.4352 0.4672 0.4953 0.5167 0.5308
1425.000000 0.5389 0.5472 0.5562 0.5656 0.5745
1420.000000 0.5807 0.5855 0.5892 0.5910 0.5922
1415.000000 0.5928 0.5932 0.5931 0.5920 0.5919
1410.000000 0.5884 0.5852 0.5796 0.5693 0.5517
1405.000000 0.5378 0.5247 0.5118 0.5007 0.4899
1400.000000 0.4787 0.4670 0.4376 0.4080 0.3784
1395.000000 0.3488 0.3192 0.2895 0.2597 0.2299
1390.000000 0.2000 0.1702 0.1625 0.1631 0.1622
1385.000000 0.1704 0.2062 0.2419 0.2777 0.3124
1380.000000 0.3312 0.3346 0.3373 0.3398 0.3436
1375.000000 0.3529 0.3753 0.3980 0.4210 0.4439
1370.000000 0.4669 0.4898 0.5128 0.5275 0.5340
1365.000000 0.5312 0.5314 0.5304 0.5265 0.5162
1360.000000 0.5020 0.4865 0.4769 0.4743 0.4723
1355.000000 0.4704 0.4656 0.4592 0.4544 0.4520
1350.000000 0.4503 0.4462 0.4479 0.4489 0.4524
1345.000000 0.4614 0.4730 0.4847 0.4965 0.5083
1340.000000 0.5201 0.5319 0.5438 0.5556 0.5675
1335.000000 0.5795 0.5880 0.5860 0.5849 0.5829
1330.000000 0.5786 0.5669 0.5346 0.5112 0.4912
1325.000000 0.4715 0.4516 0.4318 0.4104 0.3742
1320.000000 0.3588 0.3441 0.3322 0.3214 0.3114
1315.000000 0.3031 0.2950 0.2863 0.2759 0.2656
1310.000000 0.2553 0.2593 0.2590 0.2604 0.2733
1305.000000 0.2893 0.3054 0.3214 0.3377 0.3538
1300.000000 0.3700 0.3862 0.3978 0.3989 0.3975
1295.000000 0.3943 0.3774 0.3560 0.3348 0.3134
1290.000000 0.2920 0.2706 0.2490 0.2276 0.2061
1285.000000 0.1844 0.1636 0.1610 0.1614 0.1636
1280.000000 0.1694 0.1817 0.1954 0.2146 0.2310
1275.000000 0.2451 0.2578 0.2687 0.2779 0.2868
1270.000000 0.2949 0.3062 0.3169 0.3248 0.3307
1265.000000 0.3353 0.3409 0.3479 0.3566 0.3742
1260.000000 0.3949 0.4153 0.4358 0.4562 0.4768
1255.000000 0.4974 0.5179 0.5380 0.5489 0.5510
1250.000000 0.5543 0.5520 0.5514 0.5473 0.5380
1245.000000 0.5237 0.5065 0.5031 0.5018 0.5004
1240.000000 0.4990 0.4967 0.4935 0.4884 0.4780
1235.000000 0.4596 0.4394 0.4193 0.3990 0.3788
1230.000000 0.3703 0.3696 0.3740 0.3918 0.4201
1225.000000 0.4491 0.4781 0.5071 0.5362 0.5623
1220.000000 0.5797 0.5879 0.5957 0.6035 0.6096
1215.000000 0.6143 0.6170 0.6177 0.6176 0.6172
1210.000000 0.6160 0.6147 0.6134 0.6125 0.6117
1205.000000 0.6108 0.6102 0.6099 0.6099 0.6098
1200.000000 0.6109 0.6121 0.6133 0.6170 0.6210
1195.000000 0.6260 0.6291 0.6310 0.6320 0.6325
1190.000000 0.6331 0.6337 0.6344 0.6360 0.6388
1185.000000 0.6418 0.6480 0.6544 0.6612 0.6637
1180.000000 0.6644 0.6606 0.6536 0.6478 0.6436
1175.000000 0.6422 0.6433 0.6447 0.6497 0.6618
1170.000000 0.6758 0.6848 0.6937 0.7022 0.7108
1165.000000 0.7195 0.7271 0.7308 0.7328 0.7339
1160.000000 0.7351 0.7361 0.7374 0.7386 0.7403
1155.000000 0.7424 0.7445 0.7465 0.7486 0.7512
1150.000000 0.7538 0.7565 0.7584 0.7601 0.7615
1145.000000 0.7630 0.7619 0.7617 0.7606 0.7593
1140.000000 0.7556 0.7504 0.7446 0.7387 0.7328
1135.000000 0.7271 0.7215 0.7158 0.7074 0.6968
1130.000000 0.6850 0.6707 0.6518 0.6256 0.6062
1125.000000 0.5868 0.5674 0.5479 0.5283 0.4978
1120.000000 0.4999 0.4999 0.5000 0.5025 0.5059
1115.000000 0.5093 0.5114 0.5103 0.5087 0.5029
1110.000000 0.4968 0.4920 0.4879 0.4846 0.4856
1105.000000 0.4872 0.4923 0.4989 0.5082 0.5206
1100.000000 0.5334 0.5462 0.5591 0.5720 0.5849
1095.000000 0.5979 0.6108 0.6238 0.6368 0.6498
1090.000000 0.6601 0.6660 0.6708 0.6742 0.6775
1085.000000 0.6796 0.6814 0.6828 0.6839 0.6850
1080.000000 0.6861 0.6872 0.6887 0.6901 0.6918
1075.000000 0.6934 0.6950 0.6968 0.6987 0.7006
1070.000000 0.7025 0.7056 0.7087 0.7118 0.7150
1065.000000 0.7197 0.7251 0.7305 0.7357 0.7399
1060.000000 0.7432 0.7465 0.7485 0.7518 0.7495
1055.000000 0.7496 0.7489 0.7475 0.7451 0.7418
1050.000000 0.7383 0.7339 0.7236 0.7143 0.7051
1045.000000 0.6961 0.6871 0.6780 0.6689 0.6608
1040.000000 0.6593 0.6594 0.6608 0.6645 0.6697
1035.000000 0.6726 0.6734 0.6735 0.6735 0.6733
1030.000000 0.6725 0.6718 0.6715 0.6711 0.6721
1025.000000 0.6751 0.6791 0.6832 0.6880 0.6922
1020.000000 0.6955 0.6988 0.7015 0.7041 0.7058
1015.000000 0.7089 0.7078 0.7075 0.7067 0.7028
1010.000000 0.6967 0.6888 0.6825 0.6781 0.6738
1005.000000 0.6698 0.6664 0.6628 0.6594 0.6558
1000.000000 0.6521 0.6474 0.6425 0.6312 0.6242
995.000000 0.6207 0.6180 0.6104 0.6129 0.6115
990.000000 0.6104 0.6110 0.6124 0.6155 0.6185
985.000000 0.6233 0.6297 0.6372 0.6436 0.6496
980.000000 0.6541 0.6572 0.6598 0.6615 0.6626
975.000000 0.6636 0.6643 0.6651 0.6655 0.6657
970.000000 0.6660 0.6665 0.6671 0.6692 0.6728
965.000000 0.6772 0.6826 0.6880 0.6931 0.6971
960.000000 0.7008 0.7024 0.7034 0.7031 0.7028
955.000000 0.7026 0.7025 0.7025 0.7028 0.7030
950.000000 0.7031 0.7032 0.7031 0.7014 0.6975
945.000000 0.6915 0.6837 0.6697 0.6575 0.6467
940.000000 0.6359 0.6249 0.6140 0.6030 0.5920
935.000000 0.5809 0.5699 0.5588 0.5477 0.5376
930.000000 0.5314 0.5339 0.5349 0.5391 0.5449
925.000000 0.5512 0.5576 0.5639 0.5689 0.5720
920.000000 0.5733 0.5739 0.5741 0.5744 0.5747
915.000000 0.5752 0.5757 0.5762 0.5764 0.5772
910.000000 0.5790 0.5832 0.5887 0.5949 0.5993
905.000000 0.6029 0.6058 0.6071 0.6084 0.6097
900.000000 0.6097 0.6097 0.6092 0.6081 0.6071
895.000000 0.6056 0.6040 0.6019 0.5987 0.5954
890.000000 0.5906 0.5844 0.5780 0.5708 0.5619
885.000000 0.5510 0.5290 0.5317 0.5310 0.5332
880.000000 0.5381 0.5453 0.5560 0.5678 0.5800
875.000000 0.5914 0.6019 0.6119 0.6200 0.6274
870.000000 0.6370 0.6450 0.6518 0.6576 0.6619
865.000000 0.6625 0.6626 0.6638 0.6661 0.6706
860.000000 0.6747 0.6782 0.6791 0.6801 0.6806
855.000000 0.6808 0.6811 0.6814 0.6814 0.6797
850.000000 0.6751 0.6724 0.6712 0.6714 0.6724
845.000000 0.6735 0.6764 0.6804 0.6855 0.6907
840.000000 0.6951 0.6993 0.7036 0.7075 0.7112
835.000000 0.7145 0.7171 0.7197 0.7222 0.7247
830.000000 0.7262 0.7271 0.7281 0.7290 0.7298
825.000000 0.7299 0.7318 0.7301 0.7305 0.7308
820.000000 0.7307 0.7307 0.7300 0.7292 0.7284
815.000000 0.7275 0.7251 0.7199 0.7161 0.7150
810.000000 0.7148 0.7146 0.7145 0.7143 0.7132
805.000000 0.7121 0.7121 0.7121 0.7122 0.7122
800.000000 0.7121 0.7121 0.7115 0.7106 0.7095
795.000000 0.7065 0.6980 0.6933 0.6921 0.6915
790.000000 0.6914 0.6925 0.6937 0.6944 0.6951
785.000000 0.6958 0.6965 0.6971 0.6974 0.6968
780.000000 0.6961 0.6946 0.6928 0.6894 0.6856
775.000000 0.6797 0.6738 0.6678 0.6618 0.6546
770.000000 0.6458 0.6362 0.6248 0.6143 0.6042
765.000000 0.5944 0.5854 0.5762 0.5672 0.5580
760.000000 0.5489 0.5391 0.5286 0.5164 0.5031
755.000000 0.4921 0.4842 0.4755 0.4676 0.4632
750.000000 0.4615 0.4614 0.4624 0.4628 0.4660
745.000000 0.4612 0.4594 0.4562 0.4532 0.4483
740.000000 0.4414 0.4330 0.4223 0.4108 0.3962
735.000000 0.3757 0.3548 0.3360 0.3148 0.2942
730.000000 0.2826 0.2740 0.2755 0.2747 0.2794
725.000000 0.2914 0.3091 0.3289 0.3495 0.3695
720.000000 0.3893 0.4084 0.4204 0.4306 0.4397
715.000000 0.4480 0.4539 0.4605 0.4579 0.4580
710.000000 0.4580 0.4542 0.4501 0.4517 0.4556
705.000000 0.4618 0.4697 0.4800 0.4914 0.5028
700.000000 0.5206 0.5358 0.5514 0.5660 0.5797
695.000000 0.5936 0.6075 0.6182 0.6286 0.6389
690.000000 0.6500 0.6611 0.6698 0.6784 0.6868
685.000000 0.6961 0.7058 0.7135 0.7193 0.7215
680.000000 0.7238 0.7265 0.7291 0.7312 0.7322
675.000000 0.7328 0.7334 0.7311 0.7342 0.7336
670.000000 0.7337 0.7324 0.7257 0.7110 0.7034
665.000000 0.7039 0.7045 0.7051 0.7060 0.7034
660.000000 0.6960 0.6845 0.6719 0.6607 0.6499
655.000000 0.6401 0.6308 0.6218 0.6116 0.6129
650.000000 0.6142 0.6199 0.6287 0.6371 0.6450
645.000000 0.6528 0.6592 0.6644 0.6697 0.6738
640.000000 0.6765 0.6806 0.6851 0.6876 0.6896
635.000000 0.6906 0.6907 0.6908 0.6890 0.6914
630.000000 0.6918 0.6917 0.6915 0.6885 0.6856
##END=
