##TITLE=CYCLOBUTANONE
##JCAMP-DX=4.24
##DATA TYPE=INFRARED SPECTRUM
##CLASS=COBLENTZ III
##ORIGIN=DOW CHEMICAL COMPANY
##OWNER=COBLENTZ SOCIETY
Collection (C) 2018 copyright by the U.S. Secretary of Commerce
on behalf of the United States of America. All rights reserved.
##DATE=1963/07/15
##CAS REGISTRY NO=1191-95-3
##MOLFORM=C4 H6 O
##SOURCE REFERENCE=COBLENTZ NO. 10190
##$NIST SOURCE=COBLENTZ
##$NIST IMAGE=cob10190
##SPECTROMETER/DATA SYSTEM=DOW KBr FOREPRISM-GRATING
##INSTRUMENT PARAMETERS=BLAZED AT 3.5, 12.0, 20.0 MICRON, CHANGED AT 5.0, 7.5, 14.9 MICRON
##STATE=SOLUTION (2% IN CCl4 FOR 3800-1333, 2% IN CS2 FOR 1333-450 CM^-^1)
##PATH LENGTH=0.011, 0.011 CM
$$SPECTRAL CONTAMINATION DUE TO CCl4 AROUND 1550, AND CS2 AROUND 855 CM^-^1
##SAMPLING PROCEDURE=TRANSMISSION
##RESOLUTION=4
##DATA PROCESSING=DIGITIZED BY NIST FROM HARD COPY (FROM TWO SEGMENTS)
##XUNITS=1/CM
##YUNITS=TRANSMITTANCE
##XFACTOR=1.000000
##YFACTOR=1
##DELTAX=0.851790
##FIRSTX=452.3
##LASTX=3797.28
##FIRSTY=0.917
##MAXX=3797.28
##MINX=452.3
##MAXY=1.009
##MINY=0.01
##NPOINTS=3928
##XYDATA=(X++(Y..Y))
452.300000 0.9170 0.9170 0.9160 0.9140 0.9140
456.558951 0.9140 0.9140 0.9140 0.9140 0.9140
460.817902 0.9160 0.9220 0.9290 0.9320 0.9360
465.076853 0.9400 0.9420 0.9450 0.9500 0.9530
469.335804 0.9540 0.9560 0.9560 0.9580 0.9580
473.594755 0.9600 0.9600 0.9600 0.9610 0.9610
477.853706 0.9610 0.9610 0.9610 0.9620 0.9620
482.112657 0.9640 0.9640 0.9640 0.9640 0.9650
486.371608 0.9650 0.9650 0.9650 0.9650 0.9640
490.630559 0.9640 0.9650 0.9650 0.9650 0.9650
494.889510 0.9660 0.9660 0.9660 0.9660 0.9660
499.148461 0.9690 0.9720 0.9730 0.9760 0.9760
503.407412 0.9770 0.9770 0.9770 0.9770 0.9770
507.666363 0.9770 0.9770 0.9770 0.9770 0.9770
511.925314 0.9770 0.9770 0.9770 0.9770 0.9770
516.184265 0.9770 0.9780 0.9780 0.9800 0.9800
520.443216 0.9810 0.9810 0.9810 0.9810 0.9820
524.702168 0.9840 0.9840 0.9850 0.9860 0.9860
528.961119 0.9860 0.9860 0.9860 0.9880 0.9880
533.220070 0.9880 0.9890 0.9890 0.9900 0.9900
537.479021 0.9900 0.9900 0.9900 0.9900 0.9920
541.737972 0.9920 0.9930 0.9930 0.9930 0.9930
545.996923 0.9940 0.9940 0.9940 0.9940 0.9940
550.255874 0.9960 0.9970 0.9980 0.9980 0.9980
554.514825 0.9980 0.9980 0.9970 0.9970 0.9980
558.773776 0.9980 0.9980 0.9980 0.9970 0.9940
563.032727 0.9930 0.9930 0.9960 0.9970 0.9970
567.291678 0.9980 1.0000 1.0000 1.0000 0.9980
571.550629 0.9970 0.9960 0.9960 0.9970 0.9980
575.809580 0.9980 0.9980 0.9970 0.9970 0.9960
580.068531 0.9960 0.9960 0.9960 0.9960 0.9960
584.327482 0.9940 0.9940 0.9940 0.9940 0.9930
588.586433 0.9930 0.9930 0.9940 0.9940 0.9960
592.845384 0.9960 0.9940 0.9920 0.9920 0.9900
597.104335 0.9900 0.9920 0.9920 0.9920 0.9920
601.363286 0.9900 0.9890 0.9890 0.9880 0.9880
605.622237 0.9880 0.9880 0.9860 0.9850 0.9850
609.881188 0.9820 0.9810 0.9810 0.9780 0.9770
614.140139 0.9740 0.9730 0.9730 0.9720 0.9720
618.399090 0.9720 0.9700 0.9700 0.9700 0.9690
622.658041 0.9680 0.9680 0.9660 0.9660 0.9660
626.916992 0.9660 0.9660 0.9660 0.9660 0.9650
631.175943 0.9650 0.9650 0.9650 0.9640 0.9580
635.434894 0.9560 0.9540 0.9530 0.9520 0.9480
639.693845 0.9460 0.9440 0.9400 0.9370 0.9340
643.952796 0.9330 0.9290 0.9250 0.9220 0.9170
648.211747 0.9160 0.9140 0.9130 0.9120 0.9060
652.470698 0.9040 0.9020 0.9020 0.9050 0.9120
656.729649 0.9130 0.9170 0.9210 0.9240 0.9280
660.988601 0.9320 0.9320 0.9330 0.9330 0.9330
665.247552 0.9340 0.9340 0.9340 0.9340 0.9360
669.506503 0.9360 0.9360 0.9360 0.9360 0.9360
673.765454 0.9360 0.9360 0.9360 0.9360 0.9360
678.024405 0.9360 0.9360 0.9360 0.9360 0.9360
682.283356 0.9360 0.9360 0.9360 0.9360 0.9360
686.542307 0.9360 0.9340 0.9340 0.9330 0.9330
690.801258 0.9330 0.9320 0.9320 0.9320 0.9300
695.060209 0.9300 0.9300 0.9300 0.9300 0.9300
699.319160 0.9300 0.9300 0.9290 0.9280 0.9280
703.578111 0.9260 0.9260 0.9250 0.9240 0.9210
707.837062 0.9200 0.9180 0.9180 0.9170 0.9140
712.096013 0.9120 0.9090 0.9060 0.9050 0.9040
716.354964 0.8970 0.8940 0.8930 0.8920 0.8920
720.613915 0.8920 0.8900 0.8900 0.8900 0.8920
724.872866 0.8920 0.8930 0.8940 0.8970 0.9000
729.131817 0.9010 0.9020 0.9090 0.9130 0.9170
733.390768 0.9170 0.9200 0.9210 0.9240 0.9240
737.649719 0.9280 0.9340 0.9360 0.9360 0.9370
741.908670 0.9370 0.9370 0.9370 0.9380 0.9380
746.167621 0.9380 0.9380 0.9380 0.9370 0.9370
750.426572 0.9360 0.9340 0.9330 0.9320 0.9280
754.685523 0.9250 0.9210 0.9180 0.9160 0.9130
758.944474 0.9090 0.9050 0.9040 0.9040 0.9060
763.203425 0.9130 0.9160 0.9200 0.9250 0.9320
767.462376 0.9360 0.9380 0.9420 0.9460 0.9490
771.721327 0.9500 0.9500 0.9500 0.9500 0.9490
775.980278 0.9490 0.9490 0.9490 0.9490 0.9490
780.239229 0.9490 0.9490 0.9490 0.9480 0.9460
784.498180 0.9460 0.9460 0.9460 0.9460 0.9460
788.757131 0.9450 0.9450 0.9450 0.9450 0.9440
793.016082 0.9440 0.9440 0.9440 0.9440 0.9440
797.275033 0.9420 0.9420 0.9420 0.9440 0.9450
801.533985 0.9450 0.9450 0.9450 0.9450 0.9440
805.792936 0.9410 0.9400 0.9400 0.9400 0.9410
810.051887 0.9410 0.9410 0.9420 0.9440 0.9440
814.310838 0.9450 0.9450 0.9450 0.9450 0.9450
818.569789 0.9450 0.9440 0.9440 0.9440 0.9450
822.828740 0.9460 0.9460 0.9450 0.9440 0.9440
827.087691 0.9420 0.9410 0.9410 0.9380 0.9370
831.346642 0.9340 0.9340 0.9330 0.9290 0.9250
835.605593 0.9220 0.9170 0.9130 0.9130 0.9100
839.864544 0.9020 0.8940 0.8920 0.8860 0.8820
844.123495 0.8730 0.8620 0.8520 0.8440 0.8360
848.382446 0.8300 0.8200 0.8120 0.7961 0.7841
852.641397 0.7770 0.7700 0.7700 0.7690 0.7690
856.900348 0.7680 0.7680 0.7680 0.7680 0.7690
861.159299 0.7820 0.7850 0.7860 0.7890 0.7930
865.418250 0.7970 0.8000 0.8040 0.8080 0.8140
869.677201 0.8170 0.8200 0.8260 0.8300 0.8330
873.936152 0.8340 0.8400 0.8420 0.8490 0.8520
878.195103 0.8540 0.8540 0.8610 0.8640 0.8700
882.454054 0.8740 0.8770 0.8780 0.8880 0.8920
886.713005 0.8960 0.9020 0.9080 0.9130 0.9140
890.971956 0.9170 0.9220 0.9280 0.9290 0.9330
895.230907 0.9340 0.9370 0.9380 0.9400 0.9410
899.489858 0.9410 0.9420 0.9440 0.9460 0.9490
903.748809 0.9490 0.9520 0.9530 0.9530 0.9540
908.007760 0.9560 0.9560 0.9570 0.9570 0.9570
912.266711 0.9570 0.9570 0.9570 0.9570 0.9570
916.525662 0.9570 0.9570 0.9570 0.9570 0.9570
920.784613 0.9570 0.9570 0.9570 0.9570 0.9570
925.043564 0.9570 0.9570 0.9570 0.9570 0.9570
929.302515 0.9570 0.9570 0.9570 0.9570 0.9570
933.561466 0.9570 0.9570 0.9570 0.9570 0.9570
937.820418 0.9570 0.9560 0.9560 0.9560 0.9540
942.079369 0.9540 0.9540 0.9540 0.9540 0.9530
946.338320 0.9530 0.9500 0.9500 0.9490 0.9490
950.597271 0.9480 0.9450 0.9410 0.9380 0.9360
954.856222 0.9290 0.9240 0.9210 0.9200 0.9210
959.115173 0.9300 0.9330 0.9380 0.9460 0.9480
963.374124 0.9500 0.9530 0.9570 0.9580 0.9600
967.633075 0.9610 0.9610 0.9610 0.9610 0.9620
971.892026 0.9640 0.9640 0.9640 0.9640 0.9640
976.150977 0.9640 0.9650 0.9650 0.9660 0.9660
980.409928 0.9660 0.9660 0.9660 0.9660 0.9660
984.668879 0.9660 0.9660 0.9660 0.9660 0.9660
988.927830 0.9660 0.9660 0.9660 0.9680 0.9680
993.186781 0.9680 0.9660 0.9660 0.9660 0.9660
997.445732 0.9650 0.9650 0.9650 0.9660 0.9660
1001.704683 0.9680 0.9680 0.9690 0.9690 0.9690
1005.963634 0.9680 0.9660 0.9660 0.9660 0.9660
1010.222585 0.9660 0.9650 0.9650 0.9650 0.9650
1014.481536 0.9640 0.9640 0.9620 0.9620 0.9620
1018.740487 0.9620 0.9620 0.9610 0.9600 0.9580
1022.999438 0.9570 0.9570 0.9570 0.9560 0.9560
1027.258389 0.9540 0.9540 0.9540 0.9530 0.9500
1031.517340 0.9480 0.9460 0.9460 0.9440 0.9420
1035.776291 0.9410 0.9370 0.9340 0.9330 0.9330
1040.035242 0.9300 0.9280 0.9250 0.9220 0.9210
1044.294193 0.9180 0.9140 0.9120 0.9040 0.9000
1048.553144 0.8980 0.8960 0.8890 0.8820 0.8760
1052.812095 0.8700 0.8610 0.8570 0.8520 0.8420
1057.071046 0.8360 0.8280 0.8160 0.8000 0.7820
1061.329997 0.7520 0.7211 0.7100 0.6821 0.6531
1065.588948 0.6080 0.5820 0.5210 0.4580 0.4180
1069.847899 0.3761 0.3211 0.3140 0.2582 0.2570
1074.106851 0.2570 0.2580 0.2640 0.2810 0.3100
1078.365802 0.3280 0.3859 0.4359 0.4888 0.5836
1082.624753 0.6290 0.6660 0.6980 0.7220 0.7440
1086.883704 0.7600 0.7720 0.7810 0.7890 0.8129
1091.142655 0.8240 0.8410 0.8480 0.8520 0.8580
1095.401606 0.8680 0.8720 0.8760 0.8810 0.8850
1099.660557 0.8900 0.8920 0.8940 0.8960 0.8970
1103.919508 0.8980 0.9040 0.9050 0.9060 0.9090
1108.178459 0.9120 0.9130 0.9140 0.9140 0.9160
1112.437410 0.9170 0.9170 0.9170 0.9170 0.9180
1116.696361 0.9180 0.9180 0.9180 0.9200 0.9200
1120.955312 0.9200 0.9180 0.9170 0.9170 0.9160
1125.214263 0.9160 0.9140 0.9140 0.9120 0.9120
1129.473214 0.9100 0.9090 0.9060 0.9050 0.9020
1133.732165 0.9020 0.9040 0.9050 0.9050 0.9060
1137.991116 0.9120 0.9130 0.9160 0.9170 0.9180
1142.250067 0.9180 0.9180 0.9200 0.9210 0.9220
1146.509018 0.9240 0.9250 0.9250 0.9240 0.9220
1150.767969 0.9210 0.9180 0.9170 0.9160 0.9140
1155.026920 0.9130 0.9120 0.9120 0.9100 0.9100
1159.285871 0.9090 0.9090 0.9100 0.9130 0.9140
1163.544822 0.9140 0.9160 0.9160 0.9160 0.9160
1167.803773 0.9180 0.9180 0.9180 0.9200 0.9210
1172.062724 0.9220 0.9220 0.9220 0.9220 0.9220
1176.321675 0.9210 0.9200 0.9180 0.9170 0.9160
1180.580626 0.9140 0.9130 0.9130 0.9140 0.9170
1184.839577 0.9200 0.9200 0.9200 0.9180 0.9180
1189.098528 0.9170 0.9170 0.9160 0.9130 0.9130
1193.357479 0.9120 0.9100 0.9090 0.9060 0.9020
1197.616430 0.9000 0.8940 0.8890 0.8800 0.8621
1201.875381 0.8380 0.8160 0.7980 0.7860 0.7440
1206.134332 0.7060 0.7020 0.7160 0.7369 0.7968
1210.393283 0.8600 0.8900 0.9010 0.9100 0.9120
1214.652235 0.9140 0.9200 0.9220 0.9330 0.9340
1218.911186 0.9380 0.9420 0.9420 0.9440 0.9450
1223.170137 0.9450 0.9460 0.9480 0.9480 0.9480
1227.429088 0.9480 0.9460 0.9450 0.9410 0.9370
1231.688039 0.9340 0.9330 0.9320 0.9290 0.9260
1235.946990 0.9210 0.9160 0.9080 0.8980 0.8920
1240.205941 0.8730 0.8720 0.8730 0.8850 0.8900
1244.464892 0.8960 0.9020 0.9140 0.9180 0.9240
1248.723843 0.9280 0.9320 0.9380 0.9420 0.9420
1252.982794 0.9450 0.9450 0.9450 0.9460 0.9500
1257.241745 0.9520 0.9540 0.9540 0.9540 0.9540
1261.500696 0.9540 0.9540 0.9540 0.9540 0.9540
1265.759647 0.9540 0.9540 0.9560 0.9580 0.9600
1270.018598 0.9600 0.9600 0.9600 0.9600 0.9600
1274.277549 0.9600 0.9600 0.9600 0.9600 0.9600
1278.536500 0.9600 0.9600 0.9580 0.9580 0.9600
1282.795451 0.9600 0.9600 0.9600 0.9600 0.9600
1287.054402 0.9610 0.9610 0.9600 0.9600 0.9600
1291.313353 0.9610 0.9600 0.9600 0.9600 0.9600
1295.572304 0.9600 0.9600 0.9600 0.9600 0.9580
1299.831255 0.9570 0.9570 0.9570 0.9570 0.9580
1304.090206 0.9600 0.9600 0.9600 0.9600 0.9600
1308.349157 0.9580 0.9570 0.9570 0.9570 0.9560
1312.608108 0.9560 0.9560 0.9560 0.9560 0.9560
1316.867059 0.9560 0.9540 0.9540 0.9530 0.9520
1321.126010 0.9490 0.9480 0.9460 0.9450 0.9420
1325.384961 0.9400 0.9360 0.9330 0.9320 0.9280
1329.643912 0.9250 0.9170 0.9160 0.9140 0.9130
1333.902863 0.9130 0.9130 0.9140 0.9160 0.9170
1338.161814 0.9200 0.9240 0.9250 0.9340 0.9370
1342.420765 0.9410 0.9410 0.9410 0.9420 0.9420
1346.679716 0.9440 0.9450 0.9450 0.9450 0.9450
1350.938668 0.9450 0.9440 0.9440 0.9440 0.9440
1355.197619 0.9420 0.9420 0.9410 0.9410 0.9410
1359.456570 0.9420 0.9420 0.9420 0.9420 0.9420
1363.715521 0.9400 0.9380 0.9370 0.9330 0.9320
1367.974472 0.9290 0.9290 0.9290 0.9280 0.9260
1372.233423 0.9250 0.9250 0.9240 0.9220 0.9220
1376.492374 0.9210 0.9140 0.9060 0.9020 0.9010
1380.751325 0.8930 0.8900 0.8800 0.8730 0.8700
1385.010276 0.8600 0.8530 0.8440 0.8330 0.8171
1389.269227 0.8019 0.7820 0.7579 0.6970 0.6610
1393.528178 0.6220 0.6020 0.6020 0.6130 0.6330
1397.787129 0.6480 0.6621 0.7040 0.7330 0.7520
1402.046080 0.7800 0.8120 0.8330 0.8500 0.8620
1406.305031 0.8700 0.8800 0.8840 0.8930 0.8980
1410.563982 0.9000 0.9060 0.9120 0.9140 0.9170
1414.822933 0.9200 0.9240 0.9250 0.9280 0.9320
1419.081884 0.9340 0.9380 0.9400 0.9410 0.9420
1423.340835 0.9420 0.9410 0.9410 0.9410 0.9410
1427.599786 0.9410 0.9410 0.9410 0.9410 0.9410
1431.858737 0.9410 0.9410 0.9410 0.9410 0.9410
1436.117688 0.9420 0.9440 0.9440 0.9420 0.9410
1440.376639 0.9400 0.9400 0.9380 0.9380 0.9380
1444.635590 0.9380 0.9380 0.9380 0.9400 0.9410
1448.894541 0.9420 0.9450 0.9450 0.9380 0.9370
1453.153492 0.9370 0.9380 0.9380 0.9400 0.9440
1457.412443 0.9480 0.9520 0.9540 0.9460 0.9370
1461.671394 0.9320 0.9290 0.9290 0.9280 0.9290
1465.930345 0.9360 0.9410 0.9410 0.9320 0.9240
1470.189296 0.9240 0.9260 0.9320 0.9360 0.9440
1474.448247 0.9440 0.9370 0.9330 0.9220 0.9210
1478.707198 0.9140 0.9120 0.9090 0.9060 0.9050
1482.966149 0.9010 0.9000 0.8980 0.8970 0.8970
1487.225100 0.8970 0.8960 0.8940 0.8930 0.8840
1491.484052 0.8810 0.8780 0.8740 0.8700 0.8650
1495.743003 0.8620 0.8570 0.8500 0.8500 0.8450
1500.001954 0.8420 0.8320 0.8250 0.8180 0.8140
1504.260905 0.8060 0.8010 0.7970 0.7970 0.7940
1508.519856 0.7890 0.7850 0.7780 0.7720 0.7600
1512.778807 0.7530 0.7460 0.7440 0.7410 0.7330
1517.037758 0.7300 0.7300 0.7290 0.7280 0.7170
1521.296709 0.7090 0.7080 0.7060 0.7020 0.6930
1525.555660 0.6900 0.6820 0.6810 0.6760 0.6650
1529.814611 0.6600 0.6530 0.6400 0.6300 0.6200
1534.073562 0.6160 0.6040 0.5920 0.5800 0.5740
1538.332513 0.5640 0.5570 0.5530 0.5480 0.5281
1542.591464 0.5170 0.5120 0.5020 0.5000 0.4890
1546.850415 0.4810 0.4780 0.4760 0.4730 0.4700
1551.109366 0.4690 0.4680 0.4680 0.4690 0.4700
1555.368317 0.4770 0.4890 0.4900 0.4920 0.5010
1559.627268 0.5131 0.5320 0.5400 0.5440 0.5460
1563.886219 0.5480 0.5540 0.5620 0.5770 0.5880
1568.145170 0.5920 0.6000 0.6160 0.6320 0.6380
1572.404121 0.6420 0.6440 0.6440 0.6440 0.6450
1576.663072 0.6600 0.6620 0.6620 0.6620 0.6620
1580.922023 0.6640 0.6650 0.6650 0.6660 0.6680
1585.180974 0.6740 0.6770 0.6800 0.6850 0.6900
1589.439925 0.6920 0.6970 0.7010 0.7120 0.7140
1593.698876 0.7250 0.7290 0.7410 0.7530 0.7580
1597.957827 0.7620 0.7740 0.7820 0.7940 0.8129
1602.216778 0.8160 0.8290 0.8330 0.8500 0.8520
1606.475729 0.8530 0.8640 0.8720 0.8770 0.8820
1610.734680 0.8860 0.9010 0.9040 0.9040 0.9050
1614.993631 0.9060 0.9120 0.9170 0.9320 0.9340
1619.252582 0.9340 0.9340 0.9340 0.9340 0.9360
1623.511533 0.9400 0.9440 0.9460 0.9500 0.9520
1627.770485 0.9530 0.9530 0.9520 0.9500 0.9500
1632.029436 0.9520 0.9530 0.9570 0.9580 0.9580
1636.288387 0.9690 0.9730 0.9730 0.9700 0.9690
1640.547338 0.9690 0.9680 0.9660 0.9660 0.9660
1644.806289 0.9650 0.9650 0.9660 0.9730 0.9760
1649.065240 0.9780 0.9780 0.9740 0.9720 0.9700
1653.324191 0.9730 0.9840 0.9890 0.9880 0.9800
1657.583142 0.9680 0.9640 0.9620 0.9620 0.9620
1661.842093 0.9620 0.9620 0.9640 0.9640 0.9620
1666.101044 0.9610 0.9600 0.9580 0.9580 0.9600
1670.359995 0.9640 0.9660 0.9660 0.9650 0.9620
1674.618946 0.9610 0.9610 0.9610 0.9600 0.9600
1678.877897 0.9600 0.9580 0.9580 0.9580 0.9580
1683.136848 0.9570 0.9570 0.9600 0.9640 0.9620
1687.395799 0.9610 0.9560 0.9540 0.9570 0.9580
1691.654750 0.9580 0.9560 0.9540 0.9560 0.9570
1695.913701 0.9570 0.9600 0.9610 0.9620 0.9620
1700.172652 0.9610 0.9610 0.9600 0.9560 0.9530
1704.431603 0.9500 0.9500 0.9500 0.9490 0.9440
1708.690554 0.9420 0.9420 0.9400 0.9360 0.9340
1712.949505 0.9340 0.9340 0.9330 0.9330 0.9320
1717.208456 0.9320 0.9300 0.9290 0.9220 0.9200
1721.467407 0.9120 0.9090 0.9090 0.9090 0.9100
1725.726358 0.9100 0.9120 0.9120 0.9120 0.9130
1729.985309 0.9160 0.9170 0.9180 0.9180 0.9200
1734.244260 0.9210 0.9210 0.9140 0.9120 0.9020
1738.503211 0.8900 0.8860 0.8810 0.8740 0.8680
1742.762162 0.8570 0.8520 0.8500 0.8450 0.8440
1747.021113 0.8440 0.8420 0.8420 0.8410 0.8400
1751.280064 0.8370 0.8330 0.8300 0.8290 0.8200
1755.539015 0.8140 0.8120 0.8090 0.8060 0.7980
1759.797966 0.7940 0.7880 0.7770 0.7650 0.7600
1764.056917 0.7520 0.7400 0.7280 0.7170 0.7050
1768.315869 0.6930 0.6690 0.6301 0.5741 0.5580
1772.574820 0.5408 0.4899 0.4419 0.4050 0.3800
1776.833771 0.3450 0.2930 0.2330 0.1701 0.1131
1781.092722 0.0889 0.0649 0.0450 0.0360 0.0300
1785.351673 0.0210 0.0160 0.0130 0.0120 0.0100
1789.610624 0.0100 0.0100 0.0120 0.0140 0.0170
1793.869575 0.0210 0.0240 0.0300 0.0300 0.0360
1798.128526 0.0370 0.0401 0.1011 0.1420 0.1770
1802.387477 0.2080 0.2330 0.2560 0.2780 0.3010
1806.646428 0.3251 0.3770 0.3941 0.4420 0.4810
1810.905379 0.5140 0.5700 0.5940 0.6140 0.6340
1815.164330 0.6530 0.6700 0.6930 0.7050 0.7140
1819.423281 0.7220 0.7380 0.7640 0.7920 0.7960
1823.682232 0.8060 0.8140 0.8220 0.8380 0.8490
1827.941183 0.8500 0.8520 0.8560 0.8680 0.8770
1832.200134 0.8800 0.8800 0.8810 0.8840 0.8860
1836.459085 0.8880 0.8920 0.8960 0.8970 0.8980
1840.718036 0.9000 0.9050 0.9120 0.9120 0.9130
1844.976987 0.9160 0.9180 0.9200 0.9200 0.9210
1849.235938 0.9210 0.9210 0.9210 0.9240 0.9260
1853.494889 0.9280 0.9290 0.9290 0.9300 0.9320
1857.753840 0.9320 0.9320 0.9320 0.9340 0.9370
1862.012791 0.9380 0.9380 0.9400 0.9400 0.9410
1866.271742 0.9410 0.9420 0.9420 0.9440 0.9440
1870.530693 0.9460 0.9480 0.9480 0.9480 0.9490
1874.789644 0.9500 0.9500 0.9500 0.9500 0.9500
1879.048595 0.9520 0.9530 0.9530 0.9530 0.9540
1883.307546 0.9540 0.9570 0.9570 0.9580 0.9580
1887.566497 0.9580 0.9600 0.9600 0.9600 0.9610
1891.825448 0.9610 0.9610 0.9610 0.9610 0.9610
1896.084399 0.9610 0.9620 0.9620 0.9620 0.9620
1900.343350 0.9620 0.9620 0.9620 0.9620 0.9620
1904.602302 0.9620 0.9620 0.9620 0.9620 0.9620
1908.861253 0.9620 0.9620 0.9620 0.9620 0.9620
1913.120204 0.9620 0.9620 0.9620 0.9620 0.9620
1917.379155 0.9620 0.9620 0.9620 0.9680 0.9690
1921.638106 0.9690 0.9690 0.9690 0.9690 0.9690
1925.897057 0.9690 0.9700 0.9700 0.9700 0.9700
1930.156008 0.9700 0.9700 0.9700 0.9700 0.9700
1934.414959 0.9720 0.9730 0.9730 0.9730 0.9730
1938.673910 0.9730 0.9730 0.9740 0.9760 0.9760
1942.932861 0.9740 0.9730 0.9700 0.9700 0.9690
1947.191812 0.9680 0.9680 0.9690 0.9690 0.9690
1951.450763 0.9690 0.9690 0.9690 0.9690 0.9680
1955.709714 0.9680 0.9680 0.9660 0.9660 0.9660
1959.968665 0.9660 0.9660 0.9650 0.9650 0.9650
1964.227616 0.9650 0.9650 0.9640 0.9640 0.9640
1968.486567 0.9640 0.9620 0.9620 0.9610 0.9600
1972.745518 0.9580 0.9570 0.9570 0.9560 0.9540
1977.004469 0.9540 0.9540 0.9540 0.9540 0.9560
1981.263420 0.9560 0.9570 0.9570 0.9570 0.9580
1985.522371 0.9580 0.9600 0.9600 0.9600 0.9600
1989.781322 0.9600 0.9620 0.9620 0.9620 0.9620
1994.040273 0.9610 0.9610 0.9600 0.9580 0.9580
1998.299224 0.9570 0.9570 0.9570 0.9570 0.9570
2002.558175 0.9570 0.9570 0.9570 0.9570 0.9570
2006.817126 0.9570 0.9575 0.9580 0.9580 0.9580
2011.076077 0.9580 0.9580 0.9580 0.9580 0.9580
2015.335028 0.9580 0.9580 0.9580 0.9580 0.9580
2019.593979 0.9590 0.9600 0.9605 0.9610 0.9610
2023.852930 0.9610 0.9610 0.9610 0.9615 0.9620
2028.111881 0.9629 0.9639 0.9649 0.9659 0.9674
2032.370832 0.9689 0.9704 0.9719 0.9729 0.9739
2036.629783 0.9740 0.9740 0.9731 0.9721 0.9706
2040.888734 0.9691 0.9690 0.9690 0.9686 0.9681
2045.147686 0.9684 0.9689 0.9694 0.9699 0.9700
2049.406637 0.9700 0.9709 0.9719 0.9724 0.9729
2053.665588 0.9730 0.9730 0.9730 0.9730 0.9730
2057.924539 0.9730 0.9730 0.9730 0.9730 0.9730
2062.183490 0.9734 0.9739 0.9740 0.9740 0.9740
2066.442441 0.9740 0.9736 0.9731 0.9730 0.9730
2070.701392 0.9692 0.9648 0.9677 0.9722 0.9734
2074.960343 0.9739 0.9740 0.9740 0.9752 0.9767
2079.219294 0.9770 0.9770 0.9770 0.9770 0.9770
2083.478245 0.9770 0.9770 0.9770 0.9770 0.9770
2087.737196 0.9770 0.9770 0.9770 0.9770 0.9770
2091.996147 0.9770 0.9770 0.9770 0.9770 0.9770
2096.255098 0.9766 0.9761 0.9760 0.9760 0.9760
2100.514049 0.9760 0.9752 0.9742 0.9736 0.9731
2104.773000 0.9730 0.9730 0.9726 0.9721 0.9720
2109.031951 0.9720 0.9720 0.9720 0.9727 0.9737
2113.290902 0.9747 0.9757 0.9764 0.9769 0.9770
2117.549853 0.9770 0.9770 0.9770 0.9770 0.9770
2121.808804 0.9766 0.9761 0.9749 0.9734 0.9719
2126.067755 0.9704 0.9697 0.9692 0.9690 0.9690
2130.326706 0.9690 0.9690 0.9693 0.9698 0.9697
2134.585657 0.9692 0.9687 0.9682 0.9680 0.9680
2138.844608 0.9673 0.9663 0.9660 0.9660 0.9660
2143.103559 0.9660 0.9660 0.9660 0.9660 0.9660
2147.362510 0.9660 0.9660 0.9660 0.9660 0.9660
2151.621461 0.9660 0.9666 0.9676 0.9683 0.9688
2155.880412 0.9690 0.9690 0.9690 0.9690 0.9693
2160.139363 0.9698 0.9700 0.9700 0.9694 0.9684
2164.398314 0.9680 0.9680 0.9683 0.9688 0.9693
2168.657265 0.9698 0.9700 0.9700 0.9706 0.9716
2172.916216 0.9720 0.9720 0.9720 0.9720 0.9720
2177.175167 0.9720 0.9723 0.9728 0.9730 0.9730
2181.434119 0.9730 0.9730 0.9730 0.9730 0.9730
2185.693070 0.9730 0.9730 0.9730 0.9733 0.9738
2189.952021 0.9748 0.9763 0.9770 0.9770 0.9762
2194.210972 0.9747 0.9740 0.9740 0.9740 0.9740
2198.469923 0.9745 0.9755 0.9763 0.9768 0.9770
2202.728874 0.9770 0.9770 0.9770 0.9773 0.9778
2206.987825 0.9780 0.9780 0.9780 0.9780 0.9780
2211.246776 0.9780 0.9780 0.9780 0.9780 0.9780
2215.505727 0.9780 0.9780 0.9778 0.9773 0.9768
2219.764678 0.9763 0.9760 0.9760 0.9762 0.9767
2224.023629 0.9770 0.9770 0.9770 0.9770 0.9768
2228.282580 0.9763 0.9760 0.9760 0.9762 0.9767
2232.541531 0.9768 0.9763 0.9756 0.9746 0.9736
2236.800482 0.9726 0.9720 0.9720 0.9716 0.9706
2241.059433 0.9700 0.9700 0.9700 0.9700 0.9700
2245.318384 0.9700 0.9700 0.9700 0.9698 0.9693
2249.577335 0.9690 0.9690 0.9688 0.9683 0.9680
2253.836286 0.9680 0.9680 0.9680 0.9676 0.9666
2258.095237 0.9660 0.9660 0.9660 0.9660 0.9658
2262.354188 0.9653 0.9648 0.9643 0.9640 0.9640
2266.613139 0.9640 0.9640 0.9640 0.9640 0.9636
2270.872090 0.9626 0.9611 0.9586 0.9568 0.9563
2275.131041 0.9560 0.9560 0.9560 0.9560 0.9560
2279.389992 0.9560 0.9557 0.9547 0.9538 0.9533
2283.648943 0.9530 0.9530 0.9528 0.9523 0.9520
2287.907894 0.9520 0.9520 0.9520 0.9520 0.9520
2292.166845 0.9520 0.9520 0.9520 0.9520 0.9522
2296.425796 0.9527 0.9530 0.9530 0.9530 0.9530
2300.684747 0.9531 0.9536 0.9543 0.9553 0.9560
2304.943698 0.9560 0.9560 0.9560 0.9560 0.9560
2309.202649 0.9560 0.9560 0.9560 0.9560 0.9560
2313.461600 0.9560 0.9561 0.9566 0.9570 0.9570
2317.720552 0.9570 0.9570 0.9571 0.9576 0.9584
2321.979503 0.9599 0.9611 0.9616 0.9622 0.9632
2326.238454 0.9642 0.9652 0.9664 0.9678 0.9700
2330.497405 0.9745 0.9780 0.9780 0.9778 0.9768
2334.756356 0.9747 0.9687 0.9637 0.9622 0.9609
2339.015307 0.9604 0.9596 0.9576 0.9560 0.9560
2343.274258 0.9569 0.9614 0.9654 0.9674 0.9694
2347.533209 0.9714 0.9730 0.9730 0.9733 0.9748
2351.792160 0.9760 0.9760 0.9758 0.9743 0.9729
2356.051111 0.9724 0.9721 0.9726 0.9738 0.9782
2360.310062 0.9822 0.9837 0.9856 0.9896 0.9932
2364.569013 0.9947 0.9960 0.9960 0.9959 0.9949
2368.827964 0.9940 0.9940 0.9937 0.9912 0.9889
2373.086915 0.9884 0.9879 0.9869 0.9859 0.9854
2377.345866 0.9849 0.9844 0.9838 0.9818 0.9799
2381.604817 0.9789 0.9780 0.9780 0.9780 0.9780
2385.863768 0.9780 0.9775 0.9770 0.9765 0.9760
2390.122719 0.9760 0.9760 0.9760 0.9760 0.9765
2394.381670 0.9770 0.9770 0.9770 0.9775 0.9780
2398.640621 0.9780 0.9780 0.9780 0.9779 0.9769
2402.899572 0.9759 0.9744 0.9729 0.9714 0.9701
2407.158523 0.9716 0.9731 0.9746 0.9760 0.9770
2411.417474 0.9780 0.9790 0.9800 0.9800 0.9800
2415.676425 0.9800 0.9800 0.9800 0.9800 0.9800
2419.935376 0.9800 0.9800 0.9800 0.9790 0.9780
2424.194327 0.9780 0.9780 0.9780 0.9780 0.9780
2428.453278 0.9780 0.9780 0.9780 0.9780 0.9780
2432.712229 0.9780 0.9780 0.9780 0.9780 0.9780
2436.971180 0.9780 0.9780 0.9780 0.9780 0.9780
2441.230131 0.9775 0.9770 0.9770 0.9770 0.9770
2445.489082 0.9770 0.9770 0.9770 0.9770 0.9770
2449.748033 0.9770 0.9770 0.9765 0.9760 0.9751
2454.006984 0.9741 0.9735 0.9730 0.9730 0.9730
2458.265936 0.9725 0.9720 0.9706 0.9691 0.9685
2462.524887 0.9680 0.9666 0.9651 0.9650 0.9650
2466.783838 0.9664 0.9679 0.9685 0.9690 0.9694
2471.042789 0.9699 0.9691 0.9681 0.9680 0.9680
2475.301740 0.9684 0.9689 0.9694 0.9699 0.9709
2479.560691 0.9719 0.9711 0.9701 0.9709 0.9719
2483.819642 0.9724 0.9729 0.9743 0.9758 0.9760
2488.078593 0.9760 0.9760 0.9760 0.9760 0.9760
2492.337544 0.9764 0.9769 0.9770 0.9770 0.9770
2496.596495 0.9770 0.9757 0.9742 0.9740 0.9740
2500.855446 0.9752 0.9767 0.9799 0.9834 0.9844
2505.114397 0.9849 0.9846 0.9841 0.9840 0.9840
2509.373348 0.9840 0.9840 0.9840 0.9840 0.9844
2513.632299 0.9849 0.9854 0.9859 0.9860 0.9860
2517.891250 0.9852 0.9842 0.9824 0.9804 0.9792
2522.150201 0.9782 0.9776 0.9771 0.9770 0.9770
2526.409152 0.9766 0.9761 0.9760 0.9760 0.9752
2530.668103 0.9742 0.9740 0.9740 0.9748 0.9758
2534.927054 0.9764 0.9769 0.9770 0.9770 0.9774
2539.186005 0.9779 0.9787 0.9797 0.9804 0.9809
2543.444956 0.9810 0.9810 0.9810 0.9810 0.9814
2547.703907 0.9819 0.9816 0.9811 0.9785 0.9750
2551.962858 0.9740 0.9740 0.9751 0.9766 0.9784
2556.221809 0.9804 0.9813 0.9818 0.9820 0.9820
2560.480760 0.9806 0.9786 0.9777 0.9772 0.9773
2564.739711 0.9778 0.9787 0.9797 0.9800 0.9800
2568.998662 0.9803 0.9808 0.9810 0.9810 0.9807
2573.257613 0.9802 0.9793 0.9784 0.9780 0.9780
2577.516564 0.9780 0.9780 0.9780 0.9780 0.9780
2581.775515 0.9780 0.9780 0.9780 0.9780 0.9780
2586.034466 0.9780 0.9780 0.9786 0.9796 0.9794
2590.293417 0.9784 0.9786 0.9796 0.9800 0.9800
2594.552369 0.9800 0.9800 0.9794 0.9784 0.9780
2598.811320 0.9780 0.9780 0.9780 0.9780 0.9780
2603.070271 0.9780 0.9780 0.9780 0.9780 0.9780
2607.329222 0.9780 0.9780 0.9780 0.9780 0.9780
2611.588173 0.9780 0.9780 0.9780 0.9780 0.9780
2615.847124 0.9780 0.9780 0.9780 0.9780 0.9780
2620.106075 0.9780 0.9780 0.9780 0.9780 0.9780
2624.365026 0.9780 0.9780 0.9780 0.9780 0.9780
2628.623977 0.9785 0.9795 0.9803 0.9808 0.9810
2632.882928 0.9810 0.9802 0.9787 0.9780 0.9780
2637.141879 0.9780 0.9780 0.9780 0.9780 0.9780
2641.400830 0.9780 0.9780 0.9780 0.9780 0.9780
2645.659781 0.9780 0.9780 0.9780 0.9780 0.9780
2649.918732 0.9780 0.9780 0.9780 0.9780 0.9780
2654.177683 0.9780 0.9780 0.9780 0.9780 0.9780
2658.436634 0.9780 0.9780 0.9780 0.9780 0.9780
2662.695585 0.9780 0.9780 0.9780 0.9780 0.9780
2666.954536 0.9780 0.9780 0.9780 0.9780 0.9780
2671.213487 0.9780 0.9780 0.9780 0.9780 0.9780
2675.472438 0.9780 0.9780 0.9780 0.9780 0.9780
2679.731389 0.9780 0.9780 0.9780 0.9780 0.9780
2683.990340 0.9780 0.9780 0.9780 0.9780 0.9780
2688.249291 0.9780 0.9780 0.9784 0.9794 0.9800
2692.508242 0.9800 0.9796 0.9786 0.9780 0.9780
2696.767193 0.9780 0.9780 0.9780 0.9780 0.9780
2701.026144 0.9780 0.9780 0.9780 0.9780 0.9780
2705.285095 0.9780 0.9780 0.9778 0.9773 0.9770
2709.544046 0.9770 0.9772 0.9777 0.9783 0.9793
2713.802997 0.9797 0.9787 0.9780 0.9780 0.9780
2718.061948 0.9780 0.9780 0.9780 0.9780 0.9780
2722.320899 0.9780 0.9780 0.9780 0.9780 0.9780
2726.579850 0.9780 0.9780 0.9780 0.9780 0.9780
2730.838801 0.9780 0.9780 0.9780 0.9780 0.9779
2735.097753 0.9774 0.9769 0.9764 0.9757 0.9747
2739.356704 0.9740 0.9740 0.9743 0.9753 0.9760
2743.615655 0.9760 0.9760 0.9760 0.9760 0.9760
2747.874606 0.9760 0.9760 0.9761 0.9766 0.9771
2752.133557 0.9776 0.9780 0.9780 0.9780 0.9780
2756.392508 0.9780 0.9780 0.9780 0.9780 0.9779
2760.651459 0.9774 0.9769 0.9764 0.9760 0.9760
2764.910410 0.9760 0.9760 0.9760 0.9760 0.9760
2769.169361 0.9760 0.9760 0.9760 0.9757 0.9742
2773.428312 0.9730 0.9730 0.9729 0.9724 0.9720
2777.687263 0.9720 0.9717 0.9702 0.9689 0.9684
2781.946214 0.9680 0.9680 0.9680 0.9680 0.9681
2786.205165 0.9686 0.9693 0.9707 0.9723 0.9743
2790.464116 0.9760 0.9760 0.9761 0.9766 0.9770
2794.723067 0.9770 0.9771 0.9776 0.9780 0.9780
2798.982018 0.9781 0.9791 0.9800 0.9800 0.9800
2803.240969 0.9800 0.9800 0.9800 0.9800 0.9800
2807.499920 0.9799 0.9789 0.9780 0.9780 0.9780
2811.758871 0.9780 0.9780 0.9780 0.9780 0.9780
2816.017822 0.9780 0.9780 0.9780 0.9775 0.9770
2820.276773 0.9770 0.9770 0.9770 0.9770 0.9775
2824.535724 0.9780 0.9780 0.9780 0.9780 0.9780
2828.794675 0.9780 0.9780 0.9780 0.9780 0.9780
2833.053626 0.9780 0.9780 0.9780 0.9780 0.9781
2837.312577 0.9791 0.9800 0.9800 0.9800 0.9800
2841.571528 0.9800 0.9800 0.9800 0.9805 0.9810
2845.830479 0.9810 0.9810 0.9810 0.9810 0.9810
2850.089430 0.9810 0.9805 0.9800 0.9800 0.9800
2854.348381 0.9790 0.9780 0.9770 0.9760 0.9750
2858.607332 0.9740 0.9720 0.9700 0.9690 0.9680
2862.866283 0.9665 0.9650 0.9650 0.9650 0.9645
2867.125234 0.9640 0.9630 0.9620 0.9620 0.9620
2871.384186 0.9620 0.9620 0.9610 0.9600 0.9586
2875.643137 0.9571 0.9565 0.9560 0.9551 0.9541
2879.902088 0.9521 0.9501 0.9477 0.9452 0.9436
2884.161039 0.9421 0.9397 0.9372 0.9356 0.9341
2888.419990 0.9335 0.9330 0.9325 0.9320 0.9311
2892.678941 0.9301 0.9295 0.9290 0.9290 0.9290
2896.937892 0.9295 0.9299 0.9309 0.9319 0.9324
2901.196843 0.9329 0.9343 0.9358 0.9369 0.9379
2905.455794 0.9389 0.9399 0.9404 0.9409 0.9406
2909.714745 0.9401 0.9383 0.9363 0.9351 0.9341
2913.973696 0.9323 0.9303 0.9300 0.9300 0.9274
2918.232647 0.9245 0.9189 0.9129 0.9069 0.9009
2922.491598 0.8906 0.8797 0.8738 0.8688 0.8571
2926.750549 0.8441 0.8353 0.8274 0.8260 0.8260
2931.009500 0.8276 0.8296 0.8329 0.8363 0.8374
2935.268451 0.8379 0.8388 0.8398 0.8416 0.8436
2939.527402 0.8473 0.8512 0.8572 0.8637 0.8678
2943.786353 0.8713 0.8744 0.8774 0.8788 0.8798
2948.045304 0.8804 0.8809 0.8806 0.8801 0.8792
2952.304255 0.8782 0.8765 0.8745 0.8717 0.8687
2956.563206 0.8649 0.8609 0.8569 0.8529 0.8474
2960.822157 0.8415 0.8343 0.8269 0.8175 0.8075
2965.081108 0.8024 0.7989 0.7928 0.7859 0.7767
2969.340059 0.7667 0.7498 0.7304 0.7239 0.7224
2973.599010 0.7231 0.7246 0.7323 0.7422 0.7454
2977.857961 0.7459 0.7539 0.7648 0.7744 0.7834
2982.116912 0.7913 0.7988 0.8062 0.8137 0.8191
2986.375863 0.8236 0.8253 0.8258 0.8260 0.8260
2990.634814 0.8257 0.8252 0.8233 0.8208 0.8180
2994.893765 0.8150 0.8113 0.8073 0.8033 0.7993
2999.152716 0.7950 0.7905 0.7828 0.7733 0.7671
3003.411667 0.7626 0.7574 0.7520 0.7500 0.7500
3007.670618 0.7523 0.7558 0.7661 0.7800 0.7917
3011.929570 0.8022 0.8133 0.8248 0.8400 0.8575
3016.188521 0.8671 0.8721 0.8765 0.8805 0.8890
3020.447472 0.9005 0.9077 0.9122 0.9164 0.9205
3024.706423 0.9241 0.9276 0.9305 0.9330 0.9358
3028.965374 0.9388 0.9406 0.9416 0.9429 0.9444
3033.224325 0.9459 0.9474 0.9483 0.9488 0.9493
3037.483276 0.9498 0.9509 0.9523 0.9533 0.9538
3041.742227 0.9549 0.9564 0.9570 0.9570 0.9573
3046.001178 0.9578 0.9580 0.9580 0.9580 0.9580
3050.260129 0.9585 0.9595 0.9600 0.9600 0.9600
3054.519080 0.9600 0.9603 0.9608 0.9610 0.9610
3058.778031 0.9610 0.9610 0.9613 0.9618 0.9625
3063.036982 0.9635 0.9643 0.9648 0.9650 0.9650
3067.295933 0.9650 0.9650 0.9648 0.9643 0.9640
3071.554884 0.9640 0.9642 0.9647 0.9650 0.9650
3075.813835 0.9650 0.9650 0.9648 0.9643 0.9640
3080.072786 0.9640 0.9645 0.9655 0.9665 0.9675
3084.331737 0.9680 0.9680 0.9682 0.9687 0.9690
3088.590688 0.9690 0.9690 0.9690 0.9690 0.9690
3092.849639 0.9692 0.9697 0.9704 0.9714 0.9720
3097.108590 0.9720 0.9720 0.9720 0.9720 0.9720
3101.367541 0.9722 0.9727 0.9732 0.9737 0.9740
3105.626492 0.9740 0.9744 0.9754 0.9760 0.9760
3109.885443 0.9760 0.9760 0.9762 0.9767 0.9772
3114.144394 0.9777 0.9780 0.9780 0.9780 0.9780
3118.403345 0.9780 0.9780 0.9780 0.9780 0.9778
3122.662296 0.9773 0.9770 0.9770 0.9770 0.9770
3126.921247 0.9770 0.9770 0.9770 0.9770 0.9768
3131.180198 0.9763 0.9764 0.9774 0.9780 0.9780
3135.439149 0.9780 0.9780 0.9780 0.9780 0.9780
3139.698100 0.9780 0.9778 0.9773 0.9765 0.9750
3143.957051 0.9740 0.9740 0.9745 0.9760 0.9776
3148.216003 0.9796 0.9812 0.9817 0.9818 0.9813
3152.474954 0.9804 0.9784 0.9769 0.9764 0.9761
3156.733905 0.9766 0.9774 0.9789 0.9801 0.9806
3160.992856 0.9811 0.9816 0.9817 0.9807 0.9797
3165.251807 0.9787 0.9783 0.9793 0.9801 0.9806
3169.510758 0.9811 0.9816 0.9823 0.9833 0.9840
3173.769709 0.9840 0.9841 0.9846 0.9850 0.9850
3178.028660 0.9850 0.9850 0.9850 0.9850 0.9851
3182.287611 0.9856 0.9860 0.9860 0.9858 0.9848
3186.546562 0.9838 0.9828 0.9822 0.9832 0.9840
3190.805513 0.9840 0.9841 0.9846 0.9850 0.9850
3195.064464 0.9850 0.9850 0.9850 0.9850 0.9851
3199.323415 0.9856 0.9860 0.9860 0.9862 0.9872
3203.582366 0.9881 0.9886 0.9890 0.9890 0.9890
3207.841317 0.9890 0.9891 0.9896 0.9900 0.9900
3212.100268 0.9899 0.9894 0.9890 0.9890 0.9890
3216.359219 0.9890 0.9890 0.9890 0.9890 0.9890
3220.618170 0.9890 0.9890 0.9889 0.9884 0.9880
3224.877121 0.9880 0.9881 0.9891 0.9900 0.9900
3229.136072 0.9899 0.9894 0.9890 0.9890 0.9891
3233.395023 0.9896 0.9900 0.9900 0.9900 0.9900
3237.653974 0.9900 0.9900 0.9900 0.9900 0.9901
3241.912925 0.9911 0.9920 0.9925 0.9930 0.9930
3246.171876 0.9930 0.9930 0.9930 0.9930 0.9930
3250.430827 0.9930 0.9930 0.9930 0.9930 0.9930
3254.689778 0.9930 0.9930 0.9930 0.9935 0.9940
3258.948729 0.9940 0.9939 0.9930 0.9919 0.9888
3263.207680 0.9860 0.9860 0.9861 0.9881 0.9901
3267.466631 0.9916 0.9930 0.9930 0.9930 0.9935
3271.725582 0.9940 0.9950 0.9960 0.9960 0.9960
3275.984533 0.9950 0.9940 0.9950 0.9960 0.9965
3280.243484 0.9970 0.9975 0.9980 0.9990 1.0000
3284.502435 1.0000 1.0000 1.0000 1.0000 1.0005
3288.761387 1.0010 1.0010 1.0010 1.0010 1.0010
3293.020338 1.0005 1.0000 1.0000 1.0000 0.9981
3297.279289 0.9960 0.9950 0.9940 0.9950 0.9960
3301.538240 0.9965 0.9970 0.9975 0.9980 0.9990
3305.797191 1.0000 1.0000 1.0000 1.0005 1.0010
3310.056142 1.0010 1.0010 1.0005 1.0000 0.9991
3314.315093 0.9981 0.9980 0.9980 0.9975 0.9970
3318.574044 0.9970 0.9970 0.9970 0.9970 0.9970
3322.832995 0.9970 0.9975 0.9980 0.9994 1.0009
3327.091946 1.0010 1.0010 1.0010 1.0010 1.0006
3331.350897 1.0000 0.9991 0.9981 0.9993 1.0008
3335.609848 1.0014 1.0019 1.0016 1.0011 1.0010
3339.868799 1.0010 1.0006 1.0001 1.0000 1.0000
3344.127750 1.0000 1.0000 0.9992 0.9982 0.9976
3348.386701 0.9971 0.9970 0.9970 0.9940 0.9905
3352.645652 0.9900 0.9900 0.9917 0.9937 0.9940
3356.904603 0.9940 0.9948 0.9958 0.9964 0.9969
3361.163554 0.9970 0.9970 0.9982 0.9997 1.0000
3365.422505 1.0000 1.0004 1.0009 1.0010 1.0010
3369.681456 1.0006 1.0001 0.9992 0.9982 0.9976
3373.940407 0.9971 0.9966 0.9961 0.9968 0.9978
3378.199358 0.9992 1.0007 1.0010 1.0010 1.0010
3382.458309 1.0010 1.0010 1.0010 1.0006 1.0001
3386.717260 1.0000 1.0000 1.0000 1.0000 1.0019
3390.976211 1.0044 1.0046 1.0041 1.0033 1.0023
3395.235162 1.0013 1.0003 0.9985 0.9965 0.9953
3399.494113 0.9943 0.9981 1.0035 1.0054 1.0059
3403.753064 1.0060 1.0060 1.0056 1.0051 1.0046
3408.012015 1.0041 1.0033 1.0023 1.0013 1.0003
3412.270966 0.9993 0.9983 0.9963 0.9938 0.9930
3416.529917 0.9930 0.9920 0.9905 0.9900 0.9900
3420.788868 0.9921 0.9951 0.9967 0.9977 0.9990
3425.047820 1.0005 1.0010 1.0010 1.0013 1.0018
3429.306771 1.0017 1.0012 1.0010 1.0010 1.0007
3433.565722 1.0002 0.9993 0.9983 0.9980 0.9980
3437.824673 0.9977 0.9972 0.9973 0.9978 0.9986
3442.083624 0.9996 1.0006 1.0016 1.0020 1.0020
3446.342575 1.0020 1.0020 1.0017 1.0012 1.0010
3450.601526 1.0010 1.0007 1.0002 1.0000 1.0000
3454.860477 1.0000 1.0000 0.9994 0.9984 0.9980
3459.119428 0.9980 0.9980 0.9980 0.9980 0.9980
3463.378379 0.9977 0.9972 0.9961 0.9946 0.9937
3467.637330 0.9932 0.9930 0.9930 0.9930 0.9930
3471.896281 0.9933 0.9938 0.9940 0.9940 0.9940
3476.155232 0.9940 0.9940 0.9940 0.9940 0.9940
3480.414183 0.9937 0.9932 0.9927 0.9922 0.9920
3484.673134 0.9920 0.9920 0.9920 0.9920 0.9920
3488.932085 0.9920 0.9920 0.9915 0.9905 0.9900
3493.191036 0.9900 0.9900 0.9900 0.9900 0.9900
3497.449987 0.9900 0.9900 0.9900 0.9900 0.9900
3501.708938 0.9900 0.9900 0.9900 0.9898 0.9893
3505.967889 0.9890 0.9890 0.9890 0.9890 0.9890
3510.226840 0.9890 0.9888 0.9883 0.9875 0.9865
3514.485791 0.9860 0.9860 0.9860 0.9860 0.9858
3518.744742 0.9853 0.9850 0.9850 0.9850 0.9850
3523.003693 0.9848 0.9843 0.9840 0.9840 0.9836
3527.262644 0.9826 0.9820 0.9820 0.9816 0.9806
3531.521595 0.9794 0.9779 0.9760 0.9735 0.9720
3535.780546 0.9720 0.9720 0.9720 0.9716 0.9706
3540.039497 0.9696 0.9686 0.9672 0.9652 0.9632
3544.298448 0.9612 0.9594 0.9579 0.9570 0.9570
3548.557399 0.9564 0.9549 0.9536 0.9526 0.9516
3552.816350 0.9506 0.9498 0.9493 0.9490 0.9490
3557.075301 0.9492 0.9497 0.9507 0.9527 0.9547
3561.334253 0.9567 0.9587 0.9607 0.9625 0.9640
3565.593204 0.9650 0.9650 0.9650 0.9650 0.9657
3569.852155 0.9677 0.9697 0.9717 0.9735 0.9750
3574.111106 0.9762 0.9767 0.9770 0.9770 0.9770
3578.370057 0.9770 0.9770 0.9770 0.9775 0.9790
3582.629008 0.9803 0.9813 0.9823 0.9833 0.9840
3586.887959 0.9840 0.9840 0.9840 0.9841 0.9846
3591.146910 0.9850 0.9850 0.9850 0.9850 0.9850
3595.405861 0.9850 0.9850 0.9850 0.9850 0.9850
3599.664812 0.9850 0.9850 0.9854 0.9869 0.9881
3603.923763 0.9886 0.9891 0.9896 0.9900 0.9900
3608.182714 0.9900 0.9900 0.9900 0.9900 0.9900
3612.441665 0.9900 0.9899 0.9894 0.9890 0.9890
3616.700616 0.9887 0.9872 0.9860 0.9860 0.9864
3620.959567 0.9884 0.9907 0.9937 0.9964 0.9984
3625.218518 0.9997 0.9982 0.9969 0.9964 0.9957
3629.477469 0.9942 0.9922 0.9882 0.9850 0.9850
3633.736420 0.9853 0.9868 0.9882 0.9892 0.9902
3637.995371 0.9912 0.9920 0.9920 0.9921 0.9926
3642.254322 0.9929 0.9924 0.9914 0.9879 0.9849
3646.513273 0.9844 0.9842 0.9852 0.9864 0.9894
3650.772224 0.9920 0.9920 0.9918 0.9903 0.9889
3655.031175 0.9884 0.9881 0.9886 0.9892 0.9907
3659.290126 0.9921 0.9931 0.9942 0.9957 0.9972
3663.549077 0.9992 1.0010 1.0010 1.0011 1.0015
3667.808028 1.0020 1.0020 1.0020 1.0015 1.0010
3672.066979 1.0010 1.0010 1.0005 0.9999 0.9984
3676.325930 0.9970 0.9965 0.9959 0.9949 0.9940
3680.584881 0.9935 0.9930 0.9930 0.9929 0.9909
3684.843832 0.9890 0.9885 0.9879 0.9869 0.9860
3689.102783 0.9855 0.9850 0.9850 0.9850 0.9845
3693.361734 0.9839 0.9830 0.9820 0.9815 0.9810
3697.620685 0.9810 0.9810 0.9815 0.9821 0.9841
3701.879637 0.9860 0.9880 0.9900 0.9910 0.9920
3706.138588 0.9905 0.9890 0.9875 0.9860 0.9860
3710.397539 0.9860 0.9900 0.9940 0.9955 0.9970
3714.656490 0.9985 1.0000 0.9985 0.9970 0.9950
3718.915441 0.9930 0.9915 0.9900 0.9954 1.0008
3723.174392 1.0010 1.0010 1.0005 1.0000 0.9971
3727.433343 0.9941 0.9935 0.9930 0.9988 1.0048
3731.692294 1.0055 1.0060 1.0070 1.0080 1.0085
3735.951245 1.0090 1.0090 1.0090 1.0085 1.0080
3740.210196 1.0080 1.0080 1.0071 1.0061 1.0055
3744.469147 1.0050 1.0045 1.0040 1.0031 1.0021
3748.728098 1.0011 1.0001 0.9991 0.9981 0.9975
3752.987049 0.9970 0.9965 0.9961 0.9960 0.9960
3757.246000 0.9951 0.9941 0.9940 0.9940 0.9936
3761.504951 0.9931 0.9930 0.9930 0.9930 0.9930
3765.763902 0.9930 0.9930 0.9934 0.9939 0.9940
3770.022853 0.9940 0.9949 0.9959 0.9960 0.9960
3774.281804 0.9960 0.9960 0.9960 0.9960 0.9960
3778.540755 0.9960 0.9960 0.9960 0.9960 0.9960
3782.799706 0.9960 0.9960 0.9960 0.9960 0.9960
3787.058657 0.9960 0.9960 0.9960 0.9960 0.9960
3791.317608 0.9960 0.9960 0.9960 0.9960 0.9960
3795.576559 0.9960 0.9960 0.9960
##END=
