##TITLE=Cyclopentanone
##JCAMP-DX=4.24
##DATA TYPE=INFRARED SPECTRUM
##CLASS=COBLENTZ III
##ORIGIN=WESTERN REGIONAL RES. USDA
##OWNER=Copyright (C) 1987 by the Coblentz Society
Collection (C) 2018 copyright by the U.S. Secretary of Commerce
on behalf of the United States of America. All rights reserved.
##DATE=1967/12/13
##CAS REGISTRY NO=120-92-3
##MOLFORM=C5 H8 O
##BP=125 C AT 630 mmHg
##SOURCE REFERENCE=COBLENTZ NO. 5857
##$NIST SOURCE=COBLENTZ
##$NIST IMAGE=cob5857
##SPECTROMETER/DATA SYSTEM=CARY 90 (GRATING)
##INSTRUMENT PARAMETERS=ORDER CHANGES: 3000, 2000, 1200 CM^-^1
##STATE=SOLUTION (10% CCl4 FOR 4000-1330, 10% CS2 FOR 1330-450 CM^-^1) VS SOLVENT
##PATH LENGTH=0.010 CM, AND 0.010 CM
##RESOLUTION=2
##XUNITS=1/CM
##YUNITS=TRANSMITTANCE
##XFACTOR=1.0
##YFACTOR=1
##FIRSTX=460
##LASTX=3998
##FIRSTY=0.6744
##MAXX=3998
##MINX=460
##MAXY=0.9576
##MINY=0.0053
##NPOINTS=3539
##XYDATA=(X++(Y..Y))
460.000000 0.6744 0.6524 0.6304 0.6085 0.5865
465.000000 0.5645 0.5425 0.5206 0.4986 0.4766
470.000000 0.4547 0.4327 0.4134 0.4145 0.4155
475.000000 0.4916 0.5677 0.6437 0.7198 0.7769
480.000000 0.7921 0.7986 0.8050 0.8115 0.8175
485.000000 0.8232 0.8288 0.8344 0.8400 0.8456
490.000000 0.8512 0.8568 0.8621 0.8674 0.8728
495.000000 0.8752 0.8793 0.8822 0.8851 0.8880
500.000000 0.8910 0.8941 0.8972 0.9003 0.9034
505.000000 0.9050 0.9061 0.9073 0.9085 0.9096
510.000000 0.9108 0.9113 0.9115 0.9117 0.9119
515.000000 0.9121 0.9122 0.9122 0.9123 0.9123
520.000000 0.9123 0.9123 0.9123 0.9123 0.9117
525.000000 0.9112 0.9106 0.9101 0.9095 0.9090
530.000000 0.9077 0.9060 0.9043 0.9026 0.9010
535.000000 0.8993 0.8976 0.8953 0.8924 0.8895
540.000000 0.8866 0.8838 0.8809 0.8780 0.8752
545.000000 0.8723 0.8694 0.8665 0.8634 0.8596
550.000000 0.8557 0.8519 0.8480 0.8442 0.8403
555.000000 0.8365 0.8327 0.8287 0.8243 0.8200
560.000000 0.8157 0.8114 0.8070 0.8027 0.7984
565.000000 0.7941 0.7900 0.7858 0.7817 0.7776
570.000000 0.7734 0.7693 0.7651 0.7610 0.7497
575.000000 0.7357 0.7217 0.7077 0.6937 0.6796
580.000000 0.6656 0.6523 0.6529 0.6528 0.6630
585.000000 0.6860 0.7090 0.7320 0.7550 0.7780
590.000000 0.8010 0.8155 0.8330 0.8404 0.8479
595.000000 0.8542 0.8594 0.8646 0.8698 0.8751
600.000000 0.8796 0.8834 0.8871 0.8909 0.8947
605.000000 0.8984 0.9022 0.9046 0.9067 0.9087
610.000000 0.9107 0.9127 0.9148 0.9168 0.9188
615.000000 0.9204 0.9216 0.9228 0.9241 0.9253
620.000000 0.9266 0.9278 0.9291 0.9303 0.9311
625.000000 0.9319 0.9327 0.9336 0.9344 0.9382
630.000000 0.9360 0.9368 0.9376 0.9377 0.9374
635.000000 0.9371 0.9369 0.9366 0.9363 0.9360
640.000000 0.9357 0.9346 0.9332 0.9319 0.9306
645.000000 0.9292 0.9279 0.9266 0.9252 0.9226
650.000000 0.9195 0.9163 0.9131 0.9099 0.9067
655.000000 0.9047 0.9049 0.9066 0.9054 0.9057
660.000000 0.9102 0.9211 0.9294 0.9362 0.9412
665.000000 0.9425 0.9437 0.9450 0.9466 0.9482
670.000000 0.9490 0.9498 0.9505 0.9576 0.9518
675.000000 0.9525 0.9532 0.9536 0.9533 0.9530
680.000000 0.9528 0.9525 0.9523 0.9520 0.9517
685.000000 0.9508 0.9500 0.9491 0.9483 0.9474
690.000000 0.9465 0.9457 0.9448 0.9438 0.9426
695.000000 0.9415 0.9404 0.9392 0.9381 0.9370
700.000000 0.9358 0.9347 0.9336 0.9324 0.9313
705.000000 0.9302 0.9293 0.9284 0.9275 0.9267
710.000000 0.9260 0.9271 0.9239 0.9294 0.9307
715.000000 0.9319 0.9332 0.9344 0.9356 0.9369
720.000000 0.9386 0.9411 0.9432 0.9438 0.9444
725.000000 0.9449 0.9455 0.9461 0.9466 0.9470
730.000000 0.9473 0.9476 0.9478 0.9481 0.9484
735.000000 0.9487 0.9489 0.9492 0.9495 0.9497
740.000000 0.9498 0.9499 0.9499 0.9500 0.9501
745.000000 0.9501 0.9500 0.9496 0.9505 0.9488
750.000000 0.9484 0.9480 0.9476 0.9472 0.9468
755.000000 0.9464 0.9460 0.9456 0.9452 0.9448
760.000000 0.9444 0.9440 0.9433 0.9426 0.9419
765.000000 0.9412 0.9406 0.9399 0.9392 0.9385
770.000000 0.9378 0.9371 0.9364 0.9356 0.9345
775.000000 0.9334 0.9322 0.9311 0.9299 0.9288
780.000000 0.9277 0.9265 0.9254 0.9235 0.9217
785.000000 0.9199 0.9180 0.9162 0.9144 0.9126
790.000000 0.9107 0.9089 0.9060 0.9020 0.8979
795.000000 0.8939 0.8898 0.8858 0.8817 0.8746
800.000000 0.8540 0.8333 0.8127 0.7928 0.7928
805.000000 0.7928 0.7929 0.7929 0.7957 0.8009
810.000000 0.8070 0.8126 0.8183 0.8239 0.8296
815.000000 0.8352 0.8348 0.8340 0.8327 0.8327
820.000000 0.8296 0.7977 0.7657 0.7337 0.7018
825.000000 0.6698 0.6378 0.6059 0.5739 0.5419
830.000000 0.5100 0.4780 0.4603 0.4604 0.4606
835.000000 0.4633 0.4986 0.5370 0.5755 0.6140
840.000000 0.6524 0.6909 0.7294 0.7678 0.8063
845.000000 0.8383 0.8485 0.8597 0.8740 0.8812
850.000000 0.8876 0.8940 0.8998 0.9047 0.9096
855.000000 0.9143 0.9171 0.9199 0.9228 0.9256
860.000000 0.9264 0.9270 0.9277 0.9308 0.9289
865.000000 0.9291 0.9293 0.9295 0.9296 0.9296
870.000000 0.9296 0.9296 0.9295 0.9290 0.9285
875.000000 0.9281 0.9276 0.9269 0.9258 0.9248
880.000000 0.9238 0.9228 0.9217 0.9207 0.9193
885.000000 0.9175 0.9157 0.9140 0.9122 0.9106
890.000000 0.9094 0.9081 0.9069 0.9057 0.9045
895.000000 0.9033 0.9043 0.9058 0.9073 0.9089
900.000000 0.9091 0.9092 0.9075 0.9022 0.8965
905.000000 0.8797 0.8656 0.8553 0.8498 0.8444
910.000000 0.8405 0.8386 0.8367 0.8343 0.8367
915.000000 0.8374 0.8382 0.8406 0.8502 0.8599
920.000000 0.8695 0.8792 0.8889 0.8985 0.8992
925.000000 0.8989 0.8983 0.9003 0.8964 0.8949
930.000000 0.8935 0.8920 0.8905 0.8879 0.8848
935.000000 0.8817 0.8783 0.8740 0.8698 0.8643
940.000000 0.8579 0.8514 0.8449 0.8371 0.8279
945.000000 0.8188 0.8096 0.7998 0.7886 0.7774
950.000000 0.7542 0.7221 0.6911 0.6281 0.5652
955.000000 0.5023 0.4393 0.3764 0.3210 0.3185
960.000000 0.3183 0.3250 0.3866 0.4482 0.5098
965.000000 0.5713 0.6329 0.6945 0.7561 0.8016
970.000000 0.8102 0.8177 0.8252 0.8335 0.8422
975.000000 0.8543 0.8801 0.8973 0.9072 0.9119
980.000000 0.9166 0.9212 0.9246 0.9266 0.9286
985.000000 0.9306 0.9327 0.9338 0.9341 0.9345
990.000000 0.9348 0.9352 0.9355 0.9358 0.9360
995.000000 0.9356 0.9434 0.9350 0.9346 0.9343
1000.000000 0.9339 0.9336 0.9326 0.9314 0.9301
1005.000000 0.9289 0.9277 0.9265 0.9259 0.9267
1010.000000 0.9275 0.9276 0.9264 0.9224 0.9176
1015.000000 0.9138 0.9101 0.9064 0.8992 0.8868
1020.000000 0.8507 0.8504 0.8506 0.8506 0.8519
1025.000000 0.8537 0.8583 0.8630 0.8691 0.8751
1030.000000 0.8808 0.8859 0.8910 0.8956 0.8991
1035.000000 0.9027 0.9063 0.9096 0.9119 0.9141
1040.000000 0.9164 0.9186 0.9199 0.9209 0.9219
1045.000000 0.9222 0.9219 0.9217 0.9215 0.9213
1050.000000 0.9211 0.9204 0.9196 0.9189 0.9182
1055.000000 0.9175 0.9168 0.9160 0.9151 0.9142
1060.000000 0.9133 0.9125 0.9116 0.9107 0.9098
1065.000000 0.9153 0.9091 0.9092 0.9094 0.9095
1070.000000 0.9096 0.9098 0.9099 0.9100 0.9102
1075.000000 0.9103 0.9104 0.9111 0.9122 0.9133
1080.000000 0.9144 0.9156 0.9167 0.9178 0.9189
1085.000000 0.9206 0.9226 0.9246 0.9252 0.9242
1090.000000 0.9233 0.9217 0.9198 0.9180 0.9161
1095.000000 0.9141 0.9121 0.9101 0.9081 0.9056
1100.000000 0.9028 0.9000 0.8972 0.8944 0.8916
1105.000000 0.8887 0.8858 0.8830 0.8801 0.8772
1110.000000 0.8743 0.8715 0.8674 0.8630 0.8587
1115.000000 0.8544 0.8501 0.8436 0.8364 0.8293
1120.000000 0.8222 0.8150 0.7995 0.7774 0.7559
1125.000000 0.7353 0.7146 0.6656 0.6440 0.6200
1130.000000 0.5340 0.5085 0.4936 0.4569 0.4129
1135.000000 0.3689 0.3248 0.2808 0.2368 0.1927
1140.000000 0.1602 0.1433 0.1269 0.1063 0.0854
1145.000000 0.0751 0.0647 0.0544 0.0451 0.0361
1150.000000 0.0328 0.0334 0.0335 0.0344 0.0353
1155.000000 0.0571 0.1041 0.1512 0.1983 0.2453
1160.000000 0.2924 0.3394 0.3865 0.4336 0.4787
1165.000000 0.4806 0.4824 0.4889 0.4976 0.5062
1170.000000 0.5149 0.5236 0.5323 0.5410 0.5470
1175.000000 0.5475 0.5479 0.5484 0.5489 0.5494
1180.000000 0.5499 0.5529 0.5707 0.5885 0.6063
1185.000000 0.6241 0.6419 0.6597 0.6775 0.6953
1190.000000 0.7111 0.7216 0.7322 0.7405 0.7488
1195.000000 0.7560 0.7613 0.7666 0.7718 0.7775
1200.000000 0.7832 0.7882 0.7916 0.7937 0.7945
1205.000000 0.7953 0.7961 0.7969 0.7978 0.7987
1210.000000 0.8038 0.8118 0.8198 0.8278 0.8358
1215.000000 0.8385 0.8369 0.8377 0.8363 0.8344
1220.000000 0.8307 0.8248 0.8181 0.8059 0.7828
1225.000000 0.7597 0.7367 0.7136 0.7062 0.7058
1230.000000 0.7054 0.7048 0.7286 0.7486 0.7686
1235.000000 0.7885 0.7985 0.8026 0.8068 0.8102
1240.000000 0.8128 0.8145 0.8151 0.8153 0.8152
1245.000000 0.8207 0.8151 0.8140 0.8127 0.8114
1250.000000 0.8074 0.8022 0.7938 0.7854 0.7759
1255.000000 0.7548 0.7244 0.6939 0.6635 0.6330
1260.000000 0.6026 0.5721 0.5616 0.5627 0.5642
1265.000000 0.5748 0.5855 0.5961 0.6068 0.6174
1270.000000 0.6281 0.6388 0.6351 0.6320 0.6116
1275.000000 0.5912 0.5708 0.5504 0.5459 0.5440
1280.000000 0.5443 0.5578 0.5714 0.5850 0.5924
1285.000000 0.5986 0.6037 0.6077 0.6177 0.6360
1290.000000 0.6542 0.6725 0.6907 0.7090 0.7272
1295.000000 0.7455 0.7637 0.7820 0.7933 0.7933
1300.000000 0.7933 0.7936 0.7957 0.7942 0.7850
1305.000000 0.7665 0.7479 0.7294 0.7109 0.6924
1310.000000 0.6739 0.6553 0.6368 0.6319 0.6326
1315.000000 0.6329 0.6782 0.7338 0.7893 0.8074
1320.000000 0.8151 0.8228 0.8279 0.8327 0.8375
1325.000000 0.8414 0.8448 0.8481 0.8506 0.8523
1330.000000 0.8540 0.8556 0.8562 0.8568 0.8574
1335.000000 0.8580 0.8586 0.8606 0.8625 0.8645
1340.000000 0.8665 0.8685 0.8713 0.8741 0.8764
1345.000000 0.8763 0.8763 0.8762 0.8762 0.8757
1350.000000 0.8748 0.8740 0.8732 0.8728 0.8727
1355.000000 0.8726 0.8725 0.8723 0.8730 0.8739
1360.000000 0.8690 0.8757 0.8766 0.8775 0.8793
1365.000000 0.8824 0.8818 0.8812 0.8795 0.8764
1370.000000 0.8736 0.8708 0.8669 0.8628 0.8589
1375.000000 0.8550 0.8511 0.8472 0.8427 0.8382
1380.000000 0.8338 0.8293 0.8246 0.8188 0.8130
1385.000000 0.8071 0.8013 0.7954 0.7896 0.7835
1390.000000 0.7768 0.7701 0.7633 0.7566 0.7499
1395.000000 0.7421 0.7289 0.7157 0.7026 0.6894
1400.000000 0.6764 0.6634 0.6093 0.5504 0.4916
1405.000000 0.4327 0.3739 0.3150 0.2598 0.2598
1410.000000 0.2594 0.2593 0.2607 0.3042 0.3477
1415.000000 0.3911 0.4346 0.4781 0.5216 0.5650
1420.000000 0.6085 0.6520 0.6958 0.7124 0.7261
1425.000000 0.7383 0.7501 0.7619 0.7743 0.7881
1430.000000 0.8005 0.8060 0.8115 0.8169 0.8193
1435.000000 0.8211 0.8230 0.8249 0.8260 0.8250
1440.000000 0.8250 0.8251 0.8245 0.8238 0.8232
1445.000000 0.7950 0.7656 0.7363 0.7069 0.6775
1450.000000 0.6481 0.6187 0.5893 0.5306 0.5313
1455.000000 0.5313 0.5307 0.5500 0.6033 0.6567
1460.000000 0.7100 0.7634 0.7917 0.7923 0.7905
1465.000000 0.7771 0.7625 0.7479 0.7333 0.7186
1470.000000 0.7040 0.6972 0.6993 0.7181 0.7414
1475.000000 0.7646 0.7879 0.8111 0.8344 0.8397
1480.000000 0.8419 0.8436 0.8447 0.8457 0.8468
1485.000000 0.8478 0.8489 0.8500 0.8510 0.8521
1490.000000 0.8532 0.8542 0.8553 0.8563 0.8570
1495.000000 0.8577 0.8584 0.8592 0.8599 0.8606
1500.000000 0.8613 0.8620 0.8624 0.8628 0.8633
1505.000000 0.8637 0.8639 0.8639 0.8640 0.8640
1510.000000 0.8641 0.8641 0.8642 0.8642 0.8643
1515.000000 0.8643 0.8642 0.8587 0.8641 0.8640
1520.000000 0.8639 0.8639 0.8638 0.8637 0.8636
1525.000000 0.8635 0.8635 0.8634 0.8633 0.8632
1530.000000 0.8632 0.8631 0.8630 0.8629 0.8628
1535.000000 0.8628 0.8627 0.8626 0.8625 0.8625
1540.000000 0.8624 0.8624 0.8623 0.8623 0.8623
1545.000000 0.8622 0.8622 0.8622 0.8621 0.8621
1550.000000 0.8621 0.8620 0.8620 0.8619 0.8619
1555.000000 0.8619 0.8618 0.8618 0.8618 0.8617
1560.000000 0.8617 0.8616 0.8616 0.8615 0.8615
1565.000000 0.8613 0.8612 0.8610 0.8609 0.8607
1570.000000 0.8606 0.8604 0.8603 0.8602 0.8601
1575.000000 0.8600 0.8599 0.8599 0.8598 0.8597
1580.000000 0.8596 0.8595 0.8588 0.8574 0.8559
1585.000000 0.8545 0.8530 0.8516 0.8501 0.8488
1590.000000 0.8476 0.8464 0.8452 0.8440 0.8429
1595.000000 0.8423 0.8417 0.8411 0.8405 0.8399
1600.000000 0.8393 0.8387 0.8380 0.8374 0.8368
1605.000000 0.8361 0.8354 0.8338 0.8321 0.8304
1610.000000 0.8288 0.8277 0.8268 0.8259 0.8250
1615.000000 0.8241 0.8232 0.8223 0.8214 0.8209
1620.000000 0.8212 0.8155 0.8219 0.8227 0.8244
1625.000000 0.8260 0.8276 0.8293 0.8309 0.8335
1630.000000 0.8363 0.8391 0.8419 0.8446 0.8465
1635.000000 0.8485 0.8504 0.8523 0.8542 0.8554
1640.000000 0.8565 0.8576 0.8581 0.8578 0.8575
1645.000000 0.8573 0.8570 0.8566 0.8560 0.8554
1650.000000 0.8548 0.8563 0.8537 0.8531 0.8521
1655.000000 0.8510 0.8499 0.8489 0.8478 0.8466
1660.000000 0.8453 0.8441 0.8428 0.8416 0.8403
1665.000000 0.8390 0.8381 0.8376 0.8372 0.8368
1670.000000 0.8363 0.8359 0.8354 0.8350 0.8347
1675.000000 0.8344 0.8341 0.8338 0.8335 0.8333
1680.000000 0.8327 0.8320 0.8313 0.8306 0.8298
1685.000000 0.8291 0.8274 0.8253 0.8232 0.8195
1690.000000 0.8073 0.7996 0.7922 0.7857 0.7792
1695.000000 0.7727 0.7659 0.7572 0.7484 0.7396
1700.000000 0.7308 0.7195 0.7082 0.6969 0.6871
1705.000000 0.6774 0.6676 0.6579 0.6498 0.6423
1710.000000 0.6348 0.6273 0.6198 0.6070 0.5879
1715.000000 0.5691 0.5544 0.5396 0.5247 0.5092
1720.000000 0.4937 0.4431 0.3906 0.3381 0.2855
1725.000000 0.2330 0.1805 0.1280 0.0795 0.0733
1730.000000 0.0676 0.0652 0.0628 0.0608 0.0592
1735.000000 0.0575 0.0553 0.0530 0.0490 0.0372
1740.000000 0.0259 0.0204 0.0149 0.0118 0.0111
1745.000000 0.0104 0.0101 0.0100 0.0098 0.0096
1750.000000 0.0053 0.0092 0.0091 0.0093 0.0097
1755.000000 0.0101 0.0104 0.0109 0.0414 0.0720
1760.000000 0.1025 0.1330 0.1636 0.1941 0.2246
1765.000000 0.2552 0.2857 0.3162 0.3468 0.3773
1770.000000 0.4078 0.4384 0.5343 0.5656 0.5874
1775.000000 0.6022 0.6170 0.6265 0.6345 0.6426
1780.000000 0.6507 0.6605 0.6705 0.6806 0.6890
1785.000000 0.6957 0.7023 0.7089 0.7153 0.7208
1790.000000 0.7263 0.7318 0.7373 0.7429 0.7494
1795.000000 0.7559 0.7623 0.7688 0.7755 0.7823
1800.000000 0.7890 0.7957 0.7997 0.8035 0.8072
1805.000000 0.8109 0.8141 0.8171 0.8201 0.8231
1810.000000 0.8261 0.8284 0.8306 0.8329 0.8351
1815.000000 0.8373 0.8385 0.8396 0.8407 0.8419
1820.000000 0.8430 0.8441 0.8449 0.8457 0.8465
1825.000000 0.8473 0.8481 0.8488 0.8496 0.8504
1830.000000 0.8512 0.8518 0.8521 0.8524 0.8526
1835.000000 0.8529 0.8532 0.8545 0.8537 0.8540
1840.000000 0.8543 0.8545 0.8548 0.8551 0.8554
1845.000000 0.8556 0.8557 0.8558 0.8558 0.8559
1850.000000 0.8559 0.8560 0.8560 0.8561 0.8561
1855.000000 0.8561 0.8562 0.8562 0.8563 0.8563
1860.000000 0.8564 0.8564 0.8565 0.8565 0.8566
1865.000000 0.8566 0.8567 0.8569 0.8571 0.8572
1870.000000 0.8574 0.8580 0.8586 0.8592 0.8598
1875.000000 0.8604 0.8610 0.8617 0.8626 0.8636
1880.000000 0.8645 0.8654 0.8663 0.8671 0.8676
1885.000000 0.8682 0.8687 0.8693 0.8698 0.8704
1890.000000 0.8709 0.8715 0.8720 0.8726 0.8731
1895.000000 0.8736 0.8740 0.8744 0.8748 0.8751
1900.000000 0.8755 0.8759 0.8763 0.8767 0.8771
1905.000000 0.8774 0.8780 0.8788 0.8797 0.8804
1910.000000 0.8804 0.8805 0.8805 0.8805 0.8805
1915.000000 0.8805 0.8805 0.8806 0.8806 0.8806
1920.000000 0.8806 0.8806 0.8806 0.8807 0.8807
1925.000000 0.8805 0.8804 0.8803 0.8801 0.8800
1930.000000 0.8799 0.8798 0.8798 0.8797 0.8797
1935.000000 0.8797 0.8797 0.8797 0.8797 0.8796
1940.000000 0.8796 0.8796 0.8796 0.8796 0.8796
1945.000000 0.8795 0.8795 0.8795 0.8795 0.8795
1950.000000 0.8794 0.8787 0.8781 0.8774 0.8767
1955.000000 0.8761 0.8754 0.8748 0.8741 0.8735
1960.000000 0.8728 0.8722 0.8715 0.8707 0.8698
1965.000000 0.8690 0.8681 0.8673 0.8664 0.8656
1970.000000 0.8647 0.8639 0.8633 0.8628 0.8624
1975.000000 0.8620 0.8615 0.8611 0.8607 0.8606
1980.000000 0.8605 0.8605 0.8605 0.8604 0.8604
1985.000000 0.8604 0.8603 0.8603 0.8602 0.8602
1990.000000 0.8602 0.8605 0.8613 0.8621 0.8628
1995.000000 0.8636 0.8643 0.8651 0.8658 0.8666
2000.000000 0.8690 0.8732 0.8774 0.8795 0.8816
2005.000000 0.8829 0.8842 0.8854 0.8866 0.8877
2010.000000 0.8889 0.8899 0.8909 0.8911 0.8914
2015.000000 0.8916 0.8919 0.8921 0.8924 0.8926
2020.000000 0.8929 0.8931 0.8934 0.8936 0.8939
2025.000000 0.8941 0.8944 0.8946 0.8949 0.8951
2030.000000 0.8954 0.8956 0.8959 0.8961 0.8964
2035.000000 0.8966 0.8968 0.8970 0.8972 0.8974
2040.000000 0.8976 0.8978 0.8980 0.8981 0.8983
2045.000000 0.8985 0.8987 0.8989 0.8991 0.8993
2050.000000 0.8995 0.8997 0.8999 0.9000 0.9002
2055.000000 0.9004 0.9006 0.9008 0.9010 0.9012
2060.000000 0.9014 0.9015 0.9017 0.9019 0.9021
2065.000000 0.9023 0.9025 0.9027 0.9029 0.9030
2070.000000 0.9032 0.9032 0.9033 0.9033 0.9034
2075.000000 0.9034 0.9034 0.9034 0.9035 0.9035
2080.000000 0.9035 0.9035 0.9036 0.9036 0.9037
2085.000000 0.9037 0.9037 0.9037 0.9038 0.9038
2090.000000 0.9038 0.9038 0.9039 0.9039 0.9039
2095.000000 0.9039 0.9040 0.9040 0.9041 0.9041
2100.000000 0.9041 0.9041 0.9042 0.9042 0.9042
2105.000000 0.9043 0.9044 0.9044 0.9045 0.9046
2110.000000 0.9047 0.9048 0.9049 0.9049 0.9050
2115.000000 0.9051 0.9052 0.9052 0.9053 0.9054
2120.000000 0.9055 0.9055 0.9056 0.9057 0.9058
2125.000000 0.9058 0.9059 0.9060 0.9061 0.9061
2130.000000 0.9062 0.9063 0.9064 0.9064 0.9065
2135.000000 0.9066 0.9067 0.9067 0.9068 0.9068
2140.000000 0.9068 0.9068 0.9068 0.9068 0.9068
2145.000000 0.9068 0.9068 0.9068 0.9068 0.9068
2150.000000 0.9068 0.9068 0.9068 0.9068 0.9068
2155.000000 0.9068 0.9068 0.9068 0.9068 0.9068
2160.000000 0.9068 0.9068 0.9068 0.9068 0.9068
2165.000000 0.9068 0.9068 0.9068 0.9068 0.9068
2170.000000 0.9068 0.9068 0.9068 0.9067 0.9066
2175.000000 0.9065 0.9065 0.9064 0.9064 0.9063
2180.000000 0.9062 0.9061 0.9061 0.9060 0.9060
2185.000000 0.9059 0.9058 0.9057 0.9057 0.9056
2190.000000 0.9056 0.9055 0.9054 0.9053 0.9053
2195.000000 0.9052 0.9052 0.9051 0.9051 0.9050
2200.000000 0.9049 0.9048 0.9048 0.9047 0.9047
2205.000000 0.9046 0.9045 0.9044 0.9044 0.9043
2210.000000 0.9043 0.9042 0.9041 0.9040 0.9040
2215.000000 0.9039 0.9039 0.9039 0.9039 0.9038
2220.000000 0.9038 0.9038 0.9038 0.9038 0.9038
2225.000000 0.9038 0.9038 0.9038 0.9038 0.9038
2230.000000 0.9038 0.9038 0.9038 0.9038 0.9038
2235.000000 0.9038 0.9038 0.9038 0.9038 0.9038
2240.000000 0.9038 0.9038 0.9038 0.9038 0.9038
2245.000000 0.9037 0.9036 0.9034 0.9033 0.9032
2250.000000 0.9031 0.9029 0.9028 0.9026 0.9025
2255.000000 0.9024 0.9023 0.9021 0.9020 0.9018
2260.000000 0.9017 0.9016 0.9015 0.9013 0.9012
2265.000000 0.9010 0.9009 0.9008 0.9007 0.9005
2270.000000 0.9004 0.9003 0.9003 0.9003 0.9003
2275.000000 0.9003 0.9003 0.9003 0.9003 0.9003
2280.000000 0.9003 0.9003 0.9003 0.9002 0.9002
2285.000000 0.9002 0.9002 0.9002 0.9002 0.9002
2290.000000 0.9002 0.9002 0.9002 0.9001 0.9001
2295.000000 0.9000 0.8999 0.8997 0.8996 0.8994
2300.000000 0.8993 0.8992 0.8991 0.8989 0.8988
2305.000000 0.8987 0.8986 0.8984 0.8983 0.8981
2310.000000 0.8980 0.8979 0.8977 0.8976 0.8975
2315.000000 0.8973 0.8972 0.8971 0.8970 0.8968
2320.000000 0.8967 0.8966 0.8965 0.8963 0.8962
2325.000000 0.8960 0.8959 0.8958 0.8957 0.8955
2330.000000 0.8954 0.8953 0.8952 0.8950 0.8949
2335.000000 0.8947 0.8946 0.8945 0.8944 0.8942
2340.000000 0.8941 0.8941 0.8942 0.8946 0.8950
2345.000000 0.8953 0.8957 0.8961 0.8965 0.8969
2350.000000 0.8973 0.8977 0.8981 0.8988 0.8996
2355.000000 0.9004 0.9013 0.9021 0.9030 0.9038
2360.000000 0.9047 0.9055 0.9064 0.9072 0.9081
2365.000000 0.9089 0.9098 0.9103 0.9109 0.9109
2370.000000 0.9109 0.9109 0.9110 0.9110 0.9111
2375.000000 0.9111 0.9112 0.9111 0.9111 0.9110
2380.000000 0.9109 0.9108 0.9108 0.9107 0.9106
2385.000000 0.9105 0.9104 0.9103 0.9102 0.9101
2390.000000 0.9100 0.9099 0.9099 0.9098 0.9097
2395.000000 0.9096 0.9096 0.9095 0.9094 0.9093
2400.000000 0.9092 0.9091 0.9091 0.9090 0.9089
2405.000000 0.9088 0.9088 0.9087 0.9086 0.9085
2410.000000 0.9084 0.9083 0.9083 0.9082 0.9081
2415.000000 0.9080 0.9080 0.9079 0.9079 0.9079
2420.000000 0.9079 0.9078 0.9078 0.9078 0.9078
2425.000000 0.9078 0.9078 0.9078 0.9078 0.9077
2430.000000 0.9077 0.9077 0.9077 0.9077 0.9077
2435.000000 0.9076 0.9076 0.9076 0.9076 0.9076
2440.000000 0.9076 0.9076 0.9076 0.9075 0.9075
2445.000000 0.9075 0.9075 0.9075 0.9075 0.9075
2450.000000 0.9075 0.9074 0.9074 0.9074 0.9074
2455.000000 0.9074 0.9074 0.9074 0.9074 0.9073
2460.000000 0.9073 0.9073 0.9073 0.9073 0.9073
2465.000000 0.9073 0.9074 0.9074 0.9075 0.9075
2470.000000 0.9075 0.9075 0.9076 0.9076 0.9077
2475.000000 0.9077 0.9077 0.9077 0.9078 0.9078
2480.000000 0.9078 0.9078 0.9079 0.9079 0.9080
2485.000000 0.9080 0.9080 0.9080 0.9081 0.9081
2490.000000 0.9082 0.9082 0.9082 0.9082 0.9083
2495.000000 0.9083 0.9083 0.9083 0.9084 0.9084
2500.000000 0.9085 0.9085 0.9085 0.9085 0.9086
2505.000000 0.9086 0.9086 0.9086 0.9086 0.9085
2510.000000 0.9085 0.9084 0.9084 0.9083 0.9083
2515.000000 0.9082 0.9082 0.9081 0.9081 0.9080
2520.000000 0.9080 0.9079 0.9079 0.9078 0.9078
2525.000000 0.9077 0.9077 0.9076 0.9076 0.9075
2530.000000 0.9075 0.9074 0.9074 0.9073 0.9073
2535.000000 0.9072 0.9072 0.9071 0.9071 0.9070
2540.000000 0.9070 0.9069 0.9069 0.9068 0.9068
2545.000000 0.9067 0.9067 0.9066 0.9066 0.9065
2550.000000 0.9065 0.9064 0.9064 0.9063 0.9063
2555.000000 0.9062 0.9062 0.9062 0.9062 0.9061
2560.000000 0.9061 0.9060 0.9060 0.9059 0.9059
2565.000000 0.9058 0.9058 0.9057 0.9057 0.9056
2570.000000 0.9056 0.9055 0.9055 0.9054 0.9054
2575.000000 0.9053 0.9053 0.9053 0.9054 0.9054
2580.000000 0.9054 0.9054 0.9055 0.9055 0.9056
2585.000000 0.9056 0.9056 0.9056 0.9057 0.9057
2590.000000 0.9058 0.9058 0.9058 0.9058 0.9059
2595.000000 0.9059 0.9060 0.9060 0.9061 0.9061
2600.000000 0.9061 0.9061 0.9062 0.9062 0.9063
2605.000000 0.9063 0.9063 0.9063 0.9064 0.9064
2610.000000 0.9065 0.9065 0.9066 0.9066 0.9066
2615.000000 0.9066 0.9067 0.9067 0.9068 0.9068
2620.000000 0.9068 0.9068 0.9069 0.9069 0.9070
2625.000000 0.9070 0.9070 0.9070 0.9071 0.9071
2630.000000 0.9072 0.9072 0.9073 0.9073 0.9073
2635.000000 0.9073 0.9074 0.9074 0.9075 0.9075
2640.000000 0.9076 0.9076 0.9077 0.9078 0.9079
2645.000000 0.9079 0.9080 0.9080 0.9081 0.9081
2650.000000 0.9082 0.9083 0.9084 0.9084 0.9085
2655.000000 0.9085 0.9086 0.9086 0.9087 0.9088
2660.000000 0.9089 0.9089 0.9090 0.9090 0.9091
2665.000000 0.9091 0.9092 0.9093 0.9094 0.9094
2670.000000 0.9095 0.9095 0.9096 0.9096 0.9097
2675.000000 0.9098 0.9099 0.9099 0.9100 0.9100
2680.000000 0.9101 0.9101 0.9102 0.9103 0.9104
2685.000000 0.9104 0.9105 0.9105 0.9105 0.9105
2690.000000 0.9105 0.9105 0.9105 0.9105 0.9105
2695.000000 0.9105 0.9105 0.9105 0.9105 0.9105
2700.000000 0.9105 0.9105 0.9105 0.9105 0.9105
2705.000000 0.9105 0.9105 0.9105 0.9105 0.9105
2710.000000 0.9105 0.9105 0.9105 0.9105 0.9105
2715.000000 0.9105 0.9105 0.9105 0.9105 0.9104
2720.000000 0.9104 0.9104 0.9104 0.9104 0.9104
2725.000000 0.9104 0.9104 0.9104 0.9104 0.9104
2730.000000 0.9104 0.9104 0.9104 0.9104 0.9104
2735.000000 0.9104 0.9104 0.9104 0.9104 0.9104
2740.000000 0.9104 0.9104 0.9104 0.9102 0.9101
2745.000000 0.9097 0.9094 0.9091 0.9088 0.9084
2750.000000 0.9081 0.9077 0.9074 0.9070 0.9067
2755.000000 0.9063 0.9060 0.9056 0.9053 0.9050
2760.000000 0.9047 0.9043 0.9040 0.9036 0.9033
2765.000000 0.9029 0.9026 0.9022 0.9019 0.9015
2770.000000 0.9012 0.9009 0.9006 0.9002 0.8999
2775.000000 0.8994 0.8990 0.8982 0.8974 0.8966
2780.000000 0.8958 0.8949 0.8941 0.8933 0.8925
2785.000000 0.8917 0.8909 0.8901 0.8893 0.8884
2790.000000 0.8876 0.8868 0.8860 0.8852 0.8844
2795.000000 0.8835 0.8827 0.8819 0.8811 0.8805
2800.000000 0.8799 0.8795 0.8792 0.8789 0.8786
2805.000000 0.8782 0.8779 0.8775 0.8772 0.8769
2810.000000 0.8767 0.8774 0.8781 0.8788 0.8795
2815.000000 0.8800 0.8806 0.8811 0.8816 0.8821
2820.000000 0.8826 0.8831 0.8836 0.8839 0.8843
2825.000000 0.8841 0.8840 0.8838 0.8836 0.8830
2830.000000 0.8824 0.8813 0.8802 0.8791 0.8780
2835.000000 0.8768 0.8757 0.8746 0.8735 0.8710
2840.000000 0.8685 0.8647 0.8609 0.8570 0.8532
2845.000000 0.8491 0.8451 0.8410 0.8370 0.8297
2850.000000 0.8225 0.8060 0.7895 0.7730 0.7565
2855.000000 0.7400 0.7235 0.7070 0.6906 0.6741
2860.000000 0.6576 0.6432 0.6288 0.6003 0.5719
2865.000000 0.5579 0.5440 0.5309 0.5178 0.5062
2870.000000 0.4946 0.4888 0.4831 0.4686 0.4542
2875.000000 0.4338 0.4134 0.3930 0.3726 0.3557
2880.000000 0.3405 0.3389 0.3389 0.3389 0.3389
2885.000000 0.3576 0.3764 0.4007 0.4251 0.4495
2890.000000 0.4739 0.4871 0.5003 0.5177 0.5352
2895.000000 0.5433 0.5514 0.5594 0.5675 0.5756
2900.000000 0.5837 0.5917 0.5998 0.6079 0.6160
2905.000000 0.6240 0.6321 0.6389 0.6444 0.6456
2910.000000 0.6456 0.6455 0.6455 0.6384 0.6314
2915.000000 0.6171 0.6028 0.5901 0.5782 0.5775
2920.000000 0.5775 0.5773 0.5772 0.5831 0.5890
2925.000000 0.5951 0.6012 0.6072 0.6133 0.6149
2930.000000 0.6106 0.6163 0.6160 0.6157 0.6155
2935.000000 0.5966 0.5777 0.5512 0.5247 0.4982
2940.000000 0.4718 0.4453 0.4188 0.3969 0.3750
2945.000000 0.3749 0.3749 0.3744 0.3739 0.3595
2950.000000 0.3452 0.3308 0.3164 0.3020 0.2877
2955.000000 0.2733 0.2590 0.2446 0.2302 0.2158
2960.000000 0.2015 0.1871 0.1728 0.1584 0.1369
2965.000000 0.1410 0.1380 0.1381 0.1382 0.1512
2970.000000 0.1643 0.1843 0.2043 0.2243 0.2443
2975.000000 0.2643 0.2843 0.3043 0.3244 0.3444
2980.000000 0.3644 0.3844 0.4044 0.4244 0.4444
2985.000000 0.4644 0.4844 0.5044 0.5244 0.5444
2990.000000 0.5645 0.5845 0.6045 0.6245 0.6445
2995.000000 0.6645 0.6845 0.7036 0.7227 0.7355
3000.000000 0.7484 0.7564 0.7645 0.7676 0.7708
3005.000000 0.7739 0.7771 0.7802 0.7834 0.7862
3010.000000 0.7891 0.7916 0.7942 0.7967 0.7993
3015.000000 0.8018 0.8043 0.8068 0.8094 0.8145
3020.000000 0.8196 0.8249 0.8302 0.8355 0.8408
3025.000000 0.8461 0.8514 0.8543 0.8573 0.8588
3030.000000 0.8604 0.8619 0.8634 0.8649 0.8664
3035.000000 0.8679 0.8694 0.8708 0.8723 0.8733
3040.000000 0.8744 0.8754 0.8765 0.8775 0.8785
3045.000000 0.8795 0.8806 0.8816 0.8826 0.8833
3050.000000 0.8841 0.8848 0.8856 0.8863 0.8871
3055.000000 0.8878 0.8886 0.8893 0.8901 0.8908
3060.000000 0.8915 0.8918 0.8922 0.8925 0.8928
3065.000000 0.8931 0.8935 0.8938 0.8941 0.8944
3070.000000 0.8948 0.8951 0.8955 0.8958 0.8961
3075.000000 0.8964 0.8968 0.8971 0.8974 0.8977
3080.000000 0.8981 0.8984 0.8987 0.8989 0.8992
3085.000000 0.8995 0.8998 0.9000 0.9003 0.9006
3090.000000 0.9009 0.9011 0.9014 0.9016 0.9019
3095.000000 0.9022 0.9025 0.9027 0.9030 0.9033
3100.000000 0.9036 0.9038 0.9041 0.9044 0.9047
3105.000000 0.9049 0.9052 0.9055 0.9058 0.9060
3110.000000 0.9063 0.9065 0.9068 0.9070 0.9073
3115.000000 0.9075 0.9078 0.9080 0.9082 0.9084
3120.000000 0.9087 0.9089 0.9092 0.9094 0.9097
3125.000000 0.9099 0.9102 0.9104 0.9106 0.9108
3130.000000 0.9111 0.9113 0.9116 0.9118 0.9121
3135.000000 0.9123 0.9126 0.9128 0.9130 0.9132
3140.000000 0.9135 0.9137 0.9140 0.9142 0.9145
3145.000000 0.9147 0.9149 0.9150 0.9152 0.9153
3150.000000 0.9155 0.9156 0.9158 0.9159 0.9161
3155.000000 0.9162 0.9164 0.9165 0.9167 0.9168
3160.000000 0.9170 0.9171 0.9173 0.9174 0.9176
3165.000000 0.9177 0.9179 0.9180 0.9182 0.9183
3170.000000 0.9185 0.9186 0.9188 0.9189 0.9191
3175.000000 0.9192 0.9194 0.9195 0.9197 0.9198
3180.000000 0.9200 0.9201 0.9203 0.9204 0.9206
3185.000000 0.9207 0.9209 0.9210 0.9212 0.9213
3190.000000 0.9215 0.9216 0.9218 0.9219 0.9221
3195.000000 0.9222 0.9224 0.9225 0.9227 0.9228
3200.000000 0.9230 0.9231 0.9233 0.9234 0.9236
3205.000000 0.9237 0.9239 0.9240 0.9242 0.9243
3210.000000 0.9245 0.9246 0.9248 0.9249 0.9251
3215.000000 0.9252 0.9254 0.9255 0.9257 0.9258
3220.000000 0.9259 0.9260 0.9262 0.9263 0.9265
3225.000000 0.9266 0.9268 0.9269 0.9270 0.9271
3230.000000 0.9272 0.9272 0.9273 0.9274 0.9275
3235.000000 0.9275 0.9276 0.9277 0.9278 0.9278
3240.000000 0.9279 0.9280 0.9281 0.9281 0.9282
3245.000000 0.9283 0.9284 0.9285 0.9286 0.9286
3250.000000 0.9287 0.9288 0.9289 0.9289 0.9290
3255.000000 0.9291 0.9292 0.9292 0.9293 0.9294
3260.000000 0.9295 0.9295 0.9296 0.9297 0.9298
3265.000000 0.9298 0.9298 0.9298 0.9298 0.9298
3270.000000 0.9298 0.9298 0.9298 0.9298 0.9298
3275.000000 0.9298 0.9298 0.9298 0.9298 0.9298
3280.000000 0.9298 0.9298 0.9298 0.9298 0.9298
3285.000000 0.9298 0.9298 0.9298 0.9298 0.9298
3290.000000 0.9298 0.9298 0.9298 0.9298 0.9298
3295.000000 0.9298 0.9298 0.9298 0.9298 0.9298
3300.000000 0.9298 0.9298 0.9298 0.9298 0.9298
3305.000000 0.9297 0.9297 0.9296 0.9296 0.9295
3310.000000 0.9295 0.9295 0.9295 0.9294 0.9294
3315.000000 0.9293 0.9293 0.9292 0.9292 0.9292
3320.000000 0.9292 0.9291 0.9291 0.9290 0.9290
3325.000000 0.9289 0.9289 0.9289 0.9289 0.9288
3330.000000 0.9288 0.9287 0.9287 0.9287 0.9287
3335.000000 0.9286 0.9286 0.9285 0.9285 0.9284
3340.000000 0.9288 0.9284 0.9284 0.9283 0.9283
3345.000000 0.9282 0.9282 0.9280 0.9279 0.9277
3350.000000 0.9275 0.9273 0.9272 0.9270 0.9268
3355.000000 0.9266 0.9264 0.9262 0.9260 0.9258
3360.000000 0.9256 0.9254 0.9253 0.9251 0.9249
3365.000000 0.9247 0.9245 0.9243 0.9241 0.9239
3370.000000 0.9237 0.9235 0.9234 0.9232 0.9230
3375.000000 0.9228 0.9226 0.9224 0.9222 0.9220
3380.000000 0.9218 0.9216 0.9215 0.9213 0.9211
3385.000000 0.9209 0.9207 0.9205 0.9203 0.9200
3390.000000 0.9198 0.9195 0.9193 0.9190 0.9188
3395.000000 0.9185 0.9182 0.9179 0.9177 0.9174
3400.000000 0.9172 0.9169 0.9166 0.9163 0.9161
3405.000000 0.9158 0.9156 0.9153 0.9150 0.9147
3410.000000 0.9145 0.9142 0.9140 0.9137 0.9135
3415.000000 0.9132 0.9129 0.9126 0.9124 0.9121
3420.000000 0.9119 0.9114 0.9110 0.9103 0.9096
3425.000000 0.9088 0.9081 0.9074 0.9067 0.9059
3430.000000 0.9052 0.9045 0.9038 0.9031 0.9024
3435.000000 0.9016 0.9009 0.9002 0.8995 0.8987
3440.000000 0.8980 0.8973 0.8966 0.8958 0.8951
3445.000000 0.8944 0.8937 0.8918 0.8899 0.8877
3450.000000 0.8856 0.8834 0.8813 0.8791 0.8769
3455.000000 0.8747 0.8726 0.8704 0.8683 0.8650
3460.000000 0.8617 0.8583 0.8549 0.8515 0.8482
3465.000000 0.8458 0.8434 0.8414 0.8394 0.8374
3470.000000 0.8332 0.8341 0.8327 0.8329 0.8332
3475.000000 0.8335 0.8338 0.8345 0.8352 0.8361
3480.000000 0.8370 0.8380 0.8390 0.8410 0.8430
3485.000000 0.8450 0.8470 0.8488 0.8506 0.8521
3490.000000 0.8537 0.8552 0.8568 0.8583 0.8599
3495.000000 0.8613 0.8627 0.8639 0.8652 0.8664
3500.000000 0.8677 0.8689 0.8702 0.8715 0.8728
3505.000000 0.8740 0.8753 0.8762 0.8772 0.8779
3510.000000 0.8787 0.8795 0.8803 0.8810 0.8818
3515.000000 0.8826 0.8834 0.8841 0.8849 0.8857
3520.000000 0.8865 0.8872 0.8880 0.8886 0.8893
3525.000000 0.8899 0.8906 0.8912 0.8919 0.8921
3530.000000 0.8924 0.8924 0.8924 0.8923 0.8923
3535.000000 0.8923 0.8923 0.8922 0.8922 0.8922
3540.000000 0.8922 0.8922 0.8922 0.8921 0.8921
3545.000000 0.8921 0.8921 0.8920 0.8920 0.8920
3550.000000 0.8920 0.8919 0.8918 0.8916 0.8914
3555.000000 0.8912 0.8910 0.8908 0.8907 0.8906
3560.000000 0.8906 0.8911 0.8917 0.8922 0.8927
3565.000000 0.8932 0.8937 0.8942 0.8948 0.8953
3570.000000 0.8958 0.8963 0.8968 0.8973 0.8979
3575.000000 0.8984 0.8989 0.8994 0.8999 0.9004
3580.000000 0.9010 0.9015 0.9025 0.9025 0.9030
3585.000000 0.9032 0.9035 0.9036 0.9038 0.9039
3590.000000 0.9041 0.9042 0.9044 0.9045 0.9047
3595.000000 0.9047 0.9048 0.9049 0.9050 0.9050
3600.000000 0.9051 0.9052 0.9053 0.9053 0.9054
3605.000000 0.9055 0.9056 0.9056 0.9057 0.9058
3610.000000 0.9059 0.9059 0.9060 0.9061 0.9062
3615.000000 0.9063 0.9064 0.9065 0.9066 0.9067
3620.000000 0.9068 0.9069 0.9070 0.9071 0.9072
3625.000000 0.9073 0.9074 0.9075 0.9076 0.9077
3630.000000 0.9078 0.9079 0.9080 0.9081 0.9082
3635.000000 0.9083 0.9084 0.9085 0.9086 0.9087
3640.000000 0.9088 0.9089 0.9090 0.9091 0.9092
3645.000000 0.9092 0.9093 0.9093 0.9093 0.9092
3650.000000 0.9091 0.9089 0.9088 0.9087 0.9086
3655.000000 0.9085 0.9084 0.9083 0.9082 0.9080
3660.000000 0.9079 0.9078 0.9077 0.9076 0.9075
3665.000000 0.9073 0.9072 0.9071 0.9070 0.9069
3670.000000 0.9068 0.9064 0.9060 0.9053 0.9046
3675.000000 0.9039 0.9032 0.9025 0.9018 0.9011
3680.000000 0.9004 0.8997 0.8990 0.8983 0.8976
3685.000000 0.8969 0.8962 0.8955 0.8948 0.8945
3690.000000 0.8942 0.8943 0.8945 0.8946 0.8947
3695.000000 0.8950 0.8953 0.8961 0.8970 0.8978
3700.000000 0.8986 0.8994 0.9003 0.9011 0.9019
3705.000000 0.9027 0.9036 0.9046 0.9056 0.9067
3710.000000 0.9078 0.9089 0.9100 0.9108 0.9117
3715.000000 0.9121 0.9126 0.9131 0.9136 0.9140
3720.000000 0.9145 0.9150 0.9155 0.9159 0.9164
3725.000000 0.9168 0.9172 0.9173 0.9175 0.9176
3730.000000 0.9178 0.9179 0.9181 0.9182 0.9184
3735.000000 0.9185 0.9187 0.9188 0.9190 0.9191
3740.000000 0.9193 0.9194 0.9196 0.9197 0.9199
3745.000000 0.9200 0.9202 0.9203 0.9205 0.9205
3750.000000 0.9206 0.9206 0.9206 0.9205 0.9205
3755.000000 0.9205 0.9205 0.9205 0.9205 0.9204
3760.000000 0.9204 0.9204 0.9204 0.9203 0.9203
3765.000000 0.9203 0.9203 0.9203 0.9203 0.9202
3770.000000 0.9202 0.9202 0.9202 0.9200 0.9198
3775.000000 0.9195 0.9192 0.9189 0.9187 0.9184
3780.000000 0.9181 0.9178 0.9176 0.9173 0.9170
3785.000000 0.9167 0.9165 0.9162 0.9159 0.9156
3790.000000 0.9154 0.9151 0.9148 0.9145 0.9143
3795.000000 0.9140 0.9137 0.9134 0.9132 0.9129
3800.000000 0.9126 0.9123 0.9121 0.9118 0.9115
3805.000000 0.9113 0.9112 0.9112 0.9113 0.9113
3810.000000 0.9114 0.9114 0.9115 0.9115 0.9116
3815.000000 0.9116 0.9117 0.9117 0.9118 0.9118
3820.000000 0.9119 0.9121 0.9123 0.9127 0.9131
3825.000000 0.9134 0.9138 0.9141 0.9145 0.9148
3830.000000 0.9152 0.9156 0.9160 0.9162 0.9165
3835.000000 0.9166 0.9167 0.9168 0.9170 0.9171
3840.000000 0.9173 0.9174 0.9176 0.9177 0.9178
3845.000000 0.9179 0.9181 0.9182 0.9184 0.9185
3850.000000 0.9186 0.9187 0.9189 0.9190 0.9192
3855.000000 0.9192 0.9193 0.9193 0.9194 0.9194
3860.000000 0.9195 0.9195 0.9196 0.9196 0.9197
3865.000000 0.9197 0.9198 0.9198 0.9199 0.9199
3870.000000 0.9200 0.9201 0.9202 0.9202 0.9203
3875.000000 0.9203 0.9204 0.9204 0.9205 0.9205
3880.000000 0.9206 0.9206 0.9207 0.9207 0.9208
3885.000000 0.9208 0.9209 0.9209 0.9210 0.9210
3890.000000 0.9211 0.9211 0.9212 0.9213 0.9214
3895.000000 0.9214 0.9215 0.9215 0.9216 0.9217
3900.000000 0.9218 0.9218 0.9219 0.9220 0.9221
3905.000000 0.9221 0.9222 0.9223 0.9224 0.9224
3910.000000 0.9225 0.9226 0.9227 0.9227 0.9228
3915.000000 0.9229 0.9230 0.9230 0.9231 0.9232
3920.000000 0.9233 0.9233 0.9234 0.9234 0.9235
3925.000000 0.9236 0.9237 0.9237 0.9238 0.9239
3930.000000 0.9240 0.9240 0.9241 0.9242 0.9243
3935.000000 0.9243 0.9244 0.9245 0.9246 0.9247
3940.000000 0.9248 0.9249 0.9250 0.9251 0.9252
3945.000000 0.9253 0.9254 0.9255 0.9256 0.9257
3950.000000 0.9258 0.9259 0.9260 0.9261 0.9262
3955.000000 0.9263 0.9264 0.9265 0.9266 0.9267
3960.000000 0.9268 0.9269 0.9270 0.9271 0.9272
3965.000000 0.9272 0.9272 0.9272 0.9272 0.9272
3970.000000 0.9272 0.9272 0.9272 0.9272 0.9272
3975.000000 0.9271 0.9271 0.9271 0.9271 0.9271
3980.000000 0.9271 0.9270 0.9270 0.9270 0.9270
3985.000000 0.9270 0.9270 0.9269 0.9269 0.9269
3990.000000 0.9269 0.9268 0.9268 0.9268 0.9268
3995.000000 0.9268 0.9268 0.9268 0.9268
##END=
