##TITLE=BUTANOL, 3-METHYL-
##JCAMP-DX=4.24
##DATA TYPE=INFRARED SPECTRUM
##CLASS=COBLENTZ III
##ORIGIN=US INDUSTRIAL CHEMICALS COMPANY, CINCINNATI, OHIO
##OWNER=COBLENTZ SOCIETY
Collection (C) 2018 copyright by the U.S. Secretary of Commerce
on behalf of the United States of America. All rights reserved.
##DATE=Not specified, most likely prior to 1970
##NAMES=3-methyl-1-butanol
3-METHYL-1-BUTANOL
##CAS REGISTRY NO=123-51-3
##MOLFORM=C5 H12 O
##SOURCE REFERENCE=COBLENTZ NO. 2105
##$NIST SOURCE=COBLENTZ
##$NIST IMAGE=cob2105
##SPECTROMETER/DATA SYSTEM=PERKIN-ELMER 421 (GRATING)
##STATE=LIQUID (NEAT)
$$ PURITY - 99%
##PATH LENGTH=0.0007 CM CELL
##SAMPLING PROCEDURE=TRANSMISSION
##RESOLUTION=4
##DATA PROCESSING=DIGITIZED BY NIST FROM HARD COPY (FROM TWO SEGMENTS)
##XUNITS=1/CM
##YUNITS=TRANSMITTANCE
##XFACTOR=1.000000
##YFACTOR=1
##DELTAX=0.713923
##FIRSTX=602.856
##LASTX=3993.99
##FIRSTY=0.652
##MAXX=3993.99
##MINX=602.856
##MAXY=0.897
##MINY=0.0451302
##NPOINTS=4751
##XYDATA=(X++(Y..Y))
602.856000 0.6520 0.6520 0.6520 0.6510 0.6510
606.425614 0.6510 0.6510 0.6510 0.6510 0.6490
609.995228 0.6510 0.6510 0.6510 0.6510 0.6510
613.564843 0.6510 0.6490 0.6490 0.6480 0.6490
617.134457 0.6510 0.6490 0.6490 0.6490 0.6490
620.704071 0.6490 0.6490 0.6490 0.6490 0.6490
624.273685 0.6490 0.6490 0.6490 0.6490 0.6490
627.843300 0.6490 0.6510 0.6510 0.6510 0.6510
631.412914 0.6490 0.6490 0.6490 0.6490 0.6510
634.982528 0.6510 0.6510 0.6520 0.6520 0.6520
638.552142 0.6530 0.6530 0.6530 0.6530 0.6550
642.121756 0.6550 0.6560 0.6560 0.6560 0.6560
645.691371 0.6560 0.6560 0.6580 0.6580 0.6580
649.260985 0.6590 0.6590 0.6590 0.6590 0.6600
652.830599 0.6600 0.6600 0.6600 0.6600 0.6600
656.400213 0.6600 0.6600 0.6620 0.6620 0.6620
659.969827 0.6620 0.6630 0.6630 0.6630 0.6650
663.539442 0.6650 0.6660 0.6680 0.6690 0.6690
667.109056 0.6700 0.6700 0.6700 0.6700 0.6700
670.678670 0.6700 0.6720 0.6720 0.6720 0.6720
674.248284 0.6730 0.6730 0.6730 0.6730 0.6750
677.817899 0.6750 0.6760 0.6760 0.6760 0.6780
681.387513 0.6780 0.6790 0.6790 0.6790 0.6790
684.957127 0.6800 0.6800 0.6820 0.6800 0.6800
688.526741 0.6800 0.6800 0.6820 0.6820 0.6820
692.096355 0.6830 0.6830 0.6830 0.6850 0.6860
695.665970 0.6860 0.6870 0.6870 0.6900 0.6900
699.235584 0.6920 0.6920 0.6930 0.6930 0.6950
702.805198 0.6950 0.6960 0.6960 0.6960 0.6960
706.374812 0.6970 0.6970 0.6970 0.6990 0.6990
709.944427 0.7000 0.7020 0.7030 0.7040 0.7060
713.514041 0.7070 0.7070 0.7090 0.7090 0.7090
717.083655 0.7090 0.7090 0.7090 0.7100 0.7100
720.653269 0.7100 0.7100 0.7100 0.7100 0.7120
724.222883 0.7120 0.7130 0.7130 0.7140 0.7140
727.792498 0.7160 0.7170 0.7190 0.7190 0.7200
731.362112 0.7230 0.7240 0.7240 0.7260 0.7260
734.931726 0.7260 0.7260 0.7260 0.7270 0.7290
738.501340 0.7270 0.7290 0.7290 0.7290 0.7290
742.070955 0.7290 0.7290 0.7290 0.7290 0.7290
745.640569 0.7290 0.7290 0.7290 0.7290 0.7270
749.210183 0.7270 0.7270 0.7270 0.7260 0.7260
752.779797 0.7240 0.7240 0.7210 0.7210 0.7200
756.349411 0.7170 0.7160 0.7140 0.7130 0.7130
759.919026 0.7120 0.7120 0.7120 0.7120 0.7130
763.488640 0.7130 0.7130 0.7140 0.7160 0.7170
767.058254 0.7190 0.7200 0.7210 0.7230 0.7240
770.627868 0.7260 0.7270 0.7300 0.7340 0.7390
774.197482 0.7400 0.7410 0.7430 0.7440 0.7470
777.767097 0.7480 0.7510 0.7540 0.7560 0.7580
781.336711 0.7600 0.7630 0.7650 0.7670 0.7680
784.906325 0.7680 0.7700 0.7710 0.7710 0.7730
788.475939 0.7730 0.7740 0.7740 0.7740 0.7740
792.045554 0.7740 0.7740 0.7740 0.7740 0.7740
795.615168 0.7750 0.7750 0.7750 0.7770 0.7770
799.184782 0.7770 0.7780 0.7780 0.7780 0.7800
802.754396 0.7800 0.7810 0.7810 0.7810 0.7810
806.324010 0.7820 0.7820 0.7820 0.7820 0.7820
809.893625 0.7820 0.7820 0.7810 0.7800 0.7800
813.463239 0.7780 0.7780 0.7770 0.7750 0.7750
817.032853 0.7740 0.7730 0.7700 0.7680 0.7670
820.602467 0.7640 0.7610 0.7580 0.7560 0.7500
824.172082 0.7460 0.7430 0.7400 0.7390 0.7360
827.741696 0.7340 0.7310 0.7300 0.7290 0.7270
831.311310 0.7260 0.7260 0.7260 0.7270 0.7290
834.880924 0.7300 0.7310 0.7400 0.7430 0.7480
838.450538 0.7540 0.7600 0.7640 0.7780 0.7810
842.020153 0.7850 0.7920 0.7950 0.7970 0.7980
845.589767 0.8010 0.8050 0.8080 0.8110 0.8120
849.159381 0.8120 0.8150 0.8170 0.8170 0.8190
852.728995 0.8190 0.8210 0.8210 0.8210 0.8220
856.298610 0.8220 0.8220 0.8240 0.8240 0.8240
859.868224 0.8240 0.8240 0.8240 0.8240 0.8240
863.437838 0.8240 0.8240 0.8240 0.8240 0.8240
867.007452 0.8240 0.8240 0.8240 0.8240 0.8240
870.577066 0.8240 0.8240 0.8240 0.8240 0.8240
874.146681 0.8220 0.8220 0.8220 0.8210 0.8210
877.716295 0.8210 0.8210 0.8190 0.8190 0.8180
881.285909 0.8180 0.8180 0.8170 0.8150 0.8150
884.855523 0.8120 0.8120 0.8110 0.8080 0.8070
888.425137 0.8040 0.8020 0.8020 0.8000 0.7980
891.994752 0.7950 0.7940 0.7940 0.7940 0.7920
895.564366 0.7920 0.7910 0.7910 0.7900 0.7900
899.133980 0.7900 0.7900 0.7900 0.7910 0.7920
902.703594 0.7940 0.7940 0.7970 0.7970 0.7980
906.273209 0.8000 0.8000 0.8010 0.8010 0.8010
909.842823 0.8020 0.8020 0.8020 0.8020 0.8020
913.412437 0.8020 0.8010 0.8010 0.8010 0.8010
916.982051 0.8010 0.8010 0.8020 0.8020 0.8040
920.551665 0.8040 0.8050 0.8070 0.8070 0.8050
924.121280 0.8050 0.8050 0.8020 0.8010 0.8000
927.690894 0.7970 0.7950 0.7940 0.7940 0.7920
931.260508 0.7900 0.7870 0.7850 0.7820 0.7810
934.830122 0.7800 0.7780 0.7770 0.7770 0.7770
938.399737 0.7770 0.7780 0.7780 0.7780 0.7770
941.969351 0.7750 0.7750 0.7750 0.7740 0.7740
945.538965 0.7700 0.7670 0.7610 0.7570 0.7480
949.108579 0.7400 0.7390 0.7310 0.7260 0.7160
952.678193 0.7090 0.7060 0.7030 0.6990 0.6960
956.247808 0.6900 0.6870 0.6790 0.6750 0.6680
959.817422 0.6579 0.6310 0.6210 0.6070 0.5820
963.387036 0.5750 0.5650 0.5630 0.5630 0.5650
966.956650 0.5740 0.5820 0.5900 0.6280 0.6360
970.526265 0.6560 0.6620 0.6700 0.6720 0.6720
974.095879 0.6720 0.6720 0.6720 0.6690 0.6690
977.665493 0.6690 0.6690 0.6690 0.6680 0.6680
981.235107 0.6660 0.6630 0.6620 0.6590 0.6560
984.804721 0.6530 0.6510 0.6480 0.6450 0.6410
988.374336 0.6340 0.6320 0.6290 0.6290 0.6260
991.943950 0.6190 0.6140 0.6080 0.6040 0.5980
995.513564 0.5940 0.5880 0.5800 0.5650 0.5560
999.083178 0.5460 0.5360 0.5260 0.5210 0.5130
1002.652792 0.4870 0.4590 0.4360 0.4220 0.4090
1006.222407 0.4010 0.3900 0.3840 0.3770 0.3750
1009.792021 0.3740 0.3740 0.3750 0.3780 0.3810
1013.361635 0.3900 0.3920 0.4000 0.4080 0.4180
1016.931249 0.4210 0.4390 0.4590 0.4760 0.4950
1020.500864 0.5100 0.5330 0.5600 0.5770 0.5900
1024.070478 0.5920 0.5940 0.5940 0.5920 0.5880
1027.640092 0.5820 0.5780 0.5710 0.5610 0.5570
1031.209706 0.5510 0.5440 0.5300 0.5130 0.5000
1034.779320 0.4900 0.4760 0.4590 0.4430 0.4191
1038.348935 0.3850 0.3560 0.3330 0.3260 0.3170
1041.918549 0.3000 0.2860 0.2730 0.2660 0.2620
1045.488163 0.2560 0.2460 0.2380 0.2350 0.2260
1049.057777 0.2240 0.2170 0.2150 0.2140 0.2140
1052.627392 0.2120 0.2120 0.2140 0.2140 0.2150
1056.197006 0.2150 0.2170 0.2180 0.2250 0.2290
1059.766620 0.2360 0.2450 0.2510 0.2530 0.2620
1063.336234 0.2700 0.2830 0.2960 0.2990 0.3120
1066.905848 0.3270 0.3360 0.3610 0.3810 0.3970
1070.475463 0.4140 0.4310 0.4529 0.4600 0.4919
1074.045077 0.5121 0.5740 0.5900 0.6020 0.6180
1077.614691 0.6350 0.6630 0.6870 0.7040 0.7130
1081.184305 0.7130 0.7230 0.7260 0.7360 0.7430
1084.753919 0.7540 0.7600 0.7640 0.7650 0.7670
1088.323534 0.7670 0.7680 0.7710 0.7710 0.7700
1091.893148 0.7700 0.7700 0.7700 0.7700 0.7700
1095.462762 0.7680 0.7670 0.7650 0.7630 0.7610
1099.032376 0.7600 0.7570 0.7570 0.7560 0.7540
1102.601991 0.7500 0.7470 0.7440 0.7340 0.7240
1106.171605 0.7190 0.7170 0.7070 0.7060 0.7040
1109.741219 0.6930 0.6920 0.6870 0.6850 0.6800
1113.310833 0.6790 0.6750 0.6700 0.6680 0.6650
1116.880447 0.6630 0.6620 0.6600 0.6590 0.6580
1120.450062 0.6580 0.6580 0.6560 0.6560 0.6560
1124.019676 0.6580 0.6590 0.6600 0.6620 0.6630
1127.589290 0.6660 0.6690 0.6720 0.6730 0.6790
1131.158904 0.6850 0.6870 0.6900 0.6920 0.7030
1134.728519 0.7040 0.7070 0.7130 0.7170 0.7200
1138.298133 0.7230 0.7240 0.7290 0.7360 0.7390
1141.867747 0.7400 0.7430 0.7470 0.7500 0.7560
1145.437361 0.7580 0.7630 0.7650 0.7670 0.7710
1149.006975 0.7730 0.7730 0.7730 0.7740 0.7740
1152.576590 0.7740 0.7740 0.7740 0.7740 0.7730
1156.146204 0.7710 0.7710 0.7710 0.7700 0.7680
1159.715818 0.7640 0.7630 0.7600 0.7580 0.7560
1163.285432 0.7540 0.7530 0.7480 0.7440 0.7400
1166.855047 0.7370 0.7360 0.7340 0.7340 0.7340
1170.424661 0.7360 0.7390 0.7400 0.7460 0.7480
1173.994275 0.7530 0.7570 0.7640 0.7780 0.7820
1177.563889 0.7880 0.7910 0.7950 0.8000 0.8010
1181.133503 0.8010 0.8020 0.8020 0.8020 0.8020
1184.703118 0.8020 0.8020 0.8020 0.8010 0.8010
1188.272732 0.8000 0.8000 0.7970 0.7970 0.7950
1191.842346 0.7950 0.7940 0.7940 0.7920 0.7910
1195.411960 0.7910 0.7900 0.7880 0.7840 0.7810
1198.981574 0.7770 0.7750 0.7740 0.7730 0.7710
1202.551189 0.7710 0.7680 0.7640 0.7600 0.7540
1206.120803 0.7500 0.7470 0.7440 0.7410 0.7400
1209.690417 0.7390 0.7370 0.7360 0.7360 0.7340
1213.260031 0.7340 0.7360 0.7360 0.7370 0.7370
1216.829646 0.7360 0.7360 0.7360 0.7360 0.7360
1220.399260 0.7370 0.7370 0.7370 0.7370 0.7370
1223.968874 0.7370 0.7390 0.7390 0.7390 0.7390
1227.538488 0.7390 0.7400 0.7410 0.7430 0.7440
1231.108102 0.7440 0.7470 0.7470 0.7480 0.7500
1234.677717 0.7510 0.7540 0.7560 0.7560 0.7560
1238.247331 0.7570 0.7570 0.7570 0.7580 0.7580
1241.816945 0.7580 0.7580 0.7580 0.7580 0.7580
1245.386559 0.7580 0.7570 0.7570 0.7570 0.7560
1248.956174 0.7560 0.7540 0.7540 0.7540 0.7540
1252.525788 0.7540 0.7540 0.7540 0.7560 0.7560
1256.095402 0.7560 0.7560 0.7560 0.7540 0.7540
1259.665016 0.7540 0.7540 0.7540 0.7540 0.7540
1263.234630 0.7530 0.7530 0.7530 0.7530 0.7540
1266.804245 0.7540 0.7540 0.7560 0.7570 0.7570
1270.373859 0.7580 0.7580 0.7580 0.7600 0.7600
1273.943473 0.7600 0.7600 0.7600 0.7580 0.7580
1277.513087 0.7580 0.7580 0.7580 0.7580 0.7570
1281.082702 0.7540 0.7540 0.7530 0.7530 0.7510
1284.652316 0.7500 0.7480 0.7480 0.7470 0.7460
1288.221930 0.7460 0.7440 0.7430 0.7400 0.7390
1291.791544 0.7370 0.7340 0.7330 0.7300 0.7270
1295.361158 0.7260 0.7260 0.7240 0.7240 0.7230
1298.930773 0.7210 0.7210 0.7200 0.7190 0.7170
1302.500387 0.7160 0.7140 0.7140 0.7120 0.7090
1306.070001 0.7070 0.7060 0.7060 0.7040 0.7040
1309.639615 0.7030 0.7020 0.6990 0.6960 0.6950
1313.209229 0.6930 0.6920 0.6900 0.6890 0.6870
1316.778844 0.6870 0.6860 0.6830 0.6820 0.6820
1320.348458 0.6800 0.6800 0.6800 0.6820 0.6800
1323.918072 0.6800 0.6800 0.6790 0.6790 0.6790
1327.487686 0.6780 0.6780 0.6780 0.6760 0.6750
1331.057301 0.6750 0.6730 0.6730 0.6730 0.6720
1334.626915 0.6720 0.6700 0.6700 0.6690 0.6690
1338.196529 0.6680 0.6680 0.6660 0.6650 0.6650
1341.766143 0.6630 0.6600 0.6590 0.6560 0.6550
1345.335757 0.6530 0.6510 0.6510 0.6490 0.6480
1348.905372 0.6430 0.6420 0.6390 0.6340 0.6290
1352.474986 0.6260 0.6240 0.6190 0.6150 0.6120
1356.044600 0.6090 0.6070 0.6050 0.6010 0.5970
1359.614214 0.5870 0.5810 0.5710 0.5570 0.5500
1363.183829 0.5430 0.5300 0.5140 0.5070 0.4970
1366.753443 0.4900 0.4850 0.4850 0.4920 0.5030
1370.323057 0.5210 0.5310 0.5340 0.5360 0.5360
1373.892671 0.5340 0.5300 0.5260 0.5210 0.5200
1377.462285 0.5190 0.5130 0.5040 0.4970 0.4920
1381.031900 0.4870 0.4850 0.4820 0.4820 0.4800
1384.601514 0.4800 0.4800 0.4820 0.4850 0.4970
1388.171128 0.5510 0.5640 0.5820 0.5950 0.6010
1391.740742 0.6120 0.6180 0.6250 0.6280 0.6290
1395.310357 0.6340 0.6340 0.6340 0.6350 0.6350
1398.879971 0.6350 0.6350 0.6340 0.6340 0.6320
1402.449585 0.6320 0.6310 0.6310 0.6290 0.6290
1406.019199 0.6280 0.6280 0.6260 0.6260 0.6250
1409.588813 0.6220 0.6190 0.6180 0.6150 0.6140
1413.158428 0.6120 0.6090 0.6070 0.6020 0.6000
1416.728042 0.5980 0.5970 0.5950 0.5920 0.5920
1420.297656 0.5910 0.5910 0.5910 0.5900 0.5900
1423.867270 0.5900 0.5880 0.5880 0.5870 0.5870
1427.436884 0.5870 0.5850 0.5850 0.5870 0.5870
1431.006499 0.5870 0.5880 0.5880 0.5900 0.5900
1434.576113 0.5900 0.5900 0.5900 0.5900 0.5880
1438.145727 0.5870 0.5870 0.5850 0.5840 0.5840
1441.715341 0.5820 0.5780 0.5750 0.5710 0.5580
1445.284956 0.5570 0.5480 0.5390 0.5310 0.5200
1448.854570 0.5090 0.4990 0.4870 0.4760 0.4660
1452.424184 0.4549 0.4339 0.4120 0.3910 0.3820
1455.993798 0.3770 0.3650 0.3640 0.3600 0.3570
1459.563412 0.3560 0.3530 0.3510 0.3500 0.3480
1463.133027 0.3480 0.3480 0.3480 0.3500 0.3530
1466.702641 0.3560 0.3580 0.3650 0.3750 0.3940
1470.272255 0.4110 0.4110 0.4120 0.4390 0.4619
1473.841869 0.5071 0.5310 0.5390 0.5430 0.5510
1477.411484 0.5570 0.5640 0.5770 0.5850 0.6000
1480.981098 0.6010 0.6090 0.6180 0.6260 0.6420
1484.550712 0.6680 0.6700 0.6870 0.6900 0.7090
1488.120326 0.7291 0.7460 0.7510 0.7540 0.7570
1491.689940 0.7580 0.7600 0.7610 0.7630 0.7700
1495.259555 0.7710 0.7730 0.7820 0.7840 0.7850
1498.829169 0.7870 0.7900 0.7910 0.7910 0.7970
1502.398783 0.8040 0.8110 0.8140 0.8180 0.8190
1505.968397 0.8190 0.8190 0.8210 0.8210 0.8210
1509.538011 0.8210 0.8210 0.8220 0.8220 0.8220
1513.107626 0.8220 0.8220 0.8220 0.8240 0.8240
1516.677240 0.8240 0.8240 0.8240 0.8220 0.8220
1520.246854 0.8220 0.8220 0.8240 0.8260 0.8340
1523.816468 0.8390 0.8390 0.8390 0.8390 0.8410
1527.386083 0.8410 0.8410 0.8410 0.8420 0.8420
1530.955697 0.8420 0.8430 0.8430 0.8430 0.8430
1534.525311 0.8450 0.8450 0.8450 0.8430 0.8430
1538.094925 0.8430 0.8420 0.8420 0.8420 0.8420
1541.664539 0.8420 0.8430 0.8430 0.8430 0.8430
1545.234154 0.8450 0.8450 0.8460 0.8460 0.8460
1548.803768 0.8460 0.8460 0.8480 0.8480 0.8480
1552.373382 0.8480 0.8480 0.8480 0.8480 0.8480
1555.942996 0.8480 0.8480 0.8490 0.8490 0.8490
1559.512611 0.8490 0.8490 0.8490 0.8490 0.8490
1563.082225 0.8490 0.8490 0.8490 0.8490 0.8490
1566.651839 0.8490 0.8490 0.8490 0.8490 0.8490
1570.221453 0.8490 0.8510 0.8520 0.8520 0.8520
1573.791067 0.8520 0.8520 0.8530 0.8520 0.8530
1577.360682 0.8530 0.8530 0.8520 0.8520 0.8520
1580.930296 0.8520 0.8520 0.8520 0.8530 0.8530
1584.499910 0.8530 0.8550 0.8530 0.8530 0.8530
1588.069524 0.8550 0.8550 0.8550 0.8550 0.8560
1591.639139 0.8560 0.8560 0.8560 0.8560 0.8560
1595.208753 0.8560 0.8560 0.8560 0.8560 0.8580
1598.778367 0.8580 0.8580 0.8580 0.8580 0.8580
1602.347981 0.8580 0.8580 0.8580 0.8590 0.8590
1605.917595 0.8590 0.8580 0.8580 0.8580 0.8580
1609.487210 0.8580 0.8580 0.8580 0.8580 0.8580
1613.056824 0.8580 0.8580 0.8580 0.8580 0.8580
1616.626438 0.8580 0.8580 0.8580 0.8580 0.8580
1620.196052 0.8580 0.8580 0.8580 0.8580 0.8580
1623.765666 0.8580 0.8580 0.8580 0.8600 0.8580
1627.335281 0.8580 0.8580 0.8580 0.8580 0.8580
1630.904895 0.8580 0.8560 0.8560 0.8560 0.8560
1634.474509 0.8560 0.8560 0.8560 0.8560 0.8560
1638.044123 0.8580 0.8580 0.8580 0.8580 0.8580
1641.613738 0.8590 0.8590 0.8600 0.8600 0.8600
1645.183352 0.8600 0.8600 0.8590 0.8590 0.8600
1648.752966 0.8600 0.8600 0.8600 0.8600 0.8620
1652.322580 0.8620 0.8620 0.8620 0.8600 0.8600
1655.892194 0.8600 0.8590 0.8600 0.8600 0.8600
1659.461809 0.8620 0.8620 0.8620 0.8650 0.8650
1663.031423 0.8660 0.8660 0.8660 0.8660 0.8680
1666.601037 0.8680 0.8680 0.8680 0.8680 0.8680
1670.170651 0.8680 0.8680 0.8680 0.8680 0.8680
1673.740266 0.8680 0.8680 0.8680 0.8680 0.8680
1677.309880 0.8680 0.8680 0.8680 0.8680 0.8680
1680.879494 0.8690 0.8690 0.8680 0.8680 0.8680
1684.449108 0.8690 0.8690 0.8690 0.8690 0.8690
1688.018722 0.8690 0.8690 0.8690 0.8690 0.8690
1691.588337 0.8690 0.8690 0.8690 0.8690 0.8690
1695.157951 0.8690 0.8690 0.8690 0.8690 0.8690
1698.727565 0.8690 0.8690 0.8690 0.8660 0.8660
1702.297179 0.8680 0.8680 0.8680 0.8680 0.8680
1705.866794 0.8680 0.8680 0.8680 0.8680 0.8680
1709.436408 0.8680 0.8680 0.8680 0.8680 0.8680
1713.006022 0.8680 0.8680 0.8680 0.8680 0.8690
1716.575636 0.8700 0.8690 0.8690 0.8690 0.8690
1720.145250 0.8690 0.8690 0.8690 0.8700 0.8700
1723.714865 0.8700 0.8700 0.8700 0.8690 0.8690
1727.284479 0.8690 0.8690 0.8690 0.8700 0.8680
1730.854093 0.8680 0.8680 0.8680 0.8680 0.8680
1734.423707 0.8680 0.8680 0.8680 0.8680 0.8680
1737.993321 0.8680 0.8680 0.8680 0.8680 0.8680
1741.562936 0.8680 0.8680 0.8680 0.8680 0.8680
1745.132550 0.8680 0.8680 0.8680 0.8680 0.8680
1748.702164 0.8680 0.8680 0.8680 0.8680 0.8680
1752.271778 0.8680 0.8680 0.8680 0.8680 0.8680
1755.841393 0.8680 0.8680 0.8680 0.8680 0.8680
1759.411007 0.8680 0.8680 0.8680 0.8680 0.8680
1762.980621 0.8680 0.8680 0.8680 0.8680 0.8680
1766.550235 0.8680 0.8680 0.8680 0.8680 0.8680
1770.119849 0.8680 0.8680 0.8680 0.8680 0.8680
1773.689464 0.8680 0.8680 0.8680 0.8680 0.8680
1777.259078 0.8680 0.8680 0.8680 0.8680 0.8680
1780.828692 0.8680 0.8680 0.8680 0.8680 0.8680
1784.398306 0.8700 0.8700 0.8700 0.8700 0.8700
1787.967921 0.8700 0.8700 0.8700 0.8700 0.8700
1791.537535 0.8700 0.8700 0.8700 0.8700 0.8700
1795.107149 0.8700 0.8700 0.8700 0.8700 0.8700
1798.676763 0.8700 0.8690 0.8700 0.8700 0.8700
1802.246377 0.8690 0.8690 0.8690 0.8690 0.8690
1805.815992 0.8690 0.8690 0.8690 0.8690 0.8720
1809.385606 0.8720 0.8720 0.8720 0.8720 0.8720
1812.955220 0.8720 0.8720 0.8720 0.8690 0.8720
1816.524834 0.8720 0.8720 0.8720 0.8720 0.8720
1820.094449 0.8720 0.8720 0.8720 0.8720 0.8720
1823.664063 0.8720 0.8730 0.8730 0.8700 0.8700
1827.233677 0.8700 0.8700 0.8700 0.8700 0.8700
1830.803291 0.8700 0.8700 0.8700 0.8700 0.8700
1834.372905 0.8700 0.8700 0.8700 0.8700 0.8700
1837.942520 0.8700 0.8700 0.8700 0.8700 0.8700
1841.512134 0.8700 0.8700 0.8700 0.8700 0.8700
1845.081748 0.8700 0.8720 0.8720 0.8730 0.8730
1848.651362 0.8730 0.8750 0.8750 0.8750 0.8730
1852.220976 0.8730 0.8730 0.8730 0.8730 0.8730
1855.790591 0.8730 0.8730 0.8730 0.8730 0.8730
1859.360205 0.8750 0.8750 0.8730 0.8730 0.8730
1862.929819 0.8730 0.8750 0.8750 0.8750 0.8750
1866.499433 0.8730 0.8730 0.8730 0.8750 0.8750
1870.069048 0.8720 0.8720 0.8720 0.8720 0.8720
1873.638662 0.8720 0.8720 0.8720 0.8720 0.8720
1877.208276 0.8720 0.8720 0.8720 0.8720 0.8720
1880.777890 0.8720 0.8720 0.8720 0.8720 0.8720
1884.347504 0.8720 0.8720 0.8720 0.8720 0.8720
1887.917119 0.8720 0.8720 0.8720 0.8730 0.8730
1891.486733 0.8730 0.8750 0.8750 0.8750 0.8750
1895.056347 0.8750 0.8750 0.8750 0.8750 0.8750
1898.625961 0.8750 0.8760 0.8730 0.8730 0.8730
1902.195576 0.8730 0.8730 0.8730 0.8730 0.8730
1905.765190 0.8730 0.8730 0.8730 0.8730 0.8730
1909.334804 0.8730 0.8730 0.8730 0.8750 0.8750
1912.904418 0.8750 0.8730 0.8730 0.8730 0.8750
1916.474032 0.8750 0.8750 0.8750 0.8760 0.8760
1920.043647 0.8750 0.8750 0.8750 0.8730 0.8730
1923.613261 0.8730 0.8760 0.8760 0.8750 0.8750
1927.182875 0.8750 0.8750 0.8750 0.8760 0.8760
1930.752489 0.8760 0.8760 0.8760 0.8760 0.8760
1934.322103 0.8760 0.8760 0.8760 0.8760 0.8760
1937.891718 0.8760 0.8760 0.8760 0.8750 0.8750
1941.461332 0.8750 0.8760 0.8750 0.8750 0.8730
1945.030946 0.8730 0.8750 0.8750 0.8750 0.8750
1948.600560 0.8760 0.8760 0.8760 0.8760 0.8760
1952.170175 0.8760 0.8750 0.8760 0.8760 0.8780
1955.739789 0.8780 0.8780 0.8780 0.8780 0.8780
1959.309403 0.8780 0.8780 0.8780 0.8780 0.8780
1962.879017 0.8780 0.8780 0.8780 0.8780 0.8780
1966.448631 0.8780 0.8780 0.8760 0.8780 0.8780
1970.018246 0.8790 0.8790 0.8790 0.8790 0.8800
1973.587860 0.8800 0.8820 0.8820 0.8800 0.8800
1977.157474 0.8800 0.8800 0.8820 0.8820 0.8830
1980.727088 0.8820 0.8820 0.8830 0.8830 0.8830
1984.296703 0.8830 0.8830 0.8830 0.8830 0.8830
1987.866317 0.8850 0.8850 0.8860 0.8860 0.8860
1991.435931 0.8860 0.8860 0.8860 0.8860 0.8850
1995.005545 0.8830 0.8830 0.8800 0.8730 0.8700
1998.575159 0.8630 0.8600 0.8580 0.8580 0.8580
2002.144774 0.8580 0.8580 0.8575 0.8570 0.8565
2005.714388 0.8560 0.8558 0.8555 0.8553 0.8550
2009.284002 0.8550 0.8550 0.8550 0.8550 0.8550
2012.853616 0.8550 0.8550 0.8550 0.8550 0.8550
2016.423231 0.8550 0.8550 0.8550 0.8550 0.8550
2019.992845 0.8550 0.8552 0.8555 0.8557 0.8560
2023.562459 0.8560 0.8560 0.8560 0.8560 0.8564
2027.132073 0.8569 0.8574 0.8579 0.8580 0.8580
2030.701687 0.8580 0.8580 0.8582 0.8584 0.8587
2034.271302 0.8589 0.8590 0.8590 0.8590 0.8590
2037.840916 0.8590 0.8590 0.8590 0.8590 0.8590
2041.410530 0.8590 0.8590 0.8590 0.8590 0.8590
2044.980144 0.8590 0.8590 0.8590 0.8590 0.8590
2048.549758 0.8590 0.8590 0.8590 0.8590 0.8590
2052.119373 0.8592 0.8594 0.8596 0.8599 0.8600
2055.688987 0.8600 0.8600 0.8600 0.8603 0.8608
2059.258601 0.8613 0.8618 0.8620 0.8620 0.8620
2062.828215 0.8620 0.8620 0.8620 0.8620 0.8620
2066.397830 0.8620 0.8620 0.8620 0.8620 0.8621
2069.967444 0.8624 0.8626 0.8629 0.8630 0.8630
2073.537058 0.8630 0.8630 0.8630 0.8630 0.8630
2077.106672 0.8630 0.8630 0.8630 0.8630 0.8630
2080.676286 0.8630 0.8630 0.8630 0.8630 0.8630
2084.245901 0.8630 0.8630 0.8630 0.8630 0.8630
2087.815515 0.8630 0.8630 0.8630 0.8630 0.8630
2091.385129 0.8630 0.8630 0.8630 0.8630 0.8630
2094.954743 0.8630 0.8630 0.8630 0.8630 0.8630
2098.524358 0.8630 0.8630 0.8630 0.8630 0.8630
2102.093972 0.8630 0.8630 0.8630 0.8630 0.8630
2105.663586 0.8630 0.8630 0.8630 0.8630 0.8630
2109.233200 0.8630 0.8630 0.8630 0.8630 0.8630
2112.802814 0.8630 0.8630 0.8630 0.8630 0.8630
2116.372429 0.8630 0.8630 0.8630 0.8630 0.8630
2119.942043 0.8630 0.8630 0.8630 0.8630 0.8630
2123.511657 0.8630 0.8630 0.8630 0.8630 0.8630
2127.081271 0.8630 0.8630 0.8630 0.8630 0.8630
2130.650886 0.8630 0.8630 0.8630 0.8630 0.8630
2134.220500 0.8630 0.8630 0.8630 0.8630 0.8630
2137.790114 0.8630 0.8630 0.8630 0.8630 0.8630
2141.359728 0.8622 0.8615 0.8607 0.8600 0.8600
2144.929342 0.8600 0.8600 0.8600 0.8600 0.8600
2148.498957 0.8600 0.8600 0.8600 0.8600 0.8600
2152.068571 0.8600 0.8600 0.8600 0.8600 0.8600
2155.638185 0.8600 0.8600 0.8600 0.8600 0.8598
2159.207799 0.8595 0.8593 0.8590 0.8592 0.8595
2162.777413 0.8597 0.8600 0.8600 0.8600 0.8600
2166.347028 0.8600 0.8600 0.8600 0.8600 0.8600
2169.916642 0.8600 0.8600 0.8600 0.8600 0.8600
2173.486256 0.8600 0.8600 0.8600 0.8600 0.8600
2177.055870 0.8600 0.8600 0.8600 0.8600 0.8600
2180.625485 0.8600 0.8600 0.8600 0.8600 0.8600
2184.195099 0.8600 0.8600 0.8600 0.8600 0.8600
2187.764713 0.8600 0.8600 0.8600 0.8598 0.8596
2191.334327 0.8593 0.8591 0.8597 0.8607 0.8617
2194.903941 0.8627 0.8628 0.8626 0.8623 0.8621
2198.473556 0.8620 0.8620 0.8620 0.8620 0.8620
2202.043170 0.8620 0.8620 0.8620 0.8620 0.8620
2205.612784 0.8620 0.8620 0.8620 0.8620 0.8620
2209.182398 0.8620 0.8620 0.8620 0.8620 0.8620
2212.752013 0.8620 0.8620 0.8620 0.8620 0.8620
2216.321627 0.8620 0.8620 0.8620 0.8620 0.8620
2219.891241 0.8620 0.8620 0.8620 0.8620 0.8620
2223.460855 0.8620 0.8620 0.8620 0.8620 0.8620
2227.030469 0.8620 0.8620 0.8620 0.8620 0.8620
2230.600084 0.8620 0.8620 0.8620 0.8620 0.8620
2234.169698 0.8620 0.8620 0.8617 0.8609 0.8602
2237.739312 0.8595 0.8590 0.8590 0.8590 0.8590
2241.308926 0.8590 0.8590 0.8590 0.8590 0.8590
2244.878541 0.8590 0.8590 0.8590 0.8590 0.8590
2248.448155 0.8590 0.8590 0.8590 0.8590 0.8590
2252.017769 0.8590 0.8590 0.8590 0.8590 0.8590
2255.587383 0.8590 0.8590 0.8590 0.8590 0.8590
2259.156997 0.8590 0.8590 0.8590 0.8590 0.8590
2262.726612 0.8590 0.8590 0.8590 0.8590 0.8590
2266.296226 0.8590 0.8590 0.8590 0.8590 0.8590
2269.865840 0.8590 0.8590 0.8590 0.8590 0.8590
2273.435454 0.8587 0.8585 0.8582 0.8580 0.8580
2277.005068 0.8580 0.8580 0.8580 0.8585 0.8590
2280.574683 0.8595 0.8600 0.8600 0.8600 0.8600
2284.144297 0.8600 0.8600 0.8600 0.8600 0.8600
2287.713911 0.8600 0.8600 0.8600 0.8600 0.8600
2291.283525 0.8600 0.8600 0.8600 0.8600 0.8600
2294.853140 0.8600 0.8600 0.8600 0.8600 0.8600
2298.422754 0.8600 0.8600 0.8600 0.8600 0.8600
2301.992368 0.8600 0.8600 0.8600 0.8600 0.8600
2305.561982 0.8600 0.8600 0.8600 0.8600 0.8600
2309.131596 0.8600 0.8600 0.8600 0.8600 0.8600
2312.701211 0.8600 0.8600 0.8600 0.8600 0.8600
2316.270825 0.8600 0.8600 0.8600 0.8600 0.8600
2319.840439 0.8600 0.8600 0.8600 0.8596 0.8591
2323.410053 0.8586 0.8581 0.8580 0.8580 0.8580
2326.979668 0.8580 0.8580 0.8580 0.8580 0.8580
2330.549282 0.8580 0.8580 0.8580 0.8580 0.8580
2334.118896 0.8580 0.8580 0.8580 0.8576 0.8571
2337.688510 0.8567 0.8562 0.8565 0.8573 0.8580
2341.258124 0.8587 0.8590 0.8590 0.8590 0.8590
2344.827739 0.8590 0.8590 0.8590 0.8590 0.8590
2348.397353 0.8590 0.8590 0.8590 0.8590 0.8590
2351.966967 0.8590 0.8590 0.8590 0.8590 0.8590
2355.536581 0.8590 0.8589 0.8586 0.8584 0.8581
2359.106195 0.8577 0.8572 0.8567 0.8562 0.8559
2362.675810 0.8556 0.8554 0.8551 0.8550 0.8550
2366.245424 0.8550 0.8550 0.8550 0.8550 0.8550
2369.815038 0.8550 0.8548 0.8543 0.8538 0.8533
2373.384652 0.8530 0.8530 0.8530 0.8530 0.8530
2376.954267 0.8530 0.8530 0.8530 0.8530 0.8530
2380.523881 0.8530 0.8530 0.8529 0.8526 0.8524
2384.093495 0.8521 0.8520 0.8520 0.8520 0.8520
2387.663109 0.8520 0.8520 0.8520 0.8520 0.8520
2391.232723 0.8520 0.8520 0.8520 0.8519 0.8517
2394.802338 0.8514 0.8512 0.8510 0.8510 0.8510
2398.371952 0.8510 0.8509 0.8504 0.8499 0.8493
2401.941566 0.8490 0.8490 0.8490 0.8490 0.8490
2405.511180 0.8490 0.8490 0.8490 0.8490 0.8490
2409.080795 0.8490 0.8490 0.8490 0.8490 0.8490
2412.650409 0.8490 0.8491 0.8496 0.8501 0.8506
2416.220023 0.8510 0.8510 0.8510 0.8510 0.8510
2419.789637 0.8510 0.8510 0.8510 0.8510 0.8510
2423.359251 0.8510 0.8510 0.8510 0.8510 0.8510
2426.928866 0.8510 0.8510 0.8510 0.8510 0.8510
2430.498480 0.8510 0.8510 0.8510 0.8510 0.8510
2434.068094 0.8510 0.8510 0.8510 0.8510 0.8502
2437.637708 0.8495 0.8487 0.8480 0.8480 0.8480
2441.207323 0.8480 0.8480 0.8475 0.8470 0.8465
2444.776937 0.8460 0.8460 0.8460 0.8460 0.8460
2448.346551 0.8460 0.8460 0.8460 0.8460 0.8460
2451.916165 0.8460 0.8460 0.8460 0.8460 0.8460
2455.485779 0.8460 0.8460 0.8460 0.8460 0.8460
2459.055394 0.8460 0.8460 0.8460 0.8460 0.8460
2462.625008 0.8460 0.8460 0.8460 0.8460 0.8460
2466.194622 0.8460 0.8460 0.8460 0.8460 0.8460
2469.764236 0.8460 0.8460 0.8464 0.8469 0.8474
2473.333850 0.8479 0.8480 0.8480 0.8480 0.8480
2476.903465 0.8482 0.8484 0.8487 0.8489 0.8490
2480.473079 0.8490 0.8490 0.8490 0.8488 0.8486
2484.042693 0.8483 0.8481 0.8480 0.8480 0.8480
2487.612307 0.8480 0.8480 0.8480 0.8480 0.8480
2491.181922 0.8480 0.8480 0.8480 0.8480 0.8477
2494.751536 0.8472 0.8467 0.8462 0.8460 0.8460
2498.321150 0.8460 0.8460 0.8458 0.8456 0.8453
2501.890764 0.8451 0.8447 0.8442 0.8437 0.8432
2505.460378 0.8429 0.8426 0.8424 0.8421 0.8419
2509.029993 0.8416 0.8414 0.8411 0.8410 0.8410
2512.599607 0.8410 0.8410 0.8410 0.8410 0.8410
2516.169221 0.8410 0.8407 0.8402 0.8397 0.8392
2519.738835 0.8390 0.8390 0.8390 0.8390 0.8386
2523.308450 0.8379 0.8371 0.8364 0.8360 0.8360
2526.878064 0.8360 0.8360 0.8359 0.8356 0.8354
2530.447678 0.8351 0.8350 0.8350 0.8350 0.8350
2534.017292 0.8350 0.8350 0.8350 0.8350 0.8349
2537.586906 0.8347 0.8344 0.8342 0.8340 0.8340
2541.156521 0.8340 0.8340 0.8338 0.8333 0.8328
2544.726135 0.8323 0.8320 0.8320 0.8320 0.8320
2548.295749 0.8319 0.8317 0.8314 0.8312 0.8310
2551.865363 0.8310 0.8310 0.8310 0.8309 0.8304
2555.434978 0.8299 0.8294 0.8290 0.8290 0.8290
2559.004592 0.8290 0.8289 0.8287 0.8284 0.8282
2562.574206 0.8280 0.8280 0.8280 0.8280 0.8280
2566.143820 0.8280 0.8280 0.8280 0.8279 0.8274
2569.713434 0.8269 0.8264 0.8260 0.8260 0.8260
2573.283049 0.8260 0.8260 0.8257 0.8255 0.8252
2576.852663 0.8250 0.8250 0.8250 0.8250 0.8250
2580.422277 0.8247 0.8245 0.8242 0.8240 0.8235
2583.991891 0.8230 0.8225 0.8220 0.8220 0.8220
2587.561505 0.8220 0.8220 0.8217 0.8215 0.8212
2591.131120 0.8210 0.8210 0.8210 0.8210 0.8210
2594.700734 0.8210 0.8210 0.8210 0.8210 0.8205
2598.270348 0.8200 0.8195 0.8190 0.8190 0.8190
2601.839962 0.8190 0.8190 0.8188 0.8185 0.8183
2605.409577 0.8180 0.8180 0.8180 0.8180 0.8180
2608.979191 0.8178 0.8175 0.8173 0.8170 0.8170
2612.548805 0.8170 0.8170 0.8170 0.8166 0.8161
2616.118419 0.8156 0.8151 0.8148 0.8145 0.8143
2619.688033 0.8140 0.8136 0.8131 0.8126 0.8121
2623.257648 0.8120 0.8120 0.8120 0.8120 0.8120
2626.827262 0.8120 0.8120 0.8120 0.8118 0.8116
2630.396876 0.8113 0.8111 0.8110 0.8110 0.8110
2633.966490 0.8110 0.8110 0.8110 0.8110 0.8110
2637.536105 0.8112 0.8114 0.8117 0.8119 0.8118
2641.105719 0.8116 0.8113 0.8111 0.8110 0.8110
2644.675333 0.8110 0.8110 0.8110 0.8110 0.8110
2648.244947 0.8110 0.8107 0.8102 0.8097 0.8092
2651.814561 0.8090 0.8090 0.8090 0.8090 0.8090
2655.384176 0.8090 0.8090 0.8090 0.8090 0.8090
2658.953790 0.8090 0.8090 0.8089 0.8086 0.8084
2662.523404 0.8081 0.8079 0.8076 0.8074 0.8071
2666.093018 0.8067 0.8062 0.8057 0.8052 0.8049
2669.662633 0.8046 0.8044 0.8041 0.8038 0.8033
2673.232247 0.8028 0.8023 0.8016 0.8006 0.7996
2676.801861 0.7986 0.7977 0.7969 0.7962 0.7954
2680.371475 0.7949 0.7947 0.7944 0.7942 0.7938
2683.941089 0.7933 0.7928 0.7923 0.7916 0.7906
2687.510704 0.7896 0.7886 0.7876 0.7866 0.7856
2691.080318 0.7846 0.7840 0.7840 0.7840 0.7840
2694.649932 0.7835 0.7820 0.7805 0.7790 0.7778
2698.219546 0.7770 0.7763 0.7755 0.7749 0.7747
2701.789160 0.7744 0.7742 0.7739 0.7737 0.7734
2705.358775 0.7732 0.7728 0.7721 0.7713 0.7706
2708.928389 0.7699 0.7694 0.7689 0.7684 0.7679
2712.498003 0.7671 0.7664 0.7656 0.7648 0.7635
2716.067617 0.7623 0.7610 0.7599 0.7594 0.7589
2719.637232 0.7584 0.7580 0.7580 0.7580 0.7580
2723.206846 0.7580 0.7580 0.7580 0.7580 0.7580
2726.776460 0.7580 0.7580 0.7580 0.7580 0.7580
2730.346074 0.7580 0.7580 0.7580 0.7580 0.7580
2733.915688 0.7580 0.7580 0.7580 0.7580 0.7580
2737.485303 0.7580 0.7577 0.7575 0.7573 0.7570
2741.054917 0.7570 0.7570 0.7570 0.7570 0.7568
2744.624531 0.7565 0.7563 0.7560 0.7555 0.7550
2748.194145 0.7545 0.7540 0.7538 0.7535 0.7533
2751.763760 0.7530 0.7525 0.7520 0.7515 0.7510
2755.333374 0.7510 0.7510 0.7510 0.7510 0.7508
2758.902988 0.7505 0.7503 0.7500 0.7496 0.7491
2762.472602 0.7486 0.7481 0.7478 0.7475 0.7473
2766.042216 0.7470 0.7462 0.7452 0.7442 0.7432
2769.611831 0.7422 0.7412 0.7402 0.7392 0.7378
2773.181445 0.7363 0.7348 0.7333 0.7322 0.7312
2776.751059 0.7302 0.7292 0.7280 0.7268 0.7255
2780.320673 0.7243 0.7233 0.7223 0.7213 0.7203
2783.890287 0.7193 0.7183 0.7173 0.7163 0.7137
2787.459902 0.7105 0.7073 0.7040 0.7013 0.6988
2791.029516 0.6963 0.6939 0.6917 0.6897 0.6877
2794.599130 0.6857 0.6834 0.6810 0.6785 0.6760
2798.168744 0.6736 0.6714 0.6692 0.6669 0.6648
2801.738359 0.6628 0.6608 0.6588 0.6565 0.6540
2805.307973 0.6515 0.6490 0.6467 0.6445 0.6422
2808.877587 0.6400 0.6365 0.6320 0.6275 0.6231
2812.447201 0.6193 0.6160 0.6128 0.6096 0.6057
2816.016815 0.6012 0.5968 0.5923 0.5884 0.5852
2819.586430 0.5820 0.5787 0.5752 0.5712 0.5672
2823.156044 0.5632 0.5602 0.5585 0.5568 0.5550
2826.725658 0.5533 0.5515 0.5498 0.5481 0.5457
2830.295272 0.5425 0.5392 0.5359 0.5325 0.5291
2833.864887 0.5256 0.5221 0.5186 0.5152 0.5117
2837.434501 0.5082 0.5022 0.4921 0.4819 0.4717
2841.004115 0.4624 0.4550 0.4475 0.4401 0.4328
2844.573729 0.4258 0.4189 0.4119 0.4048 0.3974
2848.143343 0.3899 0.3825 0.3751 0.3679 0.3607
2851.712958 0.3534 0.3472 0.3437 0.3402 0.3367
2855.282572 0.3332 0.3298 0.3263 0.3228 0.3169
2858.852186 0.3007 0.2846 0.2685 0.2539 0.2447
2862.421800 0.2355 0.2263 0.2161 0.2017 0.1873
2865.991415 0.1729 0.1602 0.1557 0.1513 0.1468
2869.561029 0.1430 0.1433 0.1435 0.1438 0.1442
2873.130643 0.1457 0.1472 0.1487 0.1502 0.1519
2876.700257 0.1537 0.1554 0.1576 0.1653 0.1730
2880.269871 0.1807 0.1882 0.1914 0.1946 0.1979
2883.839486 0.2011 0.2061 0.2111 0.2160 0.2210
2887.409100 0.2210 0.2210 0.2210 0.2210 0.2200
2890.978714 0.2190 0.2180 0.2170 0.2155 0.2140
2894.548328 0.2125 0.2110 0.2100 0.2090 0.2080
2898.117942 0.2070 0.2015 0.1958 0.1901 0.1844
2901.687557 0.1794 0.1744 0.1694 0.1645 0.1622
2905.257171 0.1602 0.1582 0.1562 0.1538 0.1513
2908.826785 0.1488 0.1464 0.1439 0.1414 0.1389
2912.396399 0.1364 0.1346 0.1328 0.1311 0.1293
2915.966014 0.1280 0.1267 0.1255 0.1242 0.1225
2919.535628 0.1208 0.1191 0.1173 0.1154 0.1134
2923.105242 0.1114 0.1094 0.1090 0.1090 0.1090
2926.674856 0.1090 0.1098 0.1108 0.1117 0.1127
2930.244470 0.1143 0.1160 0.1178 0.1195 0.1207
2933.814085 0.1217 0.1227 0.1237 0.1261 0.1290
2937.383699 0.1320 0.1350 0.1355 0.1348 0.1340
2940.953313 0.1333 0.1289 0.1224 0.1159 0.1095
2944.522927 0.1059 0.1041 0.1024 0.1006 0.0987
2948.092542 0.0967 0.0947 0.0927 0.0898 0.0864
2951.662156 0.0829 0.0794 0.0758 0.0720 0.0683
2955.231770 0.0646 0.0609 0.0571 0.0534 0.0497
2958.801384 0.0476 0.0468 0.0461 0.0454 0.0451
2962.370998 0.0454 0.0456 0.0459 0.0599 0.0877
2965.940613 0.1155 0.1434 0.1632 0.1741 0.1850
2969.510227 0.1960 0.2114 0.2322 0.2531 0.2740
2973.079841 0.2919 0.3057 0.3196 0.3335 0.3531
2976.649455 0.3797 0.4063 0.4329 0.4589 0.4843
2980.219070 0.5096 0.5349 0.5554 0.5689 0.5823
2983.788684 0.5957 0.6041 0.6043 0.6046 0.6048
2987.358298 0.6071 0.6131 0.6190 0.6250 0.6329
2990.927912 0.6445 0.6562 0.6679 0.6762 0.6766
2994.497526 0.6771 0.6776 0.6788 0.6815 0.6842
2998.067141 0.6870 0.6897 0.6924 0.6952 0.6979
3001.636755 0.7012 0.7062 0.7112 0.7163 0.7201
3005.206369 0.7203 0.7206 0.7208 0.7215 0.7238
3008.775983 0.7260 0.7282 0.7303 0.7318 0.7333
3012.345597 0.7348 0.7362 0.7372 0.7382 0.7392
3015.915212 0.7400 0.7403 0.7405 0.7408 0.7410
3019.484826 0.7410 0.7410 0.7410 0.7411 0.7416
3023.054440 0.7420 0.7425 0.7430 0.7430 0.7430
3026.624054 0.7430 0.7430 0.7430 0.7430 0.7430
3030.193669 0.7430 0.7430 0.7430 0.7430 0.7430
3033.763283 0.7430 0.7430 0.7430 0.7430 0.7425
3037.332897 0.7420 0.7415 0.7410 0.7407 0.7405
3040.902511 0.7402 0.7400 0.7400 0.7400 0.7400
3044.472125 0.7400 0.7398 0.7395 0.7393 0.7390
3048.041740 0.7385 0.7380 0.7375 0.7370 0.7363
3051.611354 0.7356 0.7348 0.7341 0.7333 0.7326
3055.180968 0.7318 0.7311 0.7306 0.7301 0.7296
3058.750582 0.7291 0.7284 0.7276 0.7268 0.7261
3062.320197 0.7247 0.7232 0.7217 0.7202 0.7192
3065.889811 0.7182 0.7172 0.7162 0.7152 0.7142
3069.459425 0.7132 0.7122 0.7114 0.7107 0.7099
3073.029039 0.7092 0.7090 0.7090 0.7090 0.7090
3076.598653 0.7086 0.7081 0.7076 0.7071 0.7065
3080.168268 0.7057 0.7050 0.7042 0.7021 0.6993
3083.737882 0.6966 0.6939 0.6918 0.6901 0.6883
3087.307496 0.6866 0.6853 0.6843 0.6833 0.6823
3090.877110 0.6815 0.6807 0.6800 0.6793 0.6788
3094.446725 0.6786 0.6783 0.6781 0.6777 0.6772
3098.016339 0.6767 0.6762 0.6754 0.6744 0.6734
3101.585953 0.6724 0.6697 0.6657 0.6617 0.6577
3105.155567 0.6550 0.6533 0.6515 0.6498 0.6485
3108.725181 0.6475 0.6465 0.6455 0.6445 0.6435
3112.294796 0.6425 0.6415 0.6402 0.6384 0.6367
3115.864410 0.6349 0.6334 0.6322 0.6309 0.6296
3119.434024 0.6264 0.6212 0.6160 0.6108 0.6075
3123.003638 0.6065 0.6055 0.6046 0.6038 0.6033
3126.573252 0.6028 0.6023 0.6013 0.5995 0.5978
3130.142867 0.5961 0.5939 0.5912 0.5885 0.5857
3133.712481 0.5831 0.5806 0.5781 0.5756 0.5732
3137.282095 0.5710 0.5688 0.5665 0.5644 0.5624
3140.851709 0.5604 0.5584 0.5567 0.5557 0.5547
3144.421324 0.5537 0.5527 0.5514 0.5501 0.5489
3147.990938 0.5474 0.5454 0.5434 0.5414 0.5394
3151.560552 0.5371 0.5349 0.5327 0.5305 0.5285
3155.130166 0.5265 0.5245 0.5225 0.5203 0.5180
3158.699780 0.5158 0.5133 0.5095 0.5058 0.5021
3162.269395 0.4986 0.4961 0.4936 0.4911 0.4887
3165.839009 0.4864 0.4842 0.4820 0.4798 0.4778
3169.408623 0.4758 0.4738 0.4718 0.4695 0.4673
3172.978237 0.4651 0.4628 0.4608 0.4588 0.4568
3176.547852 0.4546 0.4511 0.4477 0.4442 0.4408
3180.117466 0.4383 0.4358 0.4333 0.4309 0.4286
3183.687080 0.4264 0.4242 0.4219 0.4199 0.4180
3187.256694 0.4160 0.4140 0.4122 0.4105 0.4088
3190.826308 0.4070 0.4048 0.4026 0.4003 0.3981
3194.395923 0.3961 0.3941 0.3921 0.3901 0.3879
3197.965537 0.3857 0.3834 0.3812 0.3792 0.3772
3201.535151 0.3752 0.3732 0.3692 0.3649 0.3606
3205.104765 0.3564 0.3530 0.3498 0.3466 0.3434
3208.674379 0.3421 0.3411 0.3401 0.3391 0.3364
3212.243994 0.3334 0.3305 0.3275 0.3268 0.3265
3215.813608 0.3263 0.3260 0.3254 0.3246 0.3239
3219.383222 0.3232 0.3216 0.3199 0.3181 0.3164
3222.952836 0.3141 0.3116 0.3091 0.3066 0.3049
3226.522451 0.3034 0.3019 0.3004 0.2986 0.2966
3230.092065 0.2946 0.2926 0.2910 0.2894 0.2879
3233.661679 0.2864 0.2849 0.2834 0.2819 0.2804
3237.231293 0.2779 0.2749 0.2720 0.2690 0.2667
3240.800907 0.2647 0.2627 0.2607 0.2587 0.2567
3244.370522 0.2547 0.2527 0.2518 0.2516 0.2513
3247.940136 0.2511 0.2492 0.2462 0.2433 0.2403
3251.509750 0.2389 0.2386 0.2384 0.2381 0.2376
3255.079364 0.2368 0.2361 0.2354 0.2345 0.2335
3258.648979 0.2325 0.2315 0.2295 0.2265 0.2234
3262.218593 0.2204 0.2189 0.2186 0.2184 0.2181
3265.788207 0.2176 0.2169 0.2161 0.2154 0.2145
3269.357821 0.2135 0.2125 0.2115 0.2100 0.2077
3272.927435 0.2055 0.2033 0.2011 0.1992 0.1972
3276.497050 0.1952 0.1937 0.1930 0.1922 0.1915
3280.066664 0.1907 0.1900 0.1892 0.1885 0.1879
3283.636278 0.1877 0.1874 0.1872 0.1868 0.1860
3287.205892 0.1853 0.1845 0.1838 0.1833 0.1828
3290.775507 0.1823 0.1819 0.1817 0.1814 0.1812
3294.345121 0.1809 0.1807 0.1804 0.1802 0.1799
3297.914735 0.1794 0.1789 0.1784 0.1779 0.1777
3301.484349 0.1774 0.1772 0.1770 0.1770 0.1770
3305.053963 0.1770 0.1769 0.1764 0.1759 0.1754
3308.623578 0.1750 0.1750 0.1750 0.1750 0.1750
3312.193192 0.1750 0.1750 0.1750 0.1750 0.1750
3315.762806 0.1750 0.1750 0.1750 0.1750 0.1750
3319.332420 0.1750 0.1751 0.1756 0.1761 0.1766
3322.902034 0.1770 0.1770 0.1770 0.1770 0.1770
3326.471649 0.1773 0.1775 0.1778 0.1780 0.1785
3330.041263 0.1790 0.1795 0.1800 0.1800 0.1800
3333.610877 0.1800 0.1800 0.1803 0.1805 0.1807
3337.180491 0.1810 0.1812 0.1815 0.1817 0.1820
3340.750106 0.1825 0.1830 0.1835 0.1840 0.1847
3344.319720 0.1854 0.1862 0.1869 0.1872 0.1875
3347.889334 0.1877 0.1880 0.1887 0.1895 0.1902
3351.458948 0.1909 0.1924 0.1939 0.1954 0.1969
3355.028562 0.1972 0.1975 0.1977 0.1980 0.1984
3358.598177 0.1989 0.1994 0.1999 0.2008 0.2018
3362.167791 0.2028 0.2038 0.2048 0.2058 0.2068
3365.737405 0.2078 0.2086 0.2093 0.2101 0.2108
3369.307019 0.2116 0.2123 0.2131 0.2138 0.2146
3372.876634 0.2153 0.2161 0.2168 0.2179 0.2192
3376.446248 0.2204 0.2217 0.2233 0.2251 0.2268
3380.015862 0.2285 0.2294 0.2299 0.2304 0.2309
3383.585476 0.2328 0.2352 0.2377 0.2402 0.2441
3387.155090 0.2485 0.2530 0.2575 0.2595 0.2602
3390.724705 0.2610 0.2617 0.2626 0.2636 0.2646
3394.294319 0.2656 0.2665 0.2672 0.2679 0.2687
3397.863933 0.2703 0.2725 0.2748 0.2770 0.2791
3401.433547 0.2811 0.2831 0.2851 0.2882 0.2922
3405.003162 0.2962 0.3003 0.3036 0.3063 0.3090
3408.572776 0.3117 0.3138 0.3153 0.3168 0.3183
3412.142390 0.3203 0.3228 0.3253 0.3277 0.3300
3415.712004 0.3320 0.3340 0.3359 0.3380 0.3403
3419.281618 0.3425 0.3448 0.3468 0.3485 0.3502
3422.851233 0.3520 0.3537 0.3555 0.3572 0.3589
3426.420847 0.3600 0.3600 0.3600 0.3600 0.3610
3429.990461 0.3637 0.3665 0.3692 0.3719 0.3744
3433.560075 0.3769 0.3794 0.3819 0.3844 0.3869
3437.129689 0.3894 0.3919 0.3944 0.3968 0.3993
3440.699304 0.4018 0.4043 0.4068 0.4093 0.4117
3444.268918 0.4142 0.4167 0.4192 0.4215 0.4235
3447.838532 0.4255 0.4275 0.4296 0.4318 0.4340
3451.408146 0.4363 0.4386 0.4410 0.4435 0.4460
3454.977761 0.4490 0.4540 0.4589 0.4639 0.4680
3458.547375 0.4683 0.4685 0.4688 0.4695 0.4728
3462.116989 0.4760 0.4793 0.4825 0.4852 0.4880
3465.686603 0.4907 0.4938 0.4990 0.5043 0.5095
3469.256217 0.5141 0.5148 0.5156 0.5163 0.5173
3472.825832 0.5198 0.5222 0.5247 0.5272 0.5297
3476.395446 0.5322 0.5347 0.5374 0.5449 0.5523
3479.965060 0.5598 0.5670 0.5673 0.5675 0.5678
3483.534674 0.5680 0.5705 0.5730 0.5755 0.5780
3487.104289 0.5802 0.5824 0.5847 0.5869 0.5894
3490.673903 0.5919 0.5945 0.5970 0.5990 0.6010
3494.243517 0.6029 0.6049 0.6088 0.6128 0.6168
3497.813131 0.6208 0.6212 0.6215 0.6217 0.6220
3501.382745 0.6320 0.6429 0.6539 0.6648 0.6664
3504.952360 0.6669 0.6674 0.6679 0.6697 0.6717
3508.521974 0.6737 0.6757 0.6775 0.6792 0.6809
3512.091588 0.6827 0.6848 0.6871 0.6893 0.6915
3515.661202 0.6944 0.6973 0.7003 0.7033 0.7044
3519.230817 0.7049 0.7054 0.7059 0.7076 0.7096
3522.800431 0.7116 0.7135 0.7157 0.7180 0.7202
3526.370045 0.7224 0.7260 0.7299 0.7339 0.7379
3529.939659 0.7392 0.7394 0.7397 0.7399 0.7414
3533.509273 0.7434 0.7454 0.7473 0.7495 0.7517
3537.078888 0.7540 0.7562 0.7583 0.7603 0.7623
3540.648502 0.7642 0.7675 0.7715 0.7754 0.7794
3544.218116 0.7819 0.7834 0.7849 0.7864 0.7874
3547.787730 0.7882 0.7889 0.7897 0.7908 0.7920
3551.357344 0.7932 0.7945 0.7963 0.7985 0.8008
3554.926959 0.8030 0.8051 0.8071 0.8091 0.8111
3558.496573 0.8124 0.8131 0.8139 0.8146 0.8161
3562.066187 0.8184 0.8206 0.8228 0.8248 0.8266
3565.635801 0.8283 0.8301 0.8311 0.8314 0.8316
3569.205416 0.8319 0.8322 0.8327 0.8332 0.8337
3572.775030 0.8348 0.8368 0.8388 0.8408 0.8429
3576.344644 0.8451 0.8474 0.8497 0.8510 0.8510
3579.914258 0.8510 0.8510 0.8512 0.8517 0.8522
3583.483872 0.8527 0.8530 0.8530 0.8530 0.8530
3587.053487 0.8533 0.8540 0.8547 0.8555 0.8562
3590.623101 0.8570 0.8577 0.8585 0.8592 0.8600
3594.192715 0.8607 0.8615 0.8623 0.8633 0.8642
3597.762329 0.8652 0.8661 0.8666 0.8671 0.8676
3601.331944 0.8681 0.8686 0.8691 0.8696 0.8700
3604.901558 0.8700 0.8700 0.8700 0.8701 0.8706
3608.471172 0.8711 0.8716 0.8720 0.8723 0.8725
3612.040786 0.8728 0.8730 0.8730 0.8730 0.8730
3615.610400 0.8730 0.8730 0.8730 0.8730 0.8731
3619.180015 0.8736 0.8741 0.8745 0.8750 0.8750
3622.749629 0.8750 0.8750 0.8751 0.8758 0.8765
3626.319243 0.8773 0.8780 0.8780 0.8780 0.8780
3629.888857 0.8780 0.8783 0.8785 0.8788 0.8790
3633.458471 0.8792 0.8795 0.8798 0.8800 0.8805
3637.028086 0.8810 0.8815 0.8820 0.8832 0.8845
3640.597700 0.8857 0.8870 0.8882 0.8895 0.8907
3644.167314 0.8919 0.8922 0.8925 0.8927 0.8930
3647.736928 0.8930 0.8930 0.8930 0.8930 0.8930
3651.306543 0.8930 0.8930 0.8930 0.8934 0.8939
3654.876157 0.8944 0.8949 0.8950 0.8950 0.8950
3658.445771 0.8950 0.8950 0.8950 0.8950 0.8950
3662.015385 0.8950 0.8950 0.8950 0.8950 0.8950
3665.584999 0.8950 0.8950 0.8950 0.8950 0.8950
3669.154614 0.8950 0.8950 0.8950 0.8950 0.8950
3672.724228 0.8950 0.8952 0.8954 0.8957 0.8959
3676.293842 0.8960 0.8960 0.8960 0.8960 0.8960
3679.863456 0.8960 0.8960 0.8960 0.8960 0.8960
3683.433071 0.8960 0.8960 0.8962 0.8964 0.8967
3687.002685 0.8969 0.8970 0.8970 0.8970 0.8970
3690.572299 0.8968 0.8966 0.8963 0.8961 0.8960
3694.141913 0.8960 0.8960 0.8960 0.8960 0.8960
3697.711527 0.8960 0.8960 0.8960 0.8960 0.8960
3701.281142 0.8960 0.8961 0.8964 0.8966 0.8969
3704.850756 0.8970 0.8970 0.8970 0.8970 0.8969
3708.420370 0.8966 0.8964 0.8961 0.8960 0.8960
3711.989984 0.8960 0.8960 0.8960 0.8960 0.8960
3715.559599 0.8960 0.8961 0.8964 0.8966 0.8969
3719.129213 0.8970 0.8970 0.8970 0.8970 0.8970
3722.698827 0.8970 0.8970 0.8970 0.8970 0.8970
3726.268441 0.8970 0.8970 0.8970 0.8970 0.8970
3729.838055 0.8970 0.8969 0.8967 0.8964 0.8962
3733.407670 0.8960 0.8960 0.8960 0.8960 0.8960
3736.977284 0.8960 0.8960 0.8960 0.8960 0.8960
3740.546898 0.8960 0.8960 0.8960 0.8960 0.8960
3744.116512 0.8960 0.8960 0.8960 0.8960 0.8960
3747.686126 0.8960 0.8960 0.8960 0.8960 0.8960
3751.255741 0.8960 0.8960 0.8960 0.8960 0.8960
3754.825355 0.8960 0.8960 0.8960 0.8960 0.8960
3758.394969 0.8960 0.8960 0.8960 0.8960 0.8960
3761.964583 0.8960 0.8960 0.8960 0.8960 0.8960
3765.534198 0.8960 0.8960 0.8960 0.8960 0.8960
3769.103812 0.8960 0.8960 0.8960 0.8960 0.8960
3772.673426 0.8960 0.8960 0.8960 0.8960 0.8960
3776.243040 0.8960 0.8960 0.8960 0.8960 0.8960
3779.812654 0.8960 0.8960 0.8960 0.8960 0.8960
3783.382269 0.8960 0.8960 0.8960 0.8960 0.8960
3786.951883 0.8960 0.8960 0.8960 0.8960 0.8960
3790.521497 0.8960 0.8960 0.8960 0.8960 0.8960
3794.091111 0.8960 0.8960 0.8960 0.8960 0.8960
3797.660726 0.8960 0.8960 0.8960 0.8962 0.8965
3801.230340 0.8967 0.8970 0.8970 0.8970 0.8970
3804.799954 0.8970 0.8968 0.8965 0.8963 0.8960
3808.369568 0.8960 0.8960 0.8960 0.8960 0.8960
3811.939182 0.8960 0.8960 0.8960 0.8960 0.8960
3815.508797 0.8960 0.8960 0.8960 0.8960 0.8960
3819.078411 0.8960 0.8960 0.8960 0.8960 0.8960
3822.648025 0.8962 0.8964 0.8967 0.8969 0.8970
3826.217639 0.8970 0.8970 0.8970 0.8970 0.8970
3829.787254 0.8970 0.8970 0.8970 0.8970 0.8970
3833.356868 0.8970 0.8970 0.8970 0.8970 0.8970
3836.926482 0.8970 0.8970 0.8970 0.8970 0.8970
3840.496096 0.8970 0.8970 0.8970 0.8970 0.8970
3844.065710 0.8970 0.8970 0.8970 0.8970 0.8970
3847.635325 0.8970 0.8970 0.8970 0.8970 0.8970
3851.204939 0.8970 0.8970 0.8970 0.8970 0.8970
3854.774553 0.8970 0.8970 0.8970 0.8970 0.8970
3858.344167 0.8970 0.8970 0.8969 0.8966 0.8964
3861.913781 0.8961 0.8960 0.8960 0.8960 0.8960
3865.483396 0.8960 0.8960 0.8960 0.8960 0.8960
3869.053010 0.8960 0.8960 0.8960 0.8960 0.8960
3872.622624 0.8960 0.8960 0.8960 0.8960 0.8960
3876.192238 0.8960 0.8960 0.8960 0.8960 0.8960
3879.761853 0.8960 0.8960 0.8960 0.8960 0.8960
3883.331467 0.8960 0.8960 0.8960 0.8960 0.8960
3886.901081 0.8960 0.8960 0.8960 0.8960 0.8960
3890.470695 0.8960 0.8960 0.8960 0.8960 0.8960
3894.040309 0.8960 0.8960 0.8960 0.8960 0.8960
3897.609924 0.8960 0.8960 0.8960 0.8960 0.8960
3901.179538 0.8960 0.8960 0.8961 0.8963 0.8966
3904.749152 0.8968 0.8970 0.8970 0.8970 0.8970
3908.318766 0.8970 0.8970 0.8970 0.8970 0.8970
3911.888381 0.8970 0.8970 0.8970 0.8970 0.8970
3915.457995 0.8970 0.8970 0.8970 0.8970 0.8970
3919.027609 0.8970 0.8970 0.8970 0.8970 0.8970
3922.597223 0.8970 0.8970 0.8970 0.8970 0.8970
3926.166837 0.8967 0.8965 0.8962 0.8960 0.8960
3929.736452 0.8960 0.8960 0.8960 0.8960 0.8960
3933.306066 0.8960 0.8960 0.8960 0.8960 0.8960
3936.875680 0.8960 0.8960 0.8960 0.8960 0.8960
3940.445294 0.8962 0.8965 0.8967 0.8970 0.8961
3944.014909 0.8951 0.8941 0.8931 0.8930 0.8930
3947.584523 0.8930 0.8930 0.8930 0.8930 0.8930
3951.154137 0.8930 0.8930 0.8930 0.8930 0.8930
3954.723751 0.8930 0.8930 0.8930 0.8930 0.8930
3958.293365 0.8930 0.8930 0.8930 0.8930 0.8930
3961.862980 0.8930 0.8930 0.8930 0.8930 0.8930
3965.432594 0.8930 0.8934 0.8939 0.8944 0.8949
3969.002208 0.8952 0.8954 0.8957 0.8959 0.8958
3972.571822 0.8956 0.8953 0.8951 0.8950 0.8950
3976.141436 0.8950 0.8950 0.8950 0.8950 0.8950
3979.711051 0.8950 0.8950 0.8950 0.8950 0.8950
3983.280665 0.8947 0.8942 0.8937 0.8932 0.8933
3986.850279 0.8938 0.8943 0.8948 0.8950 0.8950
3990.419893 0.8950 0.8950 0.8947 0.8942 0.8937
3993.989508 0.8932
##END=
