##TITLE=METHANAMINE, N-METHYL-
##JCAMP-DX=4.24
##DATA TYPE=INFRARED SPECTRUM
##CLASS=COBLENTZ
##ORIGIN=DOW CHEMICAL COMPANY
##OWNER=COBLENTZ SOCIETY
Collection (C) 2018 copyright by the U.S. Secretary of Commerce
on behalf of the United States of America. All rights reserved.
##DATE=1978/04/11
##NAMES=N-methylmethanamine
N,N-dimethylamine
DIMETHYL AMINE
##CAS REGISTRY NO=124-40-3
##MOLFORM=C2 H7 N
##SOURCE REFERENCE=COBLENTZ NO. 10486
##$NIST SOURCE=COBLENTZ
##$NIST IMAGE=cob10486
##SPECTROMETER/DATA SYSTEM=BECKMAN
##STATE=GAS (16 mmHg DILUTED TO A TOTAL PRESSURE OF 600 mmHg WITH N2)
##PATH LENGTH=10 CM CELL
##SAMPLING PROCEDURE=TRANSMISSION
##RESOLUTION=4
##DATA PROCESSING=DIGITIZED BY NIST FROM HARD COPY (FROM TWO SEGMENTS)
##XUNITS=1/CM
##YUNITS=TRANSMITTANCE
##XFACTOR=1.000000
##YFACTOR=1
##DELTAX=0.974253
##FIRSTX=203.479
##LASTX=3999.17
##FIRSTY=0.015
##MAXX=3999.17
##MINX=203.479
##MAXY=0.971
##MINY=0.012
##NPOINTS=3897
##XYDATA=(X++(Y..Y))
203.479000 0.0150 0.0140 0.0140 0.0140 0.0140
208.350267 0.0140 0.0140 0.0150 0.0140 0.0140
213.221533 0.0140 0.0140 0.0140 0.0140 0.0140
218.092800 0.0140 0.0140 0.0150 0.0150 0.0140
222.964066 0.0140 0.0140 0.0140 0.0140 0.0140
227.835333 0.0140 0.0140 0.0150 0.0140 0.0140
232.706600 0.0140 0.0140 0.0140 0.0140 0.0140
237.577866 0.0140 0.0140 0.0150 0.0150 0.0150
242.449133 0.0150 0.0150 0.0150 0.0140 0.0140
247.320399 0.0140 0.0140 0.0140 0.0120 0.0120
252.191666 0.0140 0.0140 0.0140 0.0140 0.0140
257.062933 0.0140 0.0140 0.0140 0.0150 0.0150
261.934199 0.0140 0.0140 0.0140 0.0140 0.0140
266.805466 0.0140 0.0140 0.0140 0.0140 0.0140
271.676732 0.0140 0.0140 0.0140 0.0140 0.0140
276.547999 0.0150 0.0150 0.0160 0.0180 0.0180
281.419266 0.0190 0.0200 0.0220 0.0230 0.0240
286.290532 0.0250 0.0250 0.0240 0.0160 0.0140
291.161799 0.0140 0.0140 0.0150 0.0150 0.0150
296.033065 0.0160 0.0160 0.0160 0.0180 0.0180
300.904332 0.0180 0.0180 0.0190 0.0200 0.0220
305.775599 0.0230 0.0230 0.0250 0.0270 0.0280
310.646865 0.0310 0.0310 0.0320 0.0340 0.0360
315.518132 0.0370 0.0370 0.0380 0.0400 0.0410
320.389398 0.0410 0.0440 0.0450 0.0450 0.0470
325.260665 0.0500 0.0510 0.0530 0.0540 0.0580
330.131932 0.0600 0.0630 0.0680 0.0710 0.0720
335.003198 0.0730 0.0790 0.0810 0.0840 0.0860
339.874465 0.0910 0.0990 0.1030 0.1070 0.1120
344.745731 0.1170 0.1230 0.1290 0.1340 0.1390
349.616998 0.1460 0.1510 0.1580 0.1630 0.1690
354.488265 0.1760 0.1810 0.1870 0.1940 0.2000
359.359531 0.2070 0.2130 0.2200 0.2270 0.2310
364.230798 0.2390 0.2470 0.2520 0.2600 0.2640
369.102064 0.2690 0.2740 0.2820 0.2900 0.2960
373.973331 0.3030 0.3090 0.3160 0.3220 0.3339
378.844598 0.3390 0.3450 0.3520 0.3580 0.3630
383.715864 0.3700 0.3760 0.3840 0.3910 0.3970
388.587131 0.4040 0.4100 0.4150 0.4220 0.4280
393.458397 0.4330 0.4400 0.4450 0.4500 0.4570
398.329664 0.4580 0.4680 0.4770 0.4840 0.4920
403.200931 0.4980 0.5060 0.5100 0.5150 0.5200
408.072197 0.5280 0.5360 0.5420 0.5500 0.5580
412.943464 0.5680 0.5720 0.5790 0.5850 0.5950
417.814730 0.6020 0.6070 0.6120 0.6200 0.6300
422.685997 0.6380 0.6460 0.6520 0.6580 0.6679
427.557264 0.6720 0.6760 0.6800 0.6890 0.6960
432.428530 0.7000 0.7030 0.7070 0.7130 0.7200
437.299797 0.7240 0.7270 0.7310 0.7350 0.7420
442.171063 0.7500 0.7510 0.7530 0.7590 0.7620
447.042330 0.7650 0.7700 0.7730 0.7770 0.7810
451.913597 0.7840 0.7880 0.7900 0.7920 0.7990
456.784863 0.8000 0.8010 0.8040 0.8050 0.8120
461.656130 0.8160 0.8170 0.8180 0.8190 0.8230
466.527396 0.8260 0.8300 0.8320 0.8350 0.8380
471.398663 0.8390 0.8430 0.8440 0.8470 0.8490
476.269930 0.8510 0.8520 0.8530 0.8540 0.8560
481.141196 0.8570 0.8600 0.8630 0.8650 0.8660
486.012463 0.8670 0.8690 0.8700 0.8730 0.8740
490.883729 0.8760 0.8760 0.8780 0.8780 0.8780
495.754996 0.8780 0.8760 0.8760 0.8750 0.8740
500.626263 0.8740 0.8750 0.8760 0.8780 0.8790
505.497529 0.8800 0.8830 0.8860 0.8890 0.8920
510.368796 0.8920 0.8980 0.9010 0.9040 0.9060
515.240062 0.9110 0.9140 0.9150 0.9180 0.9200
520.111329 0.9200 0.9220 0.9220 0.9220 0.9200
524.982596 0.9200 0.9200 0.9190 0.9180 0.9170
529.853862 0.9140 0.9110 0.9110 0.9100 0.9100
534.725129 0.9100 0.9090 0.9090 0.9090 0.9100
539.596395 0.9100 0.9100 0.9110 0.9130 0.9130
544.467662 0.9140 0.9150 0.9170 0.9200 0.9220
549.338929 0.9240 0.9270 0.9280 0.9300 0.9310
554.210195 0.9320 0.9320 0.9320 0.9320 0.9310
559.081462 0.9310 0.9310 0.9310 0.9300 0.9280
563.952728 0.9270 0.9260 0.9260 0.9240 0.9240
568.823995 0.9230 0.9220 0.9200 0.9190 0.9150
573.695262 0.9150 0.9140 0.9140 0.9130 0.9130
578.566528 0.9130 0.9130 0.9130 0.9130 0.9140
583.437795 0.9140 0.9150 0.9150 0.9170 0.9170
588.309061 0.9180 0.9190 0.9190 0.9200 0.9220
593.180328 0.9220 0.9220 0.9220 0.9220 0.9220
598.051595 0.9220 0.9220 0.9220 0.9200 0.9190
602.922861 0.9180 0.9170 0.9170 0.9150 0.9150
607.794128 0.9140 0.9130 0.9130 0.9110 0.9090
612.665394 0.9080 0.9050 0.9050 0.9040 0.9040
617.536661 0.9010 0.9010 0.9000 0.8980 0.8970
622.407928 0.8960 0.8950 0.8920 0.8920 0.8910
627.279194 0.8890 0.8880 0.8880 0.8880 0.8870
632.150461 0.8880 0.8870 0.8870 0.8870 0.8860
637.021727 0.8860 0.8840 0.8840 0.8830 0.8830
641.892994 0.8820 0.8820 0.8820 0.8800 0.8790
646.764261 0.8780 0.8760 0.8750 0.8740 0.8730
651.635527 0.8700 0.8690 0.8670 0.8670 0.8650
656.506794 0.8630 0.8630 0.8610 0.8580 0.8570
661.378060 0.8540 0.8510 0.8430 0.8400 0.8350
666.249327 0.8310 0.8250 0.8210 0.8130 0.8060
671.120594 0.7990 0.7820 0.7780 0.7730 0.7700
675.991860 0.7640 0.7560 0.7470 0.7380 0.7300
680.863127 0.7210 0.7110 0.6980 0.6870 0.6730
685.734393 0.6690 0.6640 0.6520 0.6410 0.6330
690.605660 0.6130 0.5990 0.5880 0.5790 0.5680
695.476927 0.5580 0.5470 0.5291 0.5220 0.4971
700.348193 0.4710 0.4680 0.4620 0.4580 0.4460
705.219460 0.4310 0.4180 0.4090 0.3980 0.3890
710.090726 0.3780 0.3650 0.3490 0.3430 0.3360
714.961993 0.3310 0.3260 0.3210 0.3160 0.3090
719.833260 0.3010 0.2950 0.2900 0.2830 0.2770
724.704526 0.2720 0.2660 0.2640 0.2620 0.2640
729.575793 0.2640 0.2650 0.2650 0.2680 0.2690
734.447059 0.2690 0.2700 0.2700 0.2720 0.2730
739.318326 0.2750 0.2820 0.2910 0.2990 0.3010
744.189593 0.2960 0.2900 0.2780 0.2750 0.2770
749.060859 0.2790 0.2860 0.2940 0.3000 0.3080
753.932126 0.3170 0.3349 0.3440 0.3540 0.3630
758.803392 0.3750 0.3870 0.3980 0.4100 0.4230
763.674659 0.4350 0.4480 0.4610 0.4739 0.4869
768.545926 0.5000 0.5140 0.5270 0.5400 0.5530
773.417192 0.5670 0.5800 0.5930 0.6040 0.6149
778.288459 0.6260 0.6370 0.6480 0.6700 0.6810
783.159725 0.6910 0.7020 0.7130 0.7240 0.7340
788.030992 0.7440 0.7530 0.7640 0.7740 0.7830
792.902259 0.7920 0.8030 0.8100 0.8190 0.8290
797.773525 0.8360 0.8450 0.8530 0.8600 0.8670
802.644792 0.8740 0.8800 0.8870 0.8910 0.8980
807.516058 0.9010 0.9050 0.9080 0.9110 0.9180
812.387325 0.9220 0.9260 0.9280 0.9310 0.9320
817.258592 0.9350 0.9390 0.9410 0.9440 0.9450
822.129858 0.9500 0.9520 0.9530 0.9530 0.9540
827.001125 0.9550 0.9570 0.9570 0.9580 0.9610
831.872391 0.9620 0.9630 0.9630 0.9660 0.9670
836.743658 0.9680 0.9680 0.9680 0.9680 0.9700
841.614925 0.9700 0.9710 0.9710 0.9710 0.9700
846.486191 0.9700 0.9700 0.9680 0.9680 0.9680
851.357458 0.9680 0.9680 0.9680 0.9670 0.9670
856.228724 0.9660 0.9660 0.9660 0.9660 0.9650
861.099991 0.9650 0.9650 0.9630 0.9620 0.9620
865.971258 0.9610 0.9610 0.9580 0.9580 0.9570
870.842524 0.9570 0.9550 0.9550 0.9550 0.9550
875.713791 0.9540 0.9540 0.9540 0.9530 0.9520
880.585057 0.9520 0.9500 0.9500 0.9490 0.9460
885.456324 0.9460 0.9450 0.9440 0.9430 0.9410
890.327591 0.9390 0.9360 0.9330 0.9320 0.9310
895.198857 0.9300 0.9280 0.9270 0.9260 0.9260
900.070124 0.9240 0.9230 0.9200 0.9180 0.9140
904.941390 0.9130 0.9090 0.9080 0.9050 0.9040
909.812657 0.9020 0.9010 0.8970 0.8950 0.8930
914.683924 0.8920 0.8910 0.8870 0.8860 0.8840
919.555190 0.8830 0.8830 0.8830 0.8840 0.8840
924.426457 0.8880 0.8910 0.8930 0.8960 0.8970
929.297723 0.9000 0.9010 0.8980 0.8970 0.8950
934.168990 0.8910 0.8860 0.8820 0.8780 0.8760
939.040257 0.8780 0.8790 0.8800 0.8820 0.8840
943.911523 0.8860 0.8880 0.8920 0.8930 0.8960
948.782790 0.9000 0.9010 0.9020 0.9040 0.9060
953.654056 0.9110 0.9130 0.9150 0.9180 0.9220
958.525323 0.9240 0.9260 0.9270 0.9280 0.9280
963.396590 0.9280 0.9270 0.9260 0.9240 0.9240
968.267856 0.9240 0.9240 0.9260 0.9270 0.9310
973.139123 0.9390 0.9440 0.9490 0.9500 0.9520
978.010389 0.9520 0.9530 0.9530 0.9540 0.9550
982.881656 0.9550 0.9570 0.9570 0.9550 0.9540
987.752923 0.9530 0.9520 0.9500 0.9480 0.9460
992.624189 0.9440 0.9370 0.9350 0.9310 0.9240
997.495456 0.9190 0.9150 0.9100 0.9050 0.8970
1002.366722 0.8870 0.8800 0.8730 0.8620 0.8530
1007.237989 0.8430 0.8320 0.8230 0.8140 0.8060
1012.109256 0.8010 0.8000 0.7990 0.8000 0.8040
1016.980522 0.8080 0.8090 0.8100 0.8100 0.8060
1021.851789 0.8040 0.7960 0.7730 0.7680 0.7650
1026.723055 0.7680 0.7870 0.7990 0.8050 0.8130
1031.594322 0.8210 0.8210 0.8170 0.8120 0.8050
1036.465589 0.8000 0.7950 0.7870 0.7820 0.7810
1041.336855 0.7810 0.7820 0.7830 0.7860 0.7900
1046.208122 0.7940 0.8010 0.8100 0.8180 0.8250
1051.079388 0.8310 0.8430 0.8530 0.8620 0.8710
1055.950655 0.8800 0.8870 0.8950 0.9010 0.9060
1060.821922 0.9090 0.9190 0.9230 0.9260 0.9280
1065.693188 0.9300 0.9310 0.9310 0.9300 0.9300
1070.564455 0.9300 0.9300 0.9280 0.9280 0.9280
1075.435721 0.9270 0.9260 0.9230 0.9220 0.9200
1080.306988 0.9200 0.9190 0.9190 0.9200 0.9200
1085.178255 0.9200 0.9220 0.9230 0.9240 0.9270
1090.049521 0.9280 0.9310 0.9320 0.9320 0.9320
1094.920788 0.9310 0.9310 0.9310 0.9310 0.9300
1099.792054 0.9280 0.9280 0.9270 0.9240 0.9220
1104.663321 0.9200 0.9180 0.9150 0.9130 0.9100
1109.534588 0.9080 0.9050 0.9010 0.8970 0.8930
1114.405854 0.8890 0.8840 0.8790 0.8730 0.8660
1119.277121 0.8580 0.8490 0.8410 0.8310 0.8210
1124.148387 0.8100 0.7990 0.7860 0.7720 0.7590
1129.019654 0.7430 0.7270 0.7110 0.6940 0.6740
1133.890921 0.6650 0.6550 0.6331 0.6161 0.6011
1138.762187 0.5890 0.5760 0.5620 0.5460 0.5250
1143.633454 0.5000 0.4870 0.4750 0.4571 0.4321
1148.504720 0.4310 0.4310 0.4430 0.4680 0.4720
1153.375987 0.4720 0.4630 0.4461 0.4360 0.4191
1158.247254 0.3920 0.3840 0.3840 0.4090 0.4140
1163.118520 0.4460 0.4849 0.4920 0.4850 0.4760
1167.989787 0.4540 0.4320 0.4200 0.4190 0.4200
1172.861053 0.4230 0.4360 0.4490 0.4669 0.4889
1177.732320 0.5050 0.5320 0.5530 0.5860 0.6230
1182.603587 0.6729 0.6940 0.7159 0.7419 0.7679
1187.474853 0.7910 0.8140 0.8340 0.8530 0.8690
1192.346120 0.8800 0.8890 0.8930 0.9000 0.9020
1197.217386 0.9050 0.9080 0.9100 0.9130 0.9150
1202.088653 0.9180 0.9190 0.9200 0.9220 0.9240
1206.959920 0.9260 0.9280 0.9300 0.9310 0.9320
1211.831186 0.9320 0.9330 0.9330 0.9330 0.9350
1216.702453 0.9360 0.9360 0.9370 0.9390 0.9390
1221.573719 0.9400 0.9400 0.9410 0.9410 0.9430
1226.444986 0.9430 0.9440 0.9440 0.9450 0.9450
1231.316253 0.9460 0.9480 0.9490 0.9500 0.9500
1236.187519 0.9500 0.9500 0.9520 0.9520 0.9520
1241.058786 0.9530 0.9530 0.9530 0.9530 0.9530
1245.930052 0.9540 0.9540 0.9550 0.9550 0.9550
1250.801319 0.9570 0.9570 0.9570 0.9570 0.9570
1255.672586 0.9580 0.9580 0.9580 0.9580 0.9580
1260.543852 0.9580 0.9580 0.9590 0.9590 0.9590
1265.415119 0.9590 0.9590 0.9590 0.9590 0.9590
1270.286385 0.9590 0.9590 0.9590 0.9590 0.9590
1275.157652 0.9590 0.9590 0.9590 0.9590 0.9590
1280.028919 0.9590 0.9590 0.9590 0.9590 0.9590
1284.900185 0.9590 0.9590 0.9590 0.9590 0.9590
1289.771452 0.9590 0.9590 0.9590 0.9590 0.9590
1294.642718 0.9590 0.9580 0.9580 0.9580 0.9580
1299.513985 0.9580 0.9580 0.9580 0.9580 0.9580
1304.385252 0.9580 0.9580 0.9580 0.9580 0.9570
1309.256518 0.9570 0.9570 0.9570 0.9570 0.9550
1314.127785 0.9550 0.9550 0.9540 0.9540 0.9540
1318.999051 0.9540 0.9540 0.9540 0.9540 0.9540
1323.870318 0.9540 0.9530 0.9530 0.9530 0.9530
1328.741585 0.9530 0.9530 0.9520 0.9520 0.9500
1333.612851 0.9500 0.9490 0.9490 0.9490 0.9480
1338.484118 0.9480 0.9460 0.9460 0.9460 0.9460
1343.355384 0.9450 0.9450 0.9450 0.9440 0.9430
1348.226651 0.9410 0.9410 0.9400 0.9390 0.9360
1353.097918 0.9330 0.9320 0.9320 0.9310 0.9270
1357.969184 0.9260 0.9230 0.9220 0.9220 0.9200
1362.840451 0.9200 0.9180 0.9180 0.9180 0.9170
1367.711717 0.9150 0.9140 0.9140 0.9140 0.9130
1372.582984 0.9130 0.9130 0.9110 0.9110 0.9110
1377.454251 0.9100 0.9090 0.9050 0.9040 0.9020
1382.325517 0.9000 0.8980 0.8950 0.8920 0.8880
1387.196784 0.8860 0.8840 0.8840 0.8840 0.8840
1392.068050 0.8840 0.8830 0.8830 0.8830 0.8830
1396.939317 0.8820 0.8820 0.8820 0.8800 0.8800
1401.810584 0.8800 0.8790 0.8790 0.8760 0.8760
1406.681850 0.8750 0.8740 0.8740 0.8730 0.8730
1411.553117 0.8710 0.8650 0.8620 0.8610 0.8570
1416.424383 0.8540 0.8520 0.8520 0.8510 0.8470
1421.295650 0.8400 0.8340 0.8260 0.8180 0.8080
1426.166917 0.8030 0.7970 0.7910 0.7830 0.7770
1431.038183 0.7720 0.7660 0.7620 0.7600 0.7570
1435.909450 0.7530 0.7520 0.7510 0.7500 0.7470
1440.780716 0.7400 0.7330 0.7120 0.6980 0.6800
1445.651983 0.6610 0.6560 0.6690 0.6680 0.6640
1450.523250 0.6600 0.6560 0.6460 0.6340 0.6170
1455.394516 0.6020 0.5900 0.5840 0.5790 0.5770
1460.265783 0.5770 0.5770 0.5760 0.5730 0.5590
1465.137049 0.5440 0.5280 0.5120 0.4811 0.4790
1470.008316 0.4810 0.5010 0.5070 0.5150 0.5220
1474.879583 0.5440 0.5630 0.5750 0.5840 0.5900
1479.750849 0.5980 0.6070 0.6150 0.6210 0.6250
1484.622116 0.6290 0.6290 0.6280 0.6260 0.6250
1489.493382 0.6260 0.6290 0.6380 0.6700 0.6810
1494.364649 0.6830 0.6850 0.6870 0.6900 0.6910
1499.235916 0.6940 0.6990 0.7080 0.7150 0.7200
1504.107182 0.7210 0.7260 0.7370 0.7470 0.7570
1508.978449 0.7660 0.7770 0.7860 0.7960 0.8050
1513.849715 0.8140 0.8230 0.8310 0.8400 0.8470
1518.720982 0.8540 0.8610 0.8670 0.8730 0.8780
1523.592249 0.8820 0.8870 0.8910 0.8930 0.8970
1528.463515 0.9000 0.9010 0.9020 0.9050 0.9110
1533.334782 0.9130 0.9140 0.9190 0.9220 0.9240
1538.206048 0.9240 0.9270 0.9270 0.9300 0.9300
1543.077315 0.9300 0.9300 0.9300 0.9280 0.9280
1547.948582 0.9280 0.9300 0.9300 0.9310 0.9330
1552.819848 0.9350 0.9360 0.9370 0.9390 0.9390
1557.691115 0.9390 0.9400 0.9430 0.9440 0.9440
1562.562381 0.9440 0.9440 0.9430 0.9410 0.9410
1567.433648 0.9410 0.9430 0.9440 0.9440 0.9450
1572.304915 0.9450 0.9450 0.9450 0.9450 0.9450
1577.176181 0.9450 0.9450 0.9450 0.9440 0.9440
1582.047448 0.9430 0.9430 0.9410 0.9410 0.9410
1586.918714 0.9410 0.9410 0.9410 0.9410 0.9410
1591.789981 0.9410 0.9410 0.9400 0.9400 0.9400
1596.661248 0.9400 0.9400 0.9400 0.9400 0.9400
1601.532514 0.9400 0.9400 0.9400 0.9400 0.9400
1606.403781 0.9400 0.9400 0.9400 0.9400 0.9400
1611.275047 0.9400 0.9390 0.9370 0.9360 0.9360
1616.146314 0.9360 0.9360 0.9360 0.9350 0.9330
1621.017581 0.9330 0.9330 0.9320 0.9310 0.9310
1625.888847 0.9310 0.9310 0.9310 0.9310 0.9310
1630.760114 0.9310 0.9320 0.9320 0.9320 0.9330
1635.631380 0.9330 0.9330 0.9330 0.9350 0.9350
1640.502647 0.9330 0.9320 0.9310 0.9280 0.9270
1645.373914 0.9280 0.9280 0.9300 0.9310 0.9320
1650.245180 0.9330 0.9330 0.9350 0.9360 0.9370
1655.116447 0.9400 0.9410 0.9440 0.9450 0.9440
1659.987713 0.9410 0.9320 0.9310 0.9310 0.9310
1664.858980 0.9310 0.9320 0.9330 0.9330 0.9330
1669.730247 0.9330 0.9330 0.9350 0.9360 0.9390
1674.601513 0.9390 0.9390 0.9390 0.9390 0.9400
1679.472780 0.9400 0.9400 0.9400 0.9400 0.9410
1684.344046 0.9430 0.9440 0.9450 0.9460 0.9460
1689.215313 0.9440 0.9430 0.9430 0.9430 0.9430
1694.086580 0.9430 0.9440 0.9450 0.9490 0.9500
1698.957846 0.9500 0.9520 0.9520 0.9530 0.9530
1703.829113 0.9530 0.9530 0.9520 0.9520 0.9520
1708.700379 0.9500 0.9490 0.9500 0.9500 0.9500
1713.571646 0.9520 0.9520 0.9520 0.9530 0.9520
1718.442913 0.9520 0.9530 0.9530 0.9530 0.9520
1723.314179 0.9520 0.9500 0.9500 0.9500 0.9500
1728.185446 0.9500 0.9500 0.9520 0.9530 0.9540
1733.056712 0.9550 0.9580 0.9610 0.9610 0.9610
1737.927979 0.9590 0.9590 0.9580 0.9580 0.9580
1742.799246 0.9570 0.9570 0.9570 0.9570 0.9580
1747.670512 0.9590 0.9610 0.9620 0.9630 0.9630
1752.541779 0.9630 0.9620 0.9620 0.9620 0.9620
1757.413045 0.9620 0.9620 0.9620 0.9620 0.9630
1762.284312 0.9630 0.9620 0.9620 0.9620 0.9620
1767.155579 0.9620 0.9610 0.9590 0.9590 0.9610
1772.026845 0.9620 0.9630 0.9630 0.9620 0.9620
1776.898112 0.9620 0.9620 0.9610 0.9590 0.9580
1781.769378 0.9580 0.9580 0.9580 0.9580 0.9580
1786.640645 0.9580 0.9580 0.9580 0.9580 0.9580
1791.511912 0.9570 0.9570 0.9570 0.9570 0.9570
1796.383178 0.9580 0.9570 0.9570 0.9570 0.9570
1801.254445 0.9570 0.9550 0.9550 0.9550 0.9540
1806.125711 0.9540 0.9540 0.9540 0.9530 0.9520
1810.996978 0.9520 0.9520 0.9520 0.9520 0.9520
1815.868245 0.9520 0.9530 0.9540 0.9530 0.9530
1820.739511 0.9530 0.9540 0.9550 0.9570 0.9570
1825.610778 0.9580 0.9580 0.9580 0.9580 0.9580
1830.482044 0.9580 0.9570 0.9550 0.9540 0.9540
1835.353311 0.9530 0.9530 0.9520 0.9520 0.9520
1840.224578 0.9520 0.9520 0.9540 0.9540 0.9540
1845.095844 0.9540 0.9540 0.9540 0.9530 0.9530
1849.967111 0.9530 0.9530 0.9520 0.9520 0.9520
1854.838377 0.9520 0.9520 0.9520 0.9500 0.9500
1859.709644 0.9490 0.9490 0.9490 0.9480 0.9480
1864.580911 0.9480 0.9480 0.9460 0.9460 0.9450
1869.452177 0.9450 0.9450 0.9440 0.9440 0.9430
1874.323444 0.9430 0.9430 0.9410 0.9410 0.9400
1879.194710 0.9400 0.9390 0.9390 0.9370 0.9370
1884.065977 0.9370 0.9360 0.9360 0.9360 0.9360
1888.937244 0.9360 0.9360 0.9360 0.9360 0.9360
1893.808510 0.9360 0.9360 0.9360 0.9370 0.9370
1898.679777 0.9370 0.9370 0.9370 0.9370 0.9370
1903.551043 0.9390 0.9390 0.9390 0.9390 0.9390
1908.422310 0.9390 0.9400 0.9400 0.9400 0.9400
1913.293577 0.9410 0.9410 0.9430 0.9430 0.9440
1918.164843 0.9450 0.9480 0.9490 0.9500 0.9520
1923.036110 0.9520 0.9520 0.9530 0.9530 0.9530
1927.907376 0.9540 0.9540 0.9550 0.9550 0.9570
1932.778643 0.9570 0.9580 0.9570 0.9580 0.9580
1937.649910 0.9580 0.9580 0.9590 0.9590 0.9590
1942.521176 0.9590 0.9590 0.9590 0.9590 0.9590
1947.392443 0.9590 0.9590 0.9590 0.9580 0.9580
1952.263709 0.9580 0.9580 0.9570 0.9570 0.9550
1957.134976 0.9550 0.9550 0.9550 0.9550 0.9550
1962.006243 0.9550 0.9550 0.9550 0.9540 0.9540
1966.877509 0.9540 0.9540 0.9540 0.9540 0.9540
1971.748776 0.9540 0.9540 0.9540 0.9540 0.9540
1976.620042 0.9530 0.9530 0.9530 0.9530 0.9520
1981.491309 0.9520 0.9520 0.9520 0.9520 0.9520
1986.362576 0.9520 0.9520 0.9500 0.9500 0.9500
1991.233842 0.9490 0.9480 0.9460 0.9460 0.9450
1996.105109 0.9450 0.9450 0.9450 0.9450 0.9450
2000.976375 0.9455 0.9460 0.9470 0.9480 0.9500
2005.847642 0.9520 0.9535 0.9550 0.9565 0.9580
2010.718909 0.9585 0.9590 0.9600 0.9610 0.9615
2015.590175 0.9620 0.9620 0.9620 0.9620 0.9620
2020.461442 0.9620 0.9620 0.9620 0.9620 0.9620
2025.332708 0.9620 0.9620 0.9620 0.9615 0.9610
2030.203975 0.9610 0.9609 0.9599 0.9590 0.9590
2035.075242 0.9589 0.9584 0.9580 0.9580 0.9579
2039.946508 0.9574 0.9569 0.9559 0.9549 0.9544
2044.817775 0.9540 0.9540 0.9539 0.9534 0.9528
2049.689041 0.9512 0.9499 0.9494 0.9489 0.9484
2054.560308 0.9478 0.9468 0.9459 0.9454 0.9449
2059.431575 0.9444 0.9437 0.9422 0.9409 0.9404
2064.302841 0.9399 0.9394 0.9388 0.9378 0.9369
2069.174108 0.9364 0.9359 0.9354 0.9348 0.9338
2074.045374 0.9330 0.9330 0.9329 0.9324 0.9319
2078.916641 0.9314 0.9310 0.9310 0.9309 0.9304
2083.787908 0.9300 0.9300 0.9300 0.9300 0.9302
2088.659174 0.9307 0.9312 0.9317 0.9322 0.9327
2093.530441 0.9335 0.9350 0.9362 0.9367 0.9374
2098.401707 0.9384 0.9390 0.9390 0.9394 0.9404
2103.272974 0.9414 0.9424 0.9434 0.9444 0.9452
2108.144241 0.9457 0.9464 0.9474 0.9482 0.9487
2113.015507 0.9492 0.9497 0.9504 0.9514 0.9522
2117.886774 0.9527 0.9530 0.9530 0.9532 0.9537
2122.758040 0.9540 0.9540 0.9542 0.9547 0.9550
2127.629307 0.9550 0.9554 0.9565 0.9570 0.9570
2132.500574 0.9570 0.9570 0.9570 0.9570 0.9570
2137.371840 0.9570 0.9570 0.9570 0.9570 0.9570
2142.243107 0.9570 0.9570 0.9570 0.9570 0.9570
2147.114373 0.9570 0.9570 0.9570 0.9570 0.9570
2151.985640 0.9570 0.9570 0.9570 0.9570 0.9570
2156.856907 0.9570 0.9570 0.9570 0.9570 0.9570
2161.728173 0.9570 0.9570 0.9570 0.9570 0.9564
2166.599440 0.9554 0.9550 0.9550 0.9550 0.9550
2171.470706 0.9550 0.9550 0.9550 0.9550 0.9550
2176.341973 0.9550 0.9550 0.9550 0.9550 0.9550
2181.213240 0.9550 0.9550 0.9550 0.9550 0.9550
2186.084506 0.9550 0.9550 0.9550 0.9550 0.9550
2190.955773 0.9550 0.9550 0.9550 0.9550 0.9550
2195.827039 0.9550 0.9550 0.9550 0.9546 0.9541
2200.698306 0.9540 0.9540 0.9540 0.9540 0.9540
2205.569573 0.9540 0.9540 0.9540 0.9544 0.9549
2210.440839 0.9550 0.9550 0.9550 0.9550 0.9550
2215.312106 0.9550 0.9558 0.9568 0.9570 0.9570
2220.183372 0.9570 0.9570 0.9570 0.9570 0.9570
2225.054639 0.9570 0.9570 0.9570 0.9562 0.9552
2229.925906 0.9550 0.9550 0.9550 0.9550 0.9550
2234.797172 0.9550 0.9550 0.9550 0.9550 0.9550
2239.668439 0.9550 0.9550 0.9550 0.9550 0.9559
2244.539705 0.9569 0.9570 0.9570 0.9570 0.9570
2249.410972 0.9570 0.9570 0.9570 0.9570 0.9570
2254.282239 0.9570 0.9570 0.9570 0.9570 0.9570
2259.153505 0.9570 0.9570 0.9570 0.9570 0.9570
2264.024772 0.9570 0.9570 0.9570 0.9570 0.9570
2268.896038 0.9570 0.9570 0.9570 0.9570 0.9570
2273.767305 0.9570 0.9560 0.9550 0.9550 0.9550
2278.638572 0.9550 0.9550 0.9545 0.9540 0.9540
2283.509838 0.9540 0.9540 0.9540 0.9540 0.9540
2288.381105 0.9540 0.9540 0.9535 0.9530 0.9530
2293.252372 0.9530 0.9530 0.9530 0.9530 0.9530
2298.123638 0.9530 0.9530 0.9530 0.9530 0.9530
2302.994905 0.9530 0.9530 0.9530 0.9530 0.9530
2307.866171 0.9530 0.9530 0.9536 0.9541 0.9546
2312.737438 0.9550 0.9550 0.9551 0.9561 0.9571
2317.608705 0.9576 0.9580 0.9580 0.9581 0.9586
2322.479971 0.9590 0.9590 0.9590 0.9590 0.9590
2327.351238 0.9590 0.9592 0.9602 0.9610 0.9610
2332.222504 0.9610 0.9610 0.9611 0.9616 0.9620
2337.093771 0.9620 0.9621 0.9626 0.9630 0.9630
2341.965038 0.9630 0.9630 0.9630 0.9630 0.9630
2346.836304 0.9630 0.9630 0.9630 0.9629 0.9624
2351.707571 0.9620 0.9620 0.9619 0.9614 0.9610
2356.578837 0.9610 0.9607 0.9597 0.9590 0.9590
2361.450104 0.9590 0.9590 0.9589 0.9584 0.9580
2366.321371 0.9580 0.9579 0.9573 0.9567 0.9557
2371.192637 0.9550 0.9550 0.9548 0.9543 0.9538
2376.063904 0.9533 0.9528 0.9523 0.9517 0.9507
2380.935170 0.9498 0.9493 0.9488 0.9483 0.9473
2385.806437 0.9453 0.9438 0.9433 0.9430 0.9430
2390.677704 0.9426 0.9416 0.9408 0.9403 0.9400
2395.548970 0.9400 0.9398 0.9393 0.9390 0.9390
2400.420237 0.9390 0.9390 0.9390 0.9390 0.9390
2405.291503 0.9390 0.9390 0.9390 0.9390 0.9390
2410.162770 0.9392 0.9397 0.9400 0.9400 0.9400
2415.034037 0.9400 0.9400 0.9400 0.9402 0.9407
2419.905303 0.9410 0.9410 0.9410 0.9410 0.9407
2424.776570 0.9402 0.9400 0.9400 0.9400 0.9400
2429.647836 0.9400 0.9400 0.9400 0.9400 0.9400
2434.519103 0.9400 0.9403 0.9408 0.9410 0.9410
2439.390370 0.9416 0.9426 0.9433 0.9438 0.9440
2444.261636 0.9440 0.9443 0.9448 0.9450 0.9450
2449.132903 0.9450 0.9450 0.9450 0.9450 0.9450
2454.004169 0.9450 0.9453 0.9458 0.9457 0.9452
2458.875436 0.9450 0.9450 0.9450 0.9450 0.9447
2463.746703 0.9442 0.9440 0.9440 0.9437 0.9432
2468.617969 0.9423 0.9413 0.9407 0.9402 0.9400
2473.489236 0.9400 0.9400 0.9400 0.9397 0.9392
2478.360502 0.9390 0.9390 0.9383 0.9373 0.9370
2483.231769 0.9370 0.9363 0.9353 0.9350 0.9350
2488.103036 0.9350 0.9350 0.9350 0.9350 0.9350
2492.974302 0.9350 0.9342 0.9332 0.9330 0.9330
2497.845569 0.9330 0.9330 0.9330 0.9330 0.9330
2502.716835 0.9330 0.9330 0.9330 0.9326 0.9321
2507.588102 0.9320 0.9320 0.9316 0.9311 0.9310
2512.459369 0.9310 0.9306 0.9301 0.9292 0.9282
2517.330635 0.9276 0.9271 0.9270 0.9270 0.9270
2522.201902 0.9270 0.9270 0.9270 0.9274 0.9279
2527.073168 0.9289 0.9299 0.9304 0.9309 0.9314
2531.944435 0.9319 0.9324 0.9330 0.9339 0.9349
2536.815702 0.9355 0.9360 0.9360 0.9360 0.9360
2541.686968 0.9360 0.9355 0.9350 0.9341 0.9330
2546.558235 0.9330 0.9330 0.9325 0.9320 0.9320
2551.429501 0.9320 0.9320 0.9320 0.9320 0.9320
2556.300768 0.9315 0.9310 0.9310 0.9310 0.9310
2561.172035 0.9310 0.9305 0.9300 0.9300 0.9300
2566.043301 0.9290 0.9280 0.9280 0.9280 0.9280
2570.914568 0.9280 0.9275 0.9270 0.9270 0.9270
2575.785834 0.9270 0.9270 0.9265 0.9259 0.9249
2580.657101 0.9240 0.9240 0.9240 0.9240 0.9240
2585.528368 0.9235 0.9230 0.9230 0.9230 0.9224
2590.399634 0.9220 0.9220 0.9220 0.9220 0.9220
2595.270901 0.9220 0.9220 0.9220 0.9220 0.9220
2600.142167 0.9220 0.9220 0.9218 0.9208 0.9200
2605.013434 0.9200 0.9200 0.9200 0.9200 0.9200
2609.884701 0.9199 0.9194 0.9190 0.9190 0.9190
2614.755967 0.9190 0.9190 0.9190 0.9191 0.9196
2619.627234 0.9200 0.9200 0.9200 0.9200 0.9200
2624.498500 0.9200 0.9200 0.9200 0.9200 0.9200
2629.369767 0.9200 0.9200 0.9200 0.9200 0.9200
2634.241034 0.9200 0.9200 0.9200 0.9200 0.9200
2639.112300 0.9200 0.9200 0.9199 0.9194 0.9190
2643.983567 0.9190 0.9190 0.9190 0.9190 0.9190
2648.854833 0.9187 0.9177 0.9170 0.9170 0.9167
2653.726100 0.9157 0.9147 0.9137 0.9125 0.9110
2658.597367 0.9098 0.9093 0.9077 0.9042 0.9018
2663.468633 0.9013 0.9008 0.9003 0.8994 0.8979
2668.339900 0.8968 0.8963 0.8958 0.8953 0.8950
2673.211166 0.8950 0.8946 0.8936 0.8930 0.8930
2678.082433 0.8928 0.8923 0.8918 0.8913 0.8903
2682.953700 0.8888 0.8876 0.8866 0.8853 0.8838
2687.824966 0.8830 0.8830 0.8828 0.8823 0.8815
2692.696233 0.8805 0.8798 0.8793 0.8790 0.8790
2697.567499 0.8790 0.8790 0.8787 0.8782 0.8780
2702.438766 0.8780 0.8775 0.8765 0.8760 0.8760
2707.310033 0.8757 0.8752 0.8747 0.8742 0.8737
2712.181299 0.8732 0.8722 0.8707 0.8697 0.8692
2717.052566 0.8690 0.8690 0.8681 0.8666 0.8651
2721.923832 0.8636 0.8621 0.8606 0.8588 0.8568
2726.795099 0.8548 0.8528 0.8511 0.8496 0.8472
2731.666366 0.8442 0.8415 0.8390 0.8362 0.8332
2736.537632 0.8298 0.8263 0.8221 0.8176 0.8128
2741.408899 0.8078 0.8024 0.7969 0.7907 0.7842
2746.280165 0.7777 0.7712 0.7637 0.7557 0.7470
2751.151432 0.7379 0.7289 0.7199 0.7105 0.7010
2756.022699 0.6904 0.6792 0.6703 0.6623 0.6539
2760.893965 0.6454 0.6297 0.6111 0.5919 0.5723
2765.765232 0.5524 0.5323 0.5123 0.4922 0.4711
2770.636498 0.4495 0.4280 0.4064 0.3849 0.3633
2775.507765 0.3496 0.3385 0.3274 0.3164 0.2964
2780.379032 0.2738 0.2548 0.2367 0.2286 0.2231
2785.250298 0.2220 0.2220 0.2220 0.2220 0.2216
2790.121565 0.2211 0.2186 0.2156 0.1908 0.1613
2794.992831 0.1560 0.1560 0.1743 0.1958 0.1977
2799.864098 0.1962 0.1865 0.1755 0.1697 0.1647
2804.735365 0.1583 0.1518 0.1471 0.1426 0.1407
2809.606631 0.1392 0.1399 0.1409 0.1450 0.1495
2814.477898 0.1545 0.1596 0.1655 0.1715 0.1808
2819.349164 0.1903 0.1984 0.2064 0.2154 0.2244
2824.220431 0.2330 0.2415 0.2462 0.2508 0.2534
2829.091698 0.2559 0.2531 0.2501 0.2462 0.2422
2833.962964 0.2410 0.2400 0.2410 0.2420 0.2425
2838.834231 0.2430 0.2450 0.2470 0.2490 0.2510
2843.705497 0.2550 0.2590 0.2625 0.2661 0.2741
2848.576764 0.2820 0.2830 0.2839 0.2814 0.2788
2853.448031 0.2712 0.2638 0.2603 0.2567 0.2522
2858.319297 0.2480 0.2475 0.2470 0.2475 0.2485
2863.190564 0.2550 0.2616 0.2697 0.2772 0.2797
2868.061830 0.2828 0.2918 0.3005 0.3055 0.3109
2872.933097 0.3195 0.3272 0.3287 0.3300 0.3300
2877.804364 0.3293 0.3237 0.3190 0.3190 0.3193
2882.675630 0.3213 0.3238 0.3293 0.3341 0.3346
2887.546897 0.3351 0.3356 0.3362 0.3372 0.3380
2892.418163 0.3380 0.3380 0.3380 0.3378 0.3368
2897.289430 0.3358 0.3348 0.3336 0.3316 0.3291
2902.160697 0.3251 0.3206 0.3141 0.3074 0.3004
2907.031963 0.2941 0.2901 0.2869 0.2864 0.2861
2911.903230 0.2866 0.2871 0.2876 0.2891 0.2931
2916.774496 0.2970 0.3005 0.3043 0.3088 0.3127
2921.645763 0.3152 0.3195 0.3280 0.3350 0.3385
2926.517030 0.3407 0.3397 0.3379 0.3344 0.3309
2931.388296 0.3274 0.3228 0.3163 0.3105 0.3060
2936.259563 0.3018 0.2983 0.2950 0.2919 0.2863
2941.130829 0.2758 0.2638 0.2493 0.2391 0.2366
2946.002096 0.2341 0.2316 0.2285 0.2245 0.2203
2950.873363 0.2157 0.2114 0.2074 0.2032 0.1987
2955.744629 0.1948 0.1918 0.1890 0.1864 0.1844
2960.615896 0.1829 0.1799 0.1748 0.1694 0.1634
2965.487162 0.1561 0.1470 0.1418 0.1413 0.1412
2970.358429 0.1417 0.1462 0.1553 0.1633 0.1704
2975.229696 0.1771 0.1836 0.1914 0.2004 0.2097
2980.100962 0.2192 0.2252 0.2277 0.2333 0.2418
2984.972229 0.2501 0.2581 0.2664 0.2749 0.2800
2989.843495 0.2821 0.2852 0.2892 0.2935 0.2980
2994.714762 0.3017 0.3047 0.3249 0.3590 0.3866
2999.586029 0.4092 0.4298 0.4488 0.4664 0.4830
3004.457295 0.4984 0.5129 0.5269 0.5404 0.5537
3009.328562 0.5669 0.5799 0.5930 0.6066 0.6207
3014.199828 0.6459 0.6780 0.6953 0.7038 0.7155
3019.071095 0.7291 0.7413 0.7528 0.7628 0.7718
3023.942362 0.7802 0.7882 0.7956 0.8026 0.8090
3028.813628 0.8151 0.8204 0.8254 0.8301 0.8346
3033.684895 0.8391 0.8436 0.8474 0.8509 0.8538
3038.556161 0.8563 0.8605 0.8655 0.8698 0.8739
3043.427428 0.8775 0.8810 0.8834 0.8854 0.8871
3048.298695 0.8886 0.8898 0.8908 0.8918 0.8928
3053.169961 0.8930 0.8930 0.8945 0.8965 0.8974
3058.041228 0.8979 0.8988 0.8998 0.9000 0.9000
3062.912494 0.9004 0.9009 0.9010 0.9010 0.9014
3067.783761 0.9019 0.9020 0.9020 0.9028 0.9038
3072.655028 0.9040 0.9040 0.9044 0.9049 0.9050
3077.526294 0.9050 0.9046 0.9041 0.9040 0.9040
3082.397561 0.9040 0.9040 0.9040 0.9040 0.9031
3087.268827 0.9021 0.9020 0.9020 0.9016 0.9011
3092.140094 0.9010 0.9010 0.9010 0.9010 0.9010
3097.011361 0.9010 0.9015 0.9020 0.9020 0.9020
3101.882627 0.9015 0.9010 0.9010 0.9010 0.9010
3106.753894 0.9010 0.9005 0.9000 0.9000 0.9000
3111.625160 0.8990 0.8980 0.8975 0.8970 0.8970
3116.496427 0.8970 0.8965 0.8960 0.8965 0.8970
3121.367694 0.8970 0.8970 0.8975 0.8980 0.8990
3126.238960 0.9000 0.9000 0.9000 0.9005 0.9010
3131.110227 0.9010 0.9010 0.9010 0.9010 0.9010
3135.981493 0.9010 0.9010 0.9010 0.9010 0.9010
3140.852760 0.9010 0.9010 0.9010 0.9010 0.9010
3145.724027 0.9010 0.9010 0.9010 0.9010 0.9009
3150.595293 0.9004 0.9000 0.9000 0.8999 0.8989
3155.466560 0.8980 0.8980 0.8979 0.8974 0.8970
3160.337826 0.8970 0.8969 0.8964 0.8959 0.8954
3165.209093 0.8948 0.8938 0.8930 0.8930 0.8930
3170.080360 0.8930 0.8930 0.8930 0.8929 0.8924
3174.951626 0.8920 0.8920 0.8920 0.8920 0.8920
3179.822893 0.8920 0.8920 0.8920 0.8920 0.8920
3184.694159 0.8920 0.8920 0.8921 0.8926 0.8932
3189.565426 0.8942 0.8950 0.8950 0.8950 0.8950
3194.436693 0.8950 0.8950 0.8951 0.8956 0.8960
3199.307959 0.8960 0.8960 0.8960 0.8961 0.8966
3204.179226 0.8970 0.8970 0.8972 0.8977 0.8983
3209.050492 0.8993 0.9000 0.9000 0.9000 0.9000
3213.921759 0.9000 0.9000 0.9000 0.9000 0.9002
3218.793026 0.9007 0.9012 0.9017 0.9020 0.9020
3223.664292 0.9024 0.9034 0.9040 0.9040 0.9044
3228.535559 0.9054 0.9060 0.9060 0.9068 0.9088
3233.406825 0.9102 0.9107 0.9114 0.9124 0.9130
3238.278092 0.9130 0.9130 0.9130 0.9126 0.9116
3243.149359 0.9110 0.9110 0.9110 0.9110 0.9110
3248.020625 0.9110 0.9115 0.9125 0.9130 0.9130
3252.891892 0.9130 0.9130 0.9132 0.9137 0.9142
3257.763158 0.9147 0.9150 0.9150 0.9155 0.9165
3262.634425 0.9170 0.9170 0.9170 0.9170 0.9173
3267.505692 0.9178 0.9180 0.9180 0.9180 0.9180
3272.376958 0.9180 0.9180 0.9180 0.9180 0.9180
3277.248225 0.9180 0.9183 0.9188 0.9190 0.9190
3282.119491 0.9190 0.9190 0.9190 0.9190 0.9190
3286.990758 0.9190 0.9190 0.9190 0.9193 0.9198
3291.862025 0.9200 0.9200 0.9200 0.9200 0.9200
3296.733291 0.9200 0.9200 0.9200 0.9200 0.9200
3301.604558 0.9200 0.9200 0.9200 0.9200 0.9200
3306.475824 0.9200 0.9207 0.9217 0.9220 0.9220
3311.347091 0.9220 0.9220 0.9220 0.9220 0.9213
3316.218358 0.9203 0.9200 0.9200 0.9200 0.9200
3321.089624 0.9196 0.9191 0.9186 0.9181 0.9176
3325.960891 0.9171 0.9170 0.9170 0.9170 0.9170
3330.832157 0.9163 0.9153 0.9150 0.9150 0.9150
3335.703424 0.9150 0.9150 0.9150 0.9146 0.9141
3340.574691 0.9136 0.9131 0.9130 0.9130 0.9122
3345.445957 0.9112 0.9110 0.9110 0.9110 0.9110
3350.317224 0.9118 0.9128 0.9122 0.9112 0.9110
3355.188490 0.9110 0.9110 0.9110 0.9110 0.9110
3360.059757 0.9106 0.9101 0.9100 0.9100 0.9096
3364.931024 0.9091 0.9090 0.9090 0.9090 0.9090
3369.802290 0.9090 0.9090 0.9090 0.9090 0.9090
3374.673557 0.9090 0.9090 0.9090 0.9090 0.9090
3379.544823 0.9090 0.9090 0.9090 0.9090 0.9090
3384.416090 0.9090 0.9090 0.9090 0.9095 0.9100
3389.287357 0.9100 0.9100 0.9100 0.9100 0.9105
3394.158623 0.9110 0.9110 0.9110 0.9110 0.9110
3399.029890 0.9120 0.9130 0.9130 0.9130 0.9120
3403.901156 0.9110 0.9110 0.9110 0.9110 0.9110
3408.772423 0.9110 0.9110 0.9110 0.9110 0.9120
3413.643690 0.9130 0.9120 0.9110 0.9121 0.9130
3418.514956 0.9130 0.9130 0.9130 0.9130 0.9130
3423.386223 0.9130 0.9130 0.9130 0.9135 0.9140
3428.257489 0.9140 0.9140 0.9140 0.9140 0.9140
3433.128756 0.9140 0.9140 0.9140 0.9140 0.9140
3438.000023 0.9140 0.9140 0.9140 0.9141 0.9146
3442.871289 0.9150 0.9150 0.9150 0.9150 0.9152
3447.742556 0.9162 0.9170 0.9170 0.9170 0.9170
3452.613822 0.9171 0.9176 0.9180 0.9180 0.9180
3457.485089 0.9180 0.9181 0.9186 0.9191 0.9196
3462.356356 0.9200 0.9200 0.9200 0.9200 0.9200
3467.227622 0.9200 0.9200 0.9200 0.9200 0.9200
3472.098889 0.9200 0.9200 0.9200 0.9200 0.9200
3476.970155 0.9200 0.9199 0.9194 0.9190 0.9190
3481.841422 0.9189 0.9184 0.9180 0.9180 0.9180
3486.712689 0.9180 0.9180 0.9180 0.9180 0.9180
3491.583955 0.9182 0.9187 0.9190 0.9190 0.9190
3496.455222 0.9190 0.9190 0.9190 0.9190 0.9190
3501.326488 0.9192 0.9197 0.9200 0.9200 0.9198
3506.197755 0.9193 0.9190 0.9190 0.9190 0.9190
3511.069022 0.9190 0.9190 0.9190 0.9190 0.9190
3515.940288 0.9190 0.9190 0.9190 0.9190 0.9190
3520.811555 0.9190 0.9190 0.9188 0.9183 0.9180
3525.682821 0.9180 0.9180 0.9180 0.9180 0.9180
3530.554088 0.9180 0.9180 0.9180 0.9180 0.9182
3535.425355 0.9187 0.9190 0.9190 0.9192 0.9197
3540.296621 0.9200 0.9200 0.9205 0.9215 0.9220
3545.167888 0.9220 0.9220 0.9220 0.9223 0.9228
3550.039154 0.9233 0.9238 0.9240 0.9240 0.9240
3554.910421 0.9240 0.9240 0.9240 0.9240 0.9240
3559.781688 0.9237 0.9232 0.9227 0.9222 0.9214
3564.652954 0.9204 0.9200 0.9200 0.9197 0.9192
3569.524221 0.9190 0.9190 0.9193 0.9198 0.9200
3574.395487 0.9200 0.9206 0.9216 0.9223 0.9228
3579.266754 0.9233 0.9238 0.9246 0.9256 0.9260
3584.138021 0.9260 0.9260 0.9260 0.9260 0.9260
3589.009287 0.9253 0.9243 0.9237 0.9232 0.9230
3593.880554 0.9230 0.9230 0.9230 0.9226 0.9221
3598.751820 0.9220 0.9220 0.9220 0.9220 0.9224
3603.623087 0.9229 0.9230 0.9230 0.9230 0.9230
3608.494354 0.9230 0.9230 0.9230 0.9230 0.9230
3613.365620 0.9230 0.9242 0.9257 0.9264 0.9269
3618.236887 0.9270 0.9270 0.9274 0.9279 0.9280
3623.108153 0.9280 0.9280 0.9280 0.9280 0.9280
3627.979420 0.9280 0.9280 0.9288 0.9298 0.9300
3632.850687 0.9300 0.9300 0.9300 0.9300 0.9300
3637.721953 0.9283 0.9263 0.9260 0.9260 0.9269
3642.593220 0.9279 0.9297 0.9317 0.9324 0.9329
3647.464486 0.9330 0.9330 0.9330 0.9330 0.9325
3652.335753 0.9320 0.9315 0.9310 0.9292 0.9272
3657.207020 0.9252 0.9232 0.9230 0.9230 0.9235
3662.078286 0.9240 0.9249 0.9259 0.9265 0.9270
3666.949553 0.9275 0.9280 0.9290 0.9300 0.9310
3671.820819 0.9320 0.9335 0.9350 0.9340 0.9330
3676.692086 0.9325 0.9320 0.9310 0.9300 0.9300
3681.563353 0.9300 0.9290 0.9280 0.9280 0.9280
3686.434619 0.9280 0.9280 0.9280 0.9280 0.9280
3691.305886 0.9280 0.9280 0.9280 0.9280 0.9280
3696.177152 0.9280 0.9280 0.9280 0.9280 0.9280
3701.048419 0.9280 0.9280 0.9280 0.9280 0.9280
3705.919686 0.9280 0.9280 0.9280 0.9280 0.9280
3710.790952 0.9280 0.9280 0.9280 0.9280 0.9280
3715.662219 0.9280 0.9280 0.9280 0.9281 0.9291
3720.533485 0.9300 0.9300 0.9300 0.9300 0.9299
3725.404752 0.9289 0.9280 0.9280 0.9280 0.9280
3730.276019 0.9280 0.9280 0.9280 0.9280 0.9280
3735.147285 0.9280 0.9280 0.9280 0.9280 0.9280
3740.018552 0.9283 0.9298 0.9310 0.9310 0.9310
3744.889818 0.9310 0.9310 0.9310 0.9309 0.9304
3749.761085 0.9300 0.9300 0.9296 0.9281 0.9270
3754.632352 0.9270 0.9269 0.9264 0.9260 0.9260
3759.503618 0.9260 0.9260 0.9260 0.9260 0.9260
3764.374885 0.9260 0.9261 0.9267 0.9270 0.9270
3769.246151 0.9270 0.9270 0.9270 0.9270 0.9270
3774.117418 0.9270 0.9272 0.9277 0.9280 0.9280
3778.988685 0.9280 0.9280 0.9278 0.9273 0.9270
3783.859951 0.9270 0.9268 0.9263 0.9256 0.9246
3788.731218 0.9240 0.9240 0.9240 0.9240 0.9240
3793.602484 0.9240 0.9240 0.9240 0.9240 0.9240
3798.473751 0.9240 0.9240 0.9244 0.9254 0.9260
3803.345018 0.9260 0.9262 0.9267 0.9270 0.9270
3808.216284 0.9268 0.9263 0.9260 0.9260 0.9260
3813.087551 0.9260 0.9260 0.9260 0.9253 0.9238
3817.958817 0.9228 0.9223 0.9220 0.9220 0.9220
3822.830084 0.9220 0.9220 0.9220 0.9220 0.9220
3827.701351 0.9223 0.9228 0.9230 0.9230 0.9238
3832.572617 0.9253 0.9260 0.9260 0.9263 0.9268
3837.443884 0.9270 0.9270 0.9270 0.9270 0.9267
3842.315150 0.9262 0.9260 0.9260 0.9260 0.9260
3847.186417 0.9254 0.9244 0.9240 0.9240 0.9237
3852.057684 0.9232 0.9227 0.9222 0.9214 0.9204
3856.928950 0.9200 0.9200 0.9206 0.9216 0.9220
3861.800217 0.9220 0.9220 0.9220 0.9227 0.9237
3866.671483 0.9240 0.9240 0.9240 0.9240 0.9247
3871.542750 0.9257 0.9260 0.9260 0.9253 0.9243
3876.414017 0.9240 0.9240 0.9237 0.9231 0.9226
3881.285283 0.9221 0.9220 0.9220 0.9220 0.9220
3886.156550 0.9213 0.9203 0.9200 0.9200 0.9193
3891.027816 0.9182 0.9176 0.9171 0.9170 0.9170
3895.899083 0.9174 0.9179 0.9184 0.9189 0.9194
3900.770350 0.9199 0.9200 0.9200 0.9196 0.9191
3905.641616 0.9190 0.9190 0.9186 0.9181 0.9176
3910.512883 0.9171 0.9170 0.9170 0.9162 0.9152
3915.384149 0.9150 0.9150 0.9146 0.9141 0.9144
3920.255416 0.9149 0.9146 0.9141 0.9140 0.9140
3925.126683 0.9136 0.9131 0.9130 0.9130 0.9130
3929.997949 0.9130 0.9121 0.9111 0.9110 0.9110
3934.869216 0.9110 0.9110 0.9105 0.9100 0.9100
3939.740482 0.9100 0.9095 0.9090 0.9090 0.9090
3944.611749 0.9085 0.9080 0.9080 0.9080 0.9070
3949.483016 0.9060 0.9060 0.9060 0.9055 0.9050
3954.354282 0.9050 0.9050 0.9050 0.9050 0.9050
3959.225549 0.9050 0.9050 0.9050 0.9055 0.9060
3964.096815 0.9070 0.9080 0.9085 0.9090 0.9090
3968.968082 0.9090 0.9090 0.9090 0.9095 0.9100
3973.839349 0.9100 0.9100 0.9095 0.9090 0.9090
3978.710615 0.9090 0.9090 0.9090 0.9085 0.9079
3983.581882 0.9069 0.9060 0.9060 0.9060 0.9060
3988.453148 0.9060 0.9060 0.9061 0.9071 0.9080
3993.324415 0.9080 0.9080 0.9080 0.9080 0.9080
3998.195682 0.9080 0.9080
##END=
