##TITLE=2-BUTANOL, 1-AMINO-
##JCAMP-DX=4.24
$$ By DXEDIT 1.05 (RS McDonald)
##DATA TYPE=INFRARED SPECTRUM
##CLASS=COBLENTZ III
##ORIGIN=WYANDOTTE CHEMICALS CORP.
##OWNER=COBLENTZ SOC.
Collection (C) 2018 copyright by the U.S. Secretary of Commerce
on behalf of the United States of America. All rights reserved.
##DATE=1960/04/07
##NAMES=1-amino-2-butanol
##CAS REGISTRY NO=13552-21-1
##MOLFORM=C4 H11 N O
##BP=170.5 C (REDIST.)
##SOURCE REFERENCE=COBLENTZ NO. 05966
##$NIST SOURCE=COBLENTZ
##$NIST IMAGE=cob5966
##SPECTROMETER/DATA SYSTEM=BAIRD (GRATING)
##INSTRUMENT PARAMETERS=NaCl PRISM
##STATE=LIQUID (NEAT)
##PATH LENGTH=0.003 CM
##SAMPLING PROCEDURE=TRANSMISSION
##RESOLUTION=2
##DATA PROCESSING=DIGITIZED BY COBLENTZ SOCIETY (BATCH I) FROM HARD COPY
##XUNITS=1/CM
##YUNITS=TRANSMITTANCE
##XLABEL=Wavenumbers (cm-1)
##YLABEL=Transmittance
##XFACTOR=1
##YFACTOR=1
##DELTAX=1
##FIRSTX=4000
##LASTX=626
##FIRSTY=0.9542
##MAXX=4000
##MINX=626
##MAXY=0.9578
##MINY=0.0252
##NPOINTS=3375
##XYDATA=(X++(Y..Y))
4000.000000 0.9542 0.9543 0.9544 0.9545 0.9546
3995.000000 0.9547 0.9548 0.9549 0.9550 0.9551
3990.000000 0.9552 0.9553 0.9554 0.9555 0.9555
3985.000000 0.9556 0.9556 0.9557 0.9557 0.9557
3980.000000 0.9558 0.9558 0.9559 0.9559 0.9560
3975.000000 0.9560 0.9561 0.9561 0.9562 0.9562
3970.000000 0.9563 0.9563 0.9564 0.9564 0.9565
3965.000000 0.9565 0.9566 0.9566 0.9566 0.9567
3960.000000 0.9567 0.9568 0.9568 0.9568 0.9568
3955.000000 0.9570 0.9570 0.9570 0.9571 0.9571
3950.000000 0.9571 0.9571 0.9571 0.9571 0.9573
3945.000000 0.9573 0.9573 0.9574 0.9574 0.9574
3940.000000 0.9575 0.9575 0.9575 0.9575 0.9575
3935.000000 0.9575 0.9575 0.9575 0.9575 0.9575
3930.000000 0.9577 0.9577 0.9577 0.9578 0.9578
3925.000000 0.9578 0.9578 0.9578 0.9578 0.9578
3920.000000 0.9578 0.9578 0.9578 0.9577 0.9575
3915.000000 0.9574 0.9573 0.9571 0.9570 0.9568
3910.000000 0.9567 0.9566 0.9565 0.9563 0.9562
3905.000000 0.9561 0.9560 0.9559 0.9558 0.9556
3900.000000 0.9555 0.9554 0.9553 0.9551 0.9550
3895.000000 0.9549 0.9547 0.9546 0.9544 0.9543
3890.000000 0.9541 0.9540 0.9538 0.9537 0.9535
3885.000000 0.9533 0.9531 0.9528 0.9528 0.9525
3880.000000 0.9524 0.9521 0.9520 0.9518 0.9516
3875.000000 0.9514 0.9512 0.9510 0.9508 0.9506
3870.000000 0.9504 0.9503 0.9502 0.9501 0.9500
3865.000000 0.9499 0.9499 0.9498 0.9498 0.9497
3860.000000 0.9496 0.9496 0.9495 0.9495 0.9494
3855.000000 0.9493 0.9493 0.9492 0.9491 0.9491
3850.000000 0.9490 0.9490 0.9489 0.9489 0.9488
3845.000000 0.9488 0.9488 0.9487 0.9487 0.9487
3840.000000 0.9487 0.9487 0.9487 0.9488 0.9488
3835.000000 0.9488 0.9489 0.9489 0.9489 0.9490
3830.000000 0.9490 0.9490 0.9491 0.9491 0.9491
3825.000000 0.9492 0.9492 0.9492 0.9493 0.9493
3820.000000 0.9493 0.9494 0.9494 0.9494 0.9495
3815.000000 0.9495 0.9495 0.9496 0.9496 0.9496
3810.000000 0.9497 0.9497 0.9498 0.9498 0.9498
3805.000000 0.9499 0.9499 0.9499 0.9499 0.9499
3800.000000 0.9499 0.9500 0.9500 0.9500 0.9501
3795.000000 0.9501 0.9501 0.9502 0.9502 0.9502
3790.000000 0.9502 0.9502 0.9502 0.9503 0.9503
3785.000000 0.9504 0.9504 0.9504 0.9505 0.9505
3780.000000 0.9505 0.9506 0.9506 0.9506 0.9507
3775.000000 0.9507 0.9507 0.9507 0.9507 0.9507
3770.000000 0.9507 0.9507 0.9507 0.9506 0.9506
3765.000000 0.9505 0.9505 0.9505 0.9505 0.9505
3760.000000 0.9505 0.9504 0.9504 0.9504 0.9503
3755.000000 0.9503 0.9503 0.9502 0.9500 0.9499
3750.000000 0.9498 0.9492 0.9495 0.9494 0.9493
3745.000000 0.9492 0.9490 0.9489 0.9488 0.9487
3740.000000 0.9485 0.9484 0.9483 0.9482 0.9480
3735.000000 0.9478 0.9478 0.9477 0.9475 0.9474
3730.000000 0.9473 0.9471 0.9470 0.9468 0.9468
3725.000000 0.9466 0.9464 0.9461 0.9459 0.9457
3720.000000 0.9455 0.9452 0.9449 0.9447 0.9444
3715.000000 0.9441 0.9439 0.9436 0.9433 0.9430
3710.000000 0.9428 0.9425 0.9421 0.9418 0.9416
3705.000000 0.9413 0.9409 0.9406 0.9401 0.9397
3700.000000 0.9393 0.9389 0.9385 0.9381 0.9377
3695.000000 0.9373 0.9368 0.9364 0.9360 0.9356
3690.000000 0.9352 0.9348 0.9343 0.9339 0.9333
3685.000000 0.9328 0.9321 0.9317 0.9311 0.9305
3680.000000 0.9298 0.9291 0.9285 0.9278 0.9271
3675.000000 0.9264 0.9258 0.9251 0.9244 0.9237
3670.000000 0.9230 0.9224 0.9217 0.9210 0.9204
3665.000000 0.9197 0.9190 0.9183 0.9177 0.9170
3660.000000 0.9163 0.9155 0.9146 0.9138 0.9130
3655.000000 0.9121 0.9110 0.9099 0.9088 0.9075
3650.000000 0.9065 0.9053 0.9042 0.9030 0.9018
3645.000000 0.9007 0.8996 0.8984 0.8971 0.8960
3640.000000 0.8947 0.8935 0.8921 0.8906 0.8892
3635.000000 0.8877 0.8863 0.8848 0.8834 0.8818
3630.000000 0.8805 0.8790 0.8775 0.8763 0.8749
3625.000000 0.8735 0.8721 0.8708 0.8696 0.8685
3620.000000 0.8673 0.8661 0.8649 0.8637 0.8625
3615.000000 0.8614 0.8602 0.8590 0.8578 0.8566
3610.000000 0.8554 0.8542 0.8530 0.8518 0.8507
3605.000000 0.8495 0.8483 0.8471 0.8457 0.8439
3600.000000 0.8421 0.8403 0.8384 0.8366 0.8346
3595.000000 0.8325 0.8306 0.8286 0.8266 0.8246
3590.000000 0.8225 0.8206 0.8186 0.8165 0.8147
3585.000000 0.8130 0.8111 0.8094 0.8075 0.8061
3580.000000 0.8046 0.8030 0.8015 0.8000 0.7985
3575.000000 0.7969 0.7955 0.7940 0.7925 0.7910
3570.000000 0.7895 0.7880 0.7865 0.7850 0.7833
3565.000000 0.7811 0.7791 0.7771 0.7750 0.7728
3560.000000 0.7708 0.7687 0.7665 0.7645 0.7625
3555.000000 0.7604 0.7583 0.7561 0.7541 0.7519
3550.000000 0.7501 0.7483 0.7464 0.7445 0.7426
3545.000000 0.7408 0.7390 0.7371 0.7353 0.7334
3540.000000 0.7315 0.7297 0.7278 0.7261 0.7242
3535.000000 0.7225 0.7207 0.7190 0.7172 0.7155
3530.000000 0.7141 0.7126 0.7112 0.7099 0.7085
3525.000000 0.7071 0.7057 0.7043 0.7028 0.7015
3520.000000 0.7001 0.6987 0.6972 0.6958 0.6945
3515.000000 0.6931 0.6917 0.6903 0.6888 0.6856
3510.000000 0.6765 0.6674 0.6582 0.6491 0.6411
3505.000000 0.6358 0.6304 0.6250 0.6196 0.6157
3500.000000 0.6139 0.6122 0.6104 0.6087 0.6070
3495.000000 0.6052 0.6035 0.6018 0.6000 0.5968
3490.000000 0.5926 0.5884 0.5842 0.5800 0.5741
3485.000000 0.5676 0.5610 0.5546 0.5481 0.5442
3480.000000 0.5406 0.5370 0.5334 0.5298 0.5276
3475.000000 0.5253 0.5231 0.5208 0.5173 0.5094
3470.000000 0.5015 0.4936 0.4856 0.4797 0.4767
3465.000000 0.4737 0.4707 0.4677 0.4647 0.4617
3460.000000 0.4587 0.4556 0.4526 0.4496 0.4466
3455.000000 0.4436 0.4405 0.4375 0.4345 0.4314
3450.000000 0.4284 0.4254 0.4223 0.4193 0.4162
3445.000000 0.4131 0.4101 0.4071 0.4040 0.4009
3440.000000 0.3979 0.3949 0.3918 0.3888 0.3857
3435.000000 0.3826 0.3795 0.3764 0.3734 0.3704
3430.000000 0.3673 0.3643 0.3612 0.3580 0.3550
3425.000000 0.3518 0.3488 0.3458 0.3427 0.3396
3420.000000 0.3364 0.3334 0.3303 0.3272 0.3241
3415.000000 0.3209 0.3179 0.3148 0.3117 0.3087
3410.000000 0.3055 0.3024 0.2993 0.2962 0.2931
3405.000000 0.2899 0.2868 0.2837 0.2806 0.2774
3400.000000 0.2743 0.2712 0.2681 0.2650 0.2618
3395.000000 0.2587 0.2555 0.2524 0.2490 0.2444
3390.000000 0.2397 0.2350 0.2303 0.2262 0.2225
3385.000000 0.2189 0.2152 0.2115 0.2083 0.2051
3380.000000 0.2019 0.1986 0.1961 0.1944 0.1929
3375.000000 0.1913 0.1896 0.1882 0.1866 0.1850
3370.000000 0.1834 0.1818 0.1802 0.1785 0.1771
3365.000000 0.1754 0.1729 0.1701 0.1672 0.1643
3360.000000 0.1583 0.1410 0.1237 0.1064 0.0891
3355.000000 0.0821 0.0794 0.0768 0.0741 0.0718
3350.000000 0.0705 0.0691 0.0678 0.0665 0.0652
3345.000000 0.0638 0.0625 0.0612 0.0600 0.0594
3340.000000 0.0588 0.0582 0.0576 0.0574 0.0573
3335.000000 0.0572 0.0571 0.0571 0.0571 0.0571
3330.000000 0.0571 0.0571 0.0571 0.0571 0.0571
3325.000000 0.0571 0.0572 0.0572 0.0572 0.0572
3320.000000 0.0573 0.0576 0.0579 0.0582 0.0584
3315.000000 0.0588 0.0592 0.0595 0.0599 0.0602
3310.000000 0.0606 0.0609 0.0613 0.0616 0.0620
3305.000000 0.0623 0.0626 0.0630 0.0633 0.0636
3300.000000 0.0640 0.0643 0.0646 0.0647 0.0648
3295.000000 0.0650 0.0651 0.0647 0.0642 0.0637
3290.000000 0.0631 0.0626 0.0621 0.0615 0.0610
3285.000000 0.0605 0.0600 0.0595 0.0590 0.0585
3280.000000 0.0581 0.0577 0.0573 0.0555 0.0565
3275.000000 0.0561 0.0557 0.0553 0.0550 0.0547
3270.000000 0.0544 0.0541 0.0541 0.0540 0.0544
3265.000000 0.0547 0.0550 0.0552 0.0555 0.0558
3260.000000 0.0561 0.0565 0.0572 0.0578 0.0584
3255.000000 0.0591 0.0598 0.0605 0.0612 0.0619
3250.000000 0.0626 0.0633 0.0639 0.0646 0.0649
3245.000000 0.0650 0.0652 0.0654 0.0655 0.0657
3240.000000 0.0659 0.0660 0.0662 0.0664 0.0665
3235.000000 0.0667 0.0669 0.0671 0.0673 0.0675
3230.000000 0.0676 0.0677 0.0678 0.0679 0.0679
3225.000000 0.0678 0.0677 0.0675 0.0674 0.0673
3220.000000 0.0671 0.0670 0.0668 0.0667 0.0666
3215.000000 0.0664 0.0663 0.0662 0.0661 0.0659
3210.000000 0.0658 0.0656 0.0655 0.0653 0.0652
3205.000000 0.0650 0.0649 0.0648 0.0647 0.0645
3200.000000 0.0645 0.0644 0.0643 0.0643 0.0642
3195.000000 0.0641 0.0640 0.0640 0.0639 0.0638
3190.000000 0.0637 0.0637 0.0636 0.0636 0.0635
3185.000000 0.0635 0.0634 0.0634 0.0634 0.0634
3180.000000 0.0633 0.0633 0.0632 0.0632 0.0631
3175.000000 0.0631 0.0631 0.0631 0.0631 0.0631
3170.000000 0.0632 0.0632 0.0633 0.0635 0.0637
3165.000000 0.0639 0.0640 0.0642 0.0644 0.0646
3160.000000 0.0647 0.0649 0.0651 0.0653 0.0654
3155.000000 0.0656 0.0658 0.0660 0.0662 0.0663
3150.000000 0.0665 0.0667 0.0670 0.0674 0.0679
3145.000000 0.0683 0.0687 0.0692 0.0697 0.0701
3140.000000 0.0706 0.0711 0.0716 0.0720 0.0725
3135.000000 0.0730 0.0735 0.0740 0.0746 0.0752
3130.000000 0.0758 0.0764 0.0771 0.0779 0.0786
3125.000000 0.0794 0.0801 0.0808 0.0815 0.0822
3120.000000 0.0829 0.0837 0.0843 0.0851 0.0858
3115.000000 0.0865 0.0872 0.0880 0.0889 0.0897
3110.000000 0.0907 0.0916 0.0926 0.0936 0.0946
3105.000000 0.0956 0.0967 0.0976 0.0987 0.0996
3100.000000 0.1007 0.1017 0.1027 0.1038 0.1048
3095.000000 0.1059 0.1069 0.1082 0.1095 0.1108
3090.000000 0.1121 0.1136 0.1150 0.1165 0.1180
3085.000000 0.1194 0.1208 0.1223 0.1238 0.1252
3080.000000 0.1267 0.1282 0.1296 0.1311 0.1326
3075.000000 0.1341 0.1357 0.1373 0.1389 0.1405
3070.000000 0.1420 0.1436 0.1452 0.1468 0.1482
3065.000000 0.1496 0.1511 0.1525 0.1539 0.1553
3060.000000 0.1566 0.1580 0.1592 0.1607 0.1621
3055.000000 0.1634 0.1648 0.1662 0.1676 0.1692
3050.000000 0.1707 0.1722 0.1739 0.1757 0.1774
3045.000000 0.1792 0.1809 0.1826 0.1843 0.1861
3040.000000 0.1878 0.1895 0.1914 0.1929 0.1944
3035.000000 0.1959 0.1974 0.1984 0.1996 0.2008
3030.000000 0.2019 0.2029 0.2041 0.2052 0.2063
3025.000000 0.2074 0.2084 0.2096 0.2103 0.2110
3020.000000 0.2117 0.2123 0.2127 0.2130 0.2134
3015.000000 0.2135 0.2137 0.2138 0.2139 0.2139
3010.000000 0.2139 0.2139 0.2140 0.2140 0.2140
3005.000000 0.2140 0.2133 0.2126 0.2118 0.2110
3000.000000 0.2096 0.2083 0.2070 0.1974 0.1824
2995.000000 0.1675 0.1526 0.1487 0.1446 0.1408
2990.000000 0.1366 0.1322 0.1278 0.1234 0.1057
2985.000000 0.0857 0.0658 0.0509 0.0477 0.0448
2980.000000 0.0417 0.0394 0.0372 0.0351 0.0331
2975.000000 0.0320 0.0309 0.0298 0.0290 0.0284
2970.000000 0.0277 0.0271 0.0270 0.0268 0.0267
2965.000000 0.0266 0.0266 0.0265 0.0263 0.0263
2960.000000 0.0262 0.0261 0.0260 0.0259 0.0258
2955.000000 0.0256 0.0255 0.0254 0.0253 0.0252
2950.000000 0.0252 0.0252 0.0252 0.0252 0.0252
2945.000000 0.0252 0.0253 0.0253 0.0253 0.0253
2940.000000 0.0253 0.0253 0.0253 0.0253 0.0253
2935.000000 0.0253 0.0254 0.0254 0.0255 0.0255
2930.000000 0.0257 0.0259 0.0261 0.0263 0.0266
2925.000000 0.0267 0.0270 0.0273 0.0275 0.0277
2920.000000 0.0279 0.0282 0.0284 0.0287 0.0290
2915.000000 0.0293 0.0297 0.0300 0.0303 0.0306
2910.000000 0.0309 0.0312 0.0314 0.0316 0.0321
2905.000000 0.0324 0.0327 0.0331 0.0335 0.0339
2900.000000 0.0342 0.0346 0.0349 0.0353 0.0354
2895.000000 0.0355 0.0356 0.0356 0.0355 0.0354
2890.000000 0.0353 0.0349 0.0345 0.0341 0.0337
2885.000000 0.0334 0.0330 0.0328 0.0327 0.0325
2880.000000 0.0324 0.0323 0.0322 0.0321 0.0318
2875.000000 0.0317 0.0316 0.0316 0.0315 0.0314
2870.000000 0.0314 0.0315 0.0316 0.0316 0.0318
2865.000000 0.0320 0.0321 0.0322 0.0324 0.0325
2860.000000 0.0327 0.0329 0.0332 0.0335 0.0338
2855.000000 0.0342 0.0345 0.0354 0.0364 0.0374
2850.000000 0.0387 0.0403 0.0417 0.0433 0.0448
2845.000000 0.0464 0.0479 0.0498 0.0517 0.0536
2840.000000 0.0555 0.0574 0.0593 0.0612 0.0631
2835.000000 0.0650 0.0669 0.0688 0.0707 0.0727
2830.000000 0.0747 0.0767 0.0788 0.0815 0.0842
2825.000000 0.0869 0.0895 0.0922 0.0949 0.0975
2820.000000 0.1002 0.1029 0.1056 0.1083 0.1110
2815.000000 0.1137 0.1165 0.1192 0.1220 0.1246
2810.000000 0.1274 0.1301 0.1328 0.1356 0.1383
2805.000000 0.1412 0.1442 0.1471 0.1503 0.1537
2800.000000 0.1570 0.1601 0.1629 0.1659 0.1682
2795.000000 0.1699 0.1715 0.1731 0.1748 0.1764
2790.000000 0.1779 0.1796 0.1813 0.1829 0.1840
2785.000000 0.1851 0.1862 0.1872 0.1882 0.1891
2780.000000 0.1901 0.1911 0.1920 0.1929 0.1940
2775.000000 0.1950 0.1959 0.1969 0.1979 0.1986
2770.000000 0.1994 0.2001 0.2008 0.2014 0.2020
2765.000000 0.2027 0.2033 0.2039 0.2044 0.2051
2760.000000 0.2058 0.2064 0.2071 0.2077 0.2084
2755.000000 0.2090 0.2096 0.2102 0.2109 0.2115
2750.000000 0.2121 0.2127 0.2132 0.2138 0.2143
2745.000000 0.2148 0.2154 0.2159 0.2164 0.2170
2740.000000 0.2175 0.2180 0.2184 0.2190 0.2195
2735.000000 0.2201 0.2206 0.2211 0.2217 0.2222
2730.000000 0.2228 0.2233 0.2238 0.2244 0.2249
2725.000000 0.2256 0.2263 0.2270 0.2276 0.2283
2720.000000 0.2290 0.2299 0.2307 0.2320 0.2339
2715.000000 0.2358 0.2377 0.2396 0.2415 0.2434
2710.000000 0.2454 0.2474 0.2497 0.2523 0.2550
2705.000000 0.2576 0.2602 0.2628 0.2656 0.2685
2700.000000 0.2715 0.2745 0.2775 0.2806 0.2835
2695.000000 0.2866 0.2896 0.2927 0.2958 0.2988
2690.000000 0.3009 0.3031 0.3052 0.3071 0.3091
2685.000000 0.3110 0.3129 0.3149 0.3168 0.3188
2680.000000 0.3208 0.3228 0.3247 0.3266 0.3287
2675.000000 0.3307 0.3326 0.3348 0.3368 0.3390
2670.000000 0.3412 0.3434 0.3455 0.3477 0.3499
2665.000000 0.3521 0.3543 0.3564 0.3586 0.3608
2660.000000 0.3630 0.3652 0.3673 0.3695 0.3716
2655.000000 0.3736 0.3757 0.3778 0.3798 0.3818
2650.000000 0.3840 0.3860 0.3882 0.3903 0.3923
2645.000000 0.3944 0.3966 0.3987 0.4009 0.4030
2640.000000 0.4053 0.4075 0.4096 0.4118 0.4134
2635.000000 0.4150 0.4166 0.4182 0.4199 0.4212
2630.000000 0.4225 0.4238 0.4250 0.4262 0.4275
2625.000000 0.4278 0.4282 0.4285 0.4287 0.4290
2620.000000 0.4292 0.4294 0.4296 0.4298 0.4300
2615.000000 0.4302 0.4310 0.4319 0.4328 0.4337
2610.000000 0.4346 0.4355 0.4364 0.4373 0.4384
2605.000000 0.4395 0.4407 0.4423 0.4438 0.4454
2600.000000 0.4469 0.4485 0.4500 0.4515 0.4530
2595.000000 0.4546 0.4562 0.4577 0.4593 0.4608
2590.000000 0.4626 0.4643 0.4660 0.4679 0.4697
2585.000000 0.4715 0.4734 0.4752 0.4770 0.4788
2580.000000 0.4806 0.4822 0.4837 0.4852 0.4867
2575.000000 0.4882 0.4897 0.4912 0.4927 0.4941
2570.000000 0.4956 0.4971 0.4986 0.5001 0.5015
2565.000000 0.5030 0.5045 0.5060 0.5075 0.5090
2560.000000 0.5104 0.5119 0.5134 0.5149 0.5164
2555.000000 0.5179 0.5194 0.5209 0.5224 0.5239
2550.000000 0.5253 0.5268 0.5282 0.5297 0.5310
2545.000000 0.5327 0.5344 0.5362 0.5385 0.5408
2540.000000 0.5432 0.5455 0.5478 0.5501 0.5525
2535.000000 0.5548 0.5571 0.5595 0.5618 0.5642
2530.000000 0.5665 0.5688 0.5712 0.5735 0.5759
2525.000000 0.5782 0.5806 0.5830 0.5853 0.5877
2520.000000 0.5901 0.5925 0.5949 0.5972 0.5996
2515.000000 0.6020 0.6043 0.6067 0.6091 0.6115
2510.000000 0.6138 0.6162 0.6186 0.6210 0.6234
2505.000000 0.6258 0.6282 0.6306 0.6327 0.6345
2500.000000 0.6364 0.6376 0.6389 0.6401 0.6415
2495.000000 0.6428 0.6440 0.6453 0.6465 0.6478
2490.000000 0.6492 0.6505 0.6518 0.6531 0.6544
2485.000000 0.6557 0.6569 0.6583 0.6597 0.6611
2480.000000 0.6626 0.6642 0.6658 0.6672 0.6689
2475.000000 0.6704 0.6719 0.6735 0.6751 0.6765
2470.000000 0.6781 0.6794 0.6806 0.6817 0.6828
2465.000000 0.6839 0.6850 0.6861 0.6871 0.6883
2460.000000 0.6894 0.6905 0.6915 0.6926 0.6937
2455.000000 0.6948 0.6960 0.6971 0.6981 0.6992
2450.000000 0.7004 0.7015 0.7025 0.7037 0.7047
2445.000000 0.7058 0.7068 0.7080 0.7090 0.7101
2440.000000 0.7111 0.7122 0.7134 0.7145 0.7155
2435.000000 0.7165 0.7176 0.7187 0.7198 0.7208
2430.000000 0.7219 0.7231 0.7242 0.7251 0.7261
2425.000000 0.7269 0.7278 0.7289 0.7298 0.7307
2420.000000 0.7315 0.7325 0.7335 0.7344 0.7353
2415.000000 0.7361 0.7371 0.7380 0.7389 0.7399
2410.000000 0.7408 0.7417 0.7425 0.7436 0.7445
2405.000000 0.7454 0.7462 0.7471 0.7481 0.7490
2400.000000 0.7500 0.7508 0.7518 0.7526 0.7536
2395.000000 0.7545 0.7555 0.7564 0.7574 0.7583
2390.000000 0.7592 0.7601 0.7610 0.7619 0.7628
2385.000000 0.7638 0.7647 0.7657 0.7665 0.7675
2380.000000 0.7684 0.7694 0.7703 0.7711 0.7721
2375.000000 0.7731 0.7740 0.7749 0.7758 0.7768
2370.000000 0.7776 0.7786 0.7795 0.7804 0.7812
2365.000000 0.7821 0.7830 0.7838 0.7846 0.7854
2360.000000 0.7861 0.7869 0.7878 0.7886 0.7894
2355.000000 0.7901 0.7910 0.7918 0.7925 0.7934
2350.000000 0.7942 0.7951 0.7958 0.7967 0.7975
2345.000000 0.7983 0.7991 0.7999 0.8006 0.8014
2340.000000 0.8021 0.8028 0.8036 0.8044 0.8051
2335.000000 0.8058 0.8067 0.8074 0.8082 0.8090
2330.000000 0.8097 0.8101 0.8105 0.8107 0.8108
2325.000000 0.8111 0.8112 0.8115 0.8118 0.8119
2320.000000 0.8121 0.8125 0.8128 0.8130 0.8134
2315.000000 0.8137 0.8140 0.8143 0.8146 0.8149
2310.000000 0.8151 0.8156 0.8158 0.8164 0.8168
2305.000000 0.8175 0.8182 0.8189 0.8196 0.8202
2300.000000 0.8209 0.8216 0.8221 0.8237 0.8255
2295.000000 0.8273 0.8291 0.8309 0.8328 0.8345
2290.000000 0.8362 0.8378 0.8395 0.8411 0.8428
2285.000000 0.8445 0.8461 0.8477 0.8493 0.8509
2280.000000 0.8524 0.8540 0.8552 0.8564 0.8575
2275.000000 0.8588 0.8599 0.8610 0.8618 0.8625
2270.000000 0.8634 0.8641 0.8646 0.8648 0.8648
2265.000000 0.8648 0.8647 0.8646 0.8645 0.8645
2260.000000 0.8644 0.8642 0.8641 0.8640 0.8639
2255.000000 0.8638 0.8637 0.8636 0.8634 0.8633
2250.000000 0.8632 0.8628 0.8627 0.8625 0.8625
2245.000000 0.8631 0.8639 0.8652 0.8665 0.8674
2240.000000 0.8683 0.8692 0.8701 0.8710 0.8718
2235.000000 0.8728 0.8737 0.8746 0.8754 0.8760
2230.000000 0.8765 0.8768 0.8773 0.8777 0.8780
2225.000000 0.8784 0.8788 0.8791 0.8794 0.8797
2220.000000 0.8800 0.8803 0.8806 0.8809 0.8811
2215.000000 0.8815 0.8818 0.8821 0.8824 0.8827
2210.000000 0.8828 0.8828 0.8828 0.8828 0.8828
2205.000000 0.8828 0.8828 0.8828 0.8828 0.8828
2200.000000 0.8827 0.8827 0.8827 0.8827 0.8827
2195.000000 0.8827 0.8827 0.8827 0.8828 0.8828
2190.000000 0.8828 0.8828 0.8834 0.8840 0.8846
2185.000000 0.8851 0.8857 0.8863 0.8868 0.8875
2180.000000 0.8881 0.8887 0.8893 0.8899 0.8904
2175.000000 0.8911 0.8917 0.8923 0.8928 0.8934
2170.000000 0.8940 0.8946 0.8952 0.8957 0.8962
2165.000000 0.8966 0.8971 0.8975 0.8978 0.8983
2160.000000 0.8988 0.8992 0.8995 0.8999 0.9000
2155.000000 0.9002 0.9003 0.9004 0.9006 0.9007
2150.000000 0.9009 0.9010 0.9011 0.9013 0.9014
2145.000000 0.9016 0.9018 0.9018 0.9020 0.9021
2140.000000 0.9023 0.9025 0.9025 0.9027 0.9028
2135.000000 0.9030 0.9032 0.9034 0.9035 0.9036
2130.000000 0.9036 0.9036 0.9036 0.9036 0.9036
2125.000000 0.9035 0.9035 0.9035 0.9035 0.9035
2120.000000 0.9034 0.9034 0.9034 0.9034 0.9034
2115.000000 0.9034 0.9034 0.9033 0.9033 0.9031
2110.000000 0.9028 0.9027 0.9025 0.9023 0.9021
2105.000000 0.9018 0.9017 0.9014 0.9012 0.9010
2100.000000 0.9008 0.9006 0.9004 0.9002 0.9000
2095.000000 0.8997 0.8995 0.8993 0.8991 0.8989
2090.000000 0.8987 0.8985 0.8982 0.8980 0.8978
2085.000000 0.8975 0.8974 0.8971 0.8970 0.8968
2080.000000 0.8967 0.8964 0.8962 0.8961 0.8959
2075.000000 0.8956 0.8954 0.8953 0.8950 0.8948
2070.000000 0.8946 0.8944 0.8942 0.8940 0.8938
2065.000000 0.8937 0.8936 0.8936 0.8935 0.8933
2060.000000 0.8933 0.8932 0.8931 0.8930 0.8928
2055.000000 0.8928 0.8927 0.8925 0.8925 0.8925
2050.000000 0.8923 0.8921 0.8921 0.8921 0.8920
2045.000000 0.8918 0.8916 0.8915 0.8914 0.8912
2040.000000 0.8911 0.8909 0.8907 0.8906 0.8905
2035.000000 0.8903 0.8901 0.8900 0.8899 0.8897
2030.000000 0.8895 0.8894 0.8893 0.8891 0.8890
2025.000000 0.8888 0.8887 0.8885 0.8884 0.8882
2020.000000 0.8881 0.8878 0.8878 0.8875 0.8874
2015.000000 0.8871 0.8871 0.8870 0.8868 0.8866
2010.000000 0.8865 0.8863 0.8861 0.8860 0.8858
2005.000000 0.8853 0.8849 0.8846 0.8841 0.8837
2000.000000 0.8833 0.8828 0.8824 0.8820 0.8816
1995.000000 0.8812 0.8807 0.8802 0.8797 0.8792
1990.000000 0.8786 0.8781 0.8775 0.8770 0.8765
1985.000000 0.8759 0.8754 0.8749 0.8743 0.8738
1980.000000 0.8732 0.8727 0.8721 0.8717 0.8711
1975.000000 0.8706 0.8701 0.8696 0.8691 0.8685
1970.000000 0.8678 0.8674 0.8668 0.8664 0.8659
1965.000000 0.8654 0.8651 0.8648 0.8644 0.8640
1960.000000 0.8637 0.8634 0.8630 0.8627 0.8624
1955.000000 0.8620 0.8616 0.8613 0.8610 0.8607
1950.000000 0.8603 0.8599 0.8596 0.8592 0.8591
1945.000000 0.8590 0.8589 0.8589 0.8588 0.8588
1940.000000 0.8587 0.8587 0.8589 0.8591 0.8594
1935.000000 0.8596 0.8598 0.8600 0.8602 0.8605
1930.000000 0.8608 0.8610 0.8612 0.8614 0.8618
1925.000000 0.8620 0.8623 0.8625 0.8628 0.8631
1920.000000 0.8634 0.8637 0.8640 0.8643 0.8646
1915.000000 0.8646 0.8646 0.8642 0.8637 0.8632
1910.000000 0.8628 0.8623 0.8618 0.8614 0.8610
1905.000000 0.8604 0.8598 0.8590 0.8582 0.8574
1900.000000 0.8567 0.8559 0.8552 0.8552 0.8554
1895.000000 0.8556 0.8558 0.8561 0.8564 0.8567
1890.000000 0.8570 0.8571 0.8575 0.8578 0.8580
1885.000000 0.8582 0.8583 0.8584 0.8584 0.8585
1880.000000 0.8585 0.8586 0.8587 0.8587 0.8587
1875.000000 0.8586 0.8584 0.8584 0.8583 0.8581
1870.000000 0.8580 0.8578 0.8578 0.8575 0.8575
1865.000000 0.8574 0.8573 0.8571 0.8570 0.8568
1860.000000 0.8568 0.8567 0.8565 0.8564 0.8564
1855.000000 0.8562 0.8561 0.8560 0.8559 0.8557
1850.000000 0.8556 0.8555 0.8554 0.8553 0.8552
1845.000000 0.8550 0.8550 0.8549 0.8547 0.8546
1840.000000 0.8545 0.8544 0.8542 0.8542 0.8540
1835.000000 0.8539 0.8537 0.8537 0.8535 0.8534
1830.000000 0.8533 0.8532 0.8531 0.8530 0.8528
1825.000000 0.8528 0.8527 0.8525 0.8525 0.8525
1820.000000 0.8524 0.8523 0.8521 0.8521 0.8520
1815.000000 0.8518 0.8518 0.8518 0.8517 0.8516
1810.000000 0.8515 0.8514 0.8513 0.8512 0.8511
1805.000000 0.8510 0.8510 0.8509 0.8508 0.8507
1800.000000 0.8506 0.8504 0.8503 0.8501 0.8499
1795.000000 0.8497 0.8495 0.8493 0.8490 0.8489
1790.000000 0.8487 0.8485 0.8483 0.8481 0.8478
1785.000000 0.8477 0.8475 0.8473 0.8471 0.8468
1780.000000 0.8467 0.8465 0.8462 0.8461 0.8459
1775.000000 0.8457 0.8455 0.8452 0.8448 0.8444
1770.000000 0.8439 0.8435 0.8430 0.8425 0.8421
1765.000000 0.8417 0.8413 0.8408 0.8404 0.8400
1760.000000 0.8395 0.8391 0.8386 0.8382 0.8377
1755.000000 0.8371 0.8366 0.8360 0.8354 0.8347
1750.000000 0.8341 0.8335 0.8328 0.8323 0.8318
1745.000000 0.8311 0.8305 0.8299 0.8293 0.8287
1740.000000 0.8281 0.8275 0.8268 0.8262 0.8256
1735.000000 0.8250 0.8244 0.8238 0.8232 0.8225
1730.000000 0.8218 0.8210 0.8202 0.8194 0.8186
1725.000000 0.8178 0.8168 0.8161 0.8153 0.8145
1720.000000 0.8135 0.8124 0.8112 0.8101 0.8091
1715.000000 0.8080 0.8068 0.8058 0.8045 0.8032
1710.000000 0.8019 0.8008 0.7995 0.7982 0.7968
1705.000000 0.7956 0.7942 0.7928 0.7915 0.7901
1700.000000 0.7888 0.7874 0.7860 0.7846 0.7833
1695.000000 0.7818 0.7805 0.7787 0.7765 0.7744
1690.000000 0.7721 0.7699 0.7676 0.7655 0.7628
1685.000000 0.7594 0.7558 0.7521 0.7486 0.7450
1680.000000 0.7415 0.7378 0.7342 0.7306 0.7271
1675.000000 0.7242 0.7214 0.7186 0.7158 0.7130
1670.000000 0.7101 0.7074 0.7046 0.7014 0.6980
1665.000000 0.6946 0.6911 0.6878 0.6843 0.6808
1660.000000 0.6774 0.6738 0.6704 0.6668 0.6633
1655.000000 0.6598 0.6558 0.6515 0.6471 0.6425
1650.000000 0.6381 0.6327 0.6225 0.6121 0.5986
1645.000000 0.5853 0.5745 0.5647 0.5522 0.5357
1640.000000 0.5209 0.5109 0.5016 0.4943 0.4874
1635.000000 0.4774 0.4670 0.4566 0.4462 0.4357
1630.000000 0.4253 0.4149 0.4044 0.3939 0.3834
1625.000000 0.3729 0.3624 0.3518 0.3412 0.3308
1620.000000 0.3202 0.3096 0.2990 0.2884 0.2780
1615.000000 0.2744 0.2707 0.2721 0.2722 0.2731
1610.000000 0.2747 0.2783 0.2863 0.2970 0.3082
1605.000000 0.3195 0.3309 0.3421 0.3534 0.3647
1600.000000 0.3760 0.3874 0.3988 0.4102 0.4216
1595.000000 0.4330 0.4444 0.4558 0.4673 0.4788
1590.000000 0.4902 0.5017 0.5132 0.5248 0.5362
1585.000000 0.5471 0.5548 0.5598 0.5648 0.5699
1580.000000 0.5749 0.5803 0.5872 0.5950 0.6026
1575.000000 0.6091 0.6151 0.6212 0.6271 0.6324
1570.000000 0.6371 0.6415 0.6458 0.6496 0.6521
1565.000000 0.6542 0.6558 0.6571 0.6572 0.6565
1560.000000 0.6556 0.6545 0.6534 0.6525 0.6519
1555.000000 0.6517 0.6512 0.6528 0.6551 0.6571
1550.000000 0.6591 0.6601 0.6648 0.6614 0.6619
1545.000000 0.6619 0.6617 0.6614 0.6611 0.6608
1540.000000 0.6605 0.6601 0.6597 0.6588 0.6580
1535.000000 0.6571 0.6564 0.6555 0.6547 0.6538
1530.000000 0.6519 0.6501 0.6482 0.6462 0.6445
1525.000000 0.6425 0.6407 0.6384 0.6350 0.6312
1520.000000 0.6274 0.6236 0.6197 0.6155 0.6102
1515.000000 0.6049 0.5996 0.5944 0.5893 0.5847
1510.000000 0.5803 0.5759 0.5715 0.5670 0.5626
1505.000000 0.5559 0.5476 0.5391 0.5295 0.5191
1500.000000 0.5088 0.4955 0.4806 0.4680 0.4597
1495.000000 0.4515 0.4432 0.4330 0.4194 0.4104
1490.000000 0.4045 0.3987 0.3759 0.3529 0.3296
1485.000000 0.3063 0.2830 0.2596 0.2363 0.2129
1480.000000 0.1894 0.1659 0.1424 0.1209 0.1250
1475.000000 0.1237 0.1233 0.1233 0.1249 0.1273
1470.000000 0.1322 0.1390 0.1463 0.1537 0.1601
1465.000000 0.1665 0.1752 0.1860 0.1969 0.2090
1460.000000 0.2211 0.2322 0.2414 0.2503 0.2592
1455.000000 0.2661 0.2719 0.2778 0.2835 0.2895
1450.000000 0.2962 0.3034 0.3107 0.3180 0.3253
1445.000000 0.3320 0.3386 0.3453 0.3518 0.3584
1440.000000 0.3652 0.3705 0.3750 0.3795 0.3840
1435.000000 0.3886 0.3930 0.3978 0.4027 0.4078
1430.000000 0.4128 0.4179 0.4229 0.4275 0.4319
1425.000000 0.4362 0.4408 0.4453 0.4503 0.4557
1420.000000 0.4610 0.4658 0.4701 0.4744 0.4787
1415.000000 0.4826 0.4865 0.4902 0.4937 0.4966
1410.000000 0.4992 0.5006 0.5019 0.5034 0.5025
1405.000000 0.5024 0.5023 0.5022 0.5017 0.5005
1400.000000 0.4992 0.4981 0.4967 0.4934 0.4888
1395.000000 0.4841 0.4776 0.4654 0.4534 0.4431
1390.000000 0.4329 0.4231 0.4141 0.4099 0.4057
1385.000000 0.4014 0.3984 0.3962 0.3940 0.3918
1380.000000 0.3899 0.3880 0.3862 0.3832 0.3791
1375.000000 0.3748 0.3696 0.3632 0.3568 0.3493
1370.000000 0.3418 0.3339 0.3259 0.3198 0.3148
1365.000000 0.3109 0.3070 0.3031 0.2994 0.2983
1360.000000 0.2998 0.2978 0.2976 0.2990 0.3015
1355.000000 0.3047 0.3081 0.3115 0.3150 0.3184
1350.000000 0.3220 0.3254 0.3288 0.3314 0.3339
1345.000000 0.3362 0.3387 0.3407 0.3423 0.3439
1340.000000 0.3452 0.3455 0.3455 0.3455 0.3456
1335.000000 0.3458 0.3487 0.3524 0.3559 0.3579
1330.000000 0.3582 0.3586 0.3590 0.3603 0.3622
1325.000000 0.3641 0.3659 0.3680 0.3700 0.3742
1320.000000 0.3782 0.3823 0.3864 0.3912 0.3962
1315.000000 0.4012 0.4064 0.4120 0.4177 0.4233
1310.000000 0.4280 0.4315 0.4350 0.4385 0.4420
1305.000000 0.4452 0.4482 0.4512 0.4542 0.4578
1300.000000 0.4642 0.4715 0.4777 0.4833 0.4890
1295.000000 0.4925 0.4946 0.4968 0.4983 0.4989
1290.000000 0.4993 0.4992 0.4986 0.4985 0.4984
1285.000000 0.4987 0.4992 0.4995 0.5000 0.5009
1280.000000 0.5027 0.5047 0.5066 0.5085 0.5104
1275.000000 0.5123 0.5141 0.5159 0.5177 0.5196
1270.000000 0.5214 0.5225 0.5234 0.5242 0.5251
1265.000000 0.5260 0.5269 0.5276 0.5283 0.5290
1260.000000 0.5297 0.5308 0.5325 0.5342 0.5360
1255.000000 0.5380 0.5404 0.5434 0.5524 0.5590
1250.000000 0.5650 0.5712 0.5777 0.5841 0.5908
1245.000000 0.5980 0.6054 0.6128 0.6196 0.6254
1240.000000 0.6312 0.6370 0.6422 0.6461 0.6499
1235.000000 0.6536 0.6572 0.6610 0.6647 0.6684
1230.000000 0.6715 0.6747 0.6776 0.6808 0.6838
1225.000000 0.6858 0.6878 0.6896 0.6911 0.6921
1220.000000 0.6934 0.6942 0.6978 0.6951 0.6958
1215.000000 0.6946 0.6932 0.6904 0.6867 0.6830
1210.000000 0.6792 0.6744 0.6691 0.6638 0.6584
1205.000000 0.6531 0.6471 0.6379 0.6281 0.6182
1200.000000 0.6083 0.5980 0.5878 0.5778 0.5682
1195.000000 0.5593 0.5500 0.5397 0.5342 0.5304
1190.000000 0.5273 0.5264 0.5241 0.5255 0.5255
1185.000000 0.5268 0.5310 0.5358 0.5409 0.5481
1180.000000 0.5555 0.5624 0.5690 0.5755 0.5821
1175.000000 0.5874 0.5925 0.5976 0.6027 0.6078
1170.000000 0.6133 0.6191 0.6243 0.6287 0.6324
1165.000000 0.6340 0.6372 0.6357 0.6357 0.6357
1160.000000 0.6339 0.6298 0.6241 0.6177 0.6079
1155.000000 0.5978 0.5855 0.5728 0.5639 0.5506
1150.000000 0.5282 0.5059 0.4834 0.4609 0.4384
1145.000000 0.4158 0.3932 0.3706 0.3479 0.3250
1140.000000 0.3024 0.2796 0.2684 0.2612 0.2552
1135.000000 0.2509 0.2485 0.2484 0.2482 0.2477
1130.000000 0.2467 0.2432 0.2389 0.2389 0.2441
1125.000000 0.2549 0.2645 0.2743 0.2847 0.2952
1120.000000 0.3071 0.3196 0.3330 0.3480 0.3618
1115.000000 0.3702 0.3784 0.3868 0.3962 0.4054
1110.000000 0.4129 0.4204 0.4260 0.4309 0.4351
1105.000000 0.4403 0.4381 0.4390 0.4393 0.4385
1100.000000 0.4369 0.4324 0.4264 0.4171 0.4055
1095.000000 0.3932 0.3787 0.3641 0.3486 0.3330
1090.000000 0.3171 0.3007 0.2862 0.2730 0.2593
1085.000000 0.2430 0.2254 0.2065 0.1992 0.1918
1080.000000 0.1858 0.1804 0.1754 0.1710 0.1675
1075.000000 0.1642 0.1620 0.1587 0.1592 0.1617
1070.000000 0.1662 0.1707 0.1781 0.1862 0.1941
1065.000000 0.2016 0.2091 0.2165 0.2237 0.2309
1060.000000 0.2383 0.2462 0.2539 0.2597 0.2656
1055.000000 0.2713 0.2767 0.2794 0.2813 0.2810
1050.000000 0.2802 0.2793 0.2784 0.2783 0.2799
1045.000000 0.2841 0.2900 0.2929 0.2934 0.2947
1040.000000 0.2918 0.2879 0.2816 0.2741 0.2661
1035.000000 0.2580 0.2489 0.2394 0.2309 0.2228
1030.000000 0.2147 0.2076 0.2017 0.1960 0.1924
1025.000000 0.1896 0.1877 0.1829 0.1872 0.1870
1020.000000 0.1869 0.1877 0.1903 0.1934 0.1976
1015.000000 0.2004 0.2014 0.2029 0.2006 0.1994
1010.000000 0.1979 0.1951 0.1915 0.1877 0.1820
1005.000000 0.1745 0.1670 0.1594 0.1511 0.1434
1000.000000 0.1366 0.1296 0.1227 0.1170 0.1117
995.000000 0.1063 0.1009 0.0955 0.0896 0.0836
990.000000 0.0773 0.0714 0.0663 0.0614 0.0564
985.000000 0.0532 0.0503 0.0475 0.0448 0.0431
980.000000 0.0413 0.0398 0.0364 0.0379 0.0388
975.000000 0.0400 0.0423 0.0453 0.0483 0.0519
970.000000 0.0579 0.0633 0.0681 0.0729 0.0769
965.000000 0.0807 0.0846 0.0885 0.0929 0.0972
960.000000 0.1016 0.1057 0.1098 0.1135 0.1167
955.000000 0.1198 0.1246 0.1230 0.1224 0.1223
950.000000 0.1221 0.1219 0.1216 0.1209 0.1199
945.000000 0.1189 0.1180 0.1170 0.1159 0.1140
940.000000 0.1121 0.1102 0.1088 0.1073 0.1056
935.000000 0.1041 0.1027 0.1013 0.1008 0.1007
930.000000 0.1007 0.1011 0.1015 0.1020 0.1027
925.000000 0.1037 0.1049 0.1061 0.1072 0.1084
920.000000 0.1096 0.1108 0.1118 0.1113 0.1107
915.000000 0.1094 0.1078 0.1057 0.1036 0.1016
910.000000 0.0999 0.0981 0.0969 0.0956 0.0953
905.000000 0.0953 0.0954 0.0975 0.0972 0.0989
900.000000 0.1022 0.1052 0.1081 0.1109 0.1138
895.000000 0.1167 0.1199 0.1230 0.1261 0.1292
890.000000 0.1324 0.1356 0.1388 0.1414 0.1440
885.000000 0.1465 0.1491 0.1517 0.1542 0.1568
880.000000 0.1594 0.1620 0.1646 0.1673 0.1699
875.000000 0.1726 0.1752 0.1777 0.1802 0.1828
870.000000 0.1854 0.1879 0.1904 0.1931 0.1956
865.000000 0.1983 0.2010 0.2035 0.2063 0.2090
860.000000 0.2118 0.2148 0.2178 0.2208 0.2227
855.000000 0.2240 0.2252 0.2263 0.2270 0.2291
850.000000 0.2284 0.2285 0.2289 0.2290 0.2287
845.000000 0.2283 0.2257 0.2226 0.2211 0.2214
840.000000 0.2231 0.2243 0.2242 0.2234 0.2225
835.000000 0.2215 0.2205 0.2146 0.2193 0.2199
830.000000 0.2208 0.2228 0.2248 0.2278 0.2315
825.000000 0.2358 0.2400 0.2445 0.2498 0.2550
820.000000 0.2603 0.2658 0.2722 0.2787 0.2850
815.000000 0.2912 0.2974 0.3034 0.3097 0.3151
810.000000 0.3196 0.3241 0.3286 0.3330 0.3377
805.000000 0.3421 0.3464 0.3509 0.3547 0.3580
800.000000 0.3616 0.3650 0.3684 0.3716 0.3746
795.000000 0.3777 0.3806 0.3834 0.3858 0.3882
790.000000 0.3906 0.3930 0.3954 0.3976 0.3993
785.000000 0.4008 0.4016 0.4022 0.4021 0.4026
780.000000 0.4026 0.4027 0.4027 0.4026 0.4025
775.000000 0.4025 0.4026 0.4027 0.4032 0.4045
770.000000 0.4059 0.4072 0.4086 0.4099 0.4116
765.000000 0.4136 0.4158 0.4178 0.4198 0.4219
760.000000 0.4242 0.4266 0.4291 0.4316 0.4340
755.000000 0.4364 0.4384 0.4402 0.4419 0.4437
750.000000 0.4455 0.4472 0.4477 0.4480 0.4484
745.000000 0.4488 0.4490 0.4491 0.4491 0.4491
740.000000 0.4491 0.4490 0.4489 0.4488 0.4488
735.000000 0.4490 0.4492 0.4494 0.4503 0.4499
730.000000 0.4500 0.4502 0.4503 0.4504 0.4506
725.000000 0.4514 0.4522 0.4529 0.4538 0.4545
720.000000 0.4558 0.4574 0.4590 0.4612 0.4635
715.000000 0.4658 0.4696 0.4736 0.4775 0.4816
710.000000 0.4860 0.4905 0.4952 0.4998 0.5044
705.000000 0.5081 0.5112 0.5145 0.5177 0.5206
700.000000 0.5233 0.5258 0.5285 0.5307 0.5329
695.000000 0.5352 0.5375 0.5398 0.5420 0.5443
690.000000 0.5462 0.5477 0.5490 0.5499 0.5509
685.000000 0.5524 0.5540 0.5556 0.5576 0.5598
680.000000 0.5616 0.5632 0.5634 0.5618 0.5612
675.000000 0.5600 0.5640 0.5659 0.5674 0.5682
670.000000 0.5686 0.5668 0.5644 0.5621 0.5597
665.000000 0.5600 0.5605 0.5609 0.5617 0.5630
660.000000 0.5641 0.5654 0.5660 0.5660 0.5662
655.000000 0.5664 0.5666 0.5668 0.5669 0.5669
650.000000 0.5664 0.5659 0.5659 0.5659 0.5664
645.000000 0.5669 0.5675 0.5681 0.5688 0.5695
640.000000 0.5698 0.5700 0.5703 0.5706 0.5710
635.000000 0.5715 0.5719 0.5722 0.5725 0.5728
630.000000 0.5732 0.5734 0.5736 0.5740 0.5745
##END=
