##TITLE=ETHANOL, 2-AMINO-
##JCAMP-DX=4.24
##DATA TYPE=INFRARED SPECTRUM
##CLASS=COBLENTZ III
##ORIGIN=DOW CHEMICAL COMPANY
##OWNER=COBLENTZ SOCIETY
Collection (C) 2018 copyright by the U.S. Secretary of Commerce
on behalf of the United States of America. All rights reserved.
##DATE=1960/03/07
##NAMES=2-aminoethanol
##CAS REGISTRY NO=141-43-5
##MOLFORM=C2 H7 N O
##SOURCE REFERENCE=COBLENTZ NO. 10106
##$NIST SOURCE=COBLENTZ
##$NIST IMAGE=cob10106
##SPECTROMETER/DATA SYSTEM=DOW KBr FOREPRISM-GRATING
##INSTRUMENT PARAMETERS=BLAZED AT 3.5, 12.0, 20.0 MICRON, CHANGED AT 5.0, 7.5, 14.9 MICRON
##STATE=LIQUID (NEAT)
##PATH LENGTH=CAPILLARY, KBr PLATES
##SAMPLING PROCEDURE=TRANSMISSION
##RESOLUTION=4
##DATA PROCESSING=DIGITIZED BY NIST FROM HARD COPY (FROM TWO SEGMENTS)
##XUNITS=1/CM
##YUNITS=TRANSMITTANCE
##XFACTOR=1.000000
##YFACTOR=1
##DELTAX=0.852881
##FIRSTX=398.294
##LASTX=3794.46
##FIRSTY=0.796
##MAXX=3794.46
##MINX=398.294
##MAXY=1.003
##MINY=0.193186
##NPOINTS=3983
##XYDATA=(X++(Y..Y))
398.294000 0.7960 0.7960 0.7960 0.7940 0.7940
402.558403 0.7940 0.7940 0.7940 0.7940 0.7930
406.822805 0.7930 0.7930 0.7930 0.7930 0.7930
411.087208 0.7930 0.7930 0.7930 0.7940 0.7940
415.351611 0.7940 0.7940 0.7940 0.7940 0.7940
419.616014 0.7940 0.7940 0.7960 0.7960 0.7960
423.880416 0.7970 0.7970 0.7970 0.7980 0.7980
428.144819 0.7980 0.8000 0.8000 0.8010 0.8010
432.409222 0.8010 0.8010 0.8020 0.8020 0.8040
436.673625 0.8050 0.8050 0.8060 0.8060 0.8080
440.938027 0.8080 0.8080 0.8090 0.8090 0.8100
445.202430 0.8100 0.8100 0.8100 0.8120 0.8120
449.466833 0.8120 0.8120 0.8120 0.8130 0.8130
453.731235 0.8130 0.8130 0.8130 0.8130 0.8130
457.995638 0.8130 0.8130 0.8130 0.8140 0.8160
462.260041 0.8170 0.8170 0.8180 0.8200 0.8200
466.524444 0.8200 0.8200 0.8210 0.8210 0.8210
470.788846 0.8220 0.8240 0.8240 0.8240 0.8250
475.053249 0.8250 0.8280 0.8280 0.8290 0.8290
479.317652 0.8320 0.8330 0.8340 0.8360 0.8360
483.582054 0.8370 0.8380 0.8400 0.8410 0.8420
487.846457 0.8420 0.8440 0.8450 0.8450 0.8450
492.110860 0.8460 0.8480 0.8480 0.8480 0.8480
496.375263 0.8460 0.8460 0.8440 0.8440 0.8420
500.639665 0.8400 0.8380 0.8360 0.8340 0.8330
504.904068 0.8320 0.8300 0.8280 0.8240 0.8210
509.168471 0.8180 0.8180 0.8140 0.8130 0.8130
513.432874 0.8120 0.8120 0.8120 0.8120 0.8130
517.697276 0.8140 0.8140 0.8160 0.8160 0.8170
521.961679 0.8180 0.8210 0.8220 0.8250 0.8260
526.226082 0.8290 0.8300 0.8330 0.8360 0.8420
530.490484 0.8490 0.8500 0.8520 0.8540 0.8540
534.754887 0.8570 0.8580 0.8600 0.8610 0.8620
539.019290 0.8620 0.8640 0.8680 0.8690 0.8690
543.283693 0.8690 0.8690 0.8700 0.8700 0.8700
547.548095 0.8720 0.8720 0.8720 0.8730 0.8740
551.812498 0.8740 0.8760 0.8760 0.8760 0.8760
556.076901 0.8760 0.8740 0.8730 0.8720 0.8720
560.341303 0.8700 0.8700 0.8700 0.8690 0.8690
564.605706 0.8690 0.8680 0.8650 0.8640 0.8620
568.870109 0.8620 0.8620 0.8620 0.8620 0.8620
573.134512 0.8620 0.8620 0.8640 0.8640 0.8640
577.398914 0.8640 0.8640 0.8640 0.8640 0.8640
581.663317 0.8650 0.8660 0.8660 0.8690 0.8700
585.927720 0.8700 0.8700 0.8720 0.8720 0.8720
590.192123 0.8720 0.8720 0.8720 0.8720 0.8720
594.456525 0.8720 0.8720 0.8720 0.8720 0.8720
598.720928 0.8730 0.8730 0.8730 0.8720 0.8720
602.985331 0.8720 0.8700 0.8700 0.8700 0.8690
607.249733 0.8690 0.8680 0.8680 0.8660 0.8650
611.514136 0.8650 0.8640 0.8640 0.8640 0.8640
615.778539 0.8640 0.8640 0.8640 0.8620 0.8620
620.042942 0.8610 0.8600 0.8600 0.8580 0.8580
624.307344 0.8580 0.8580 0.8580 0.8570 0.8570
628.571747 0.8560 0.8560 0.8560 0.8540 0.8530
632.836150 0.8530 0.8530 0.8530 0.8530 0.8530
637.100552 0.8520 0.8520 0.8520 0.8500 0.8500
641.364955 0.8500 0.8500 0.8500 0.8500 0.8500
645.629358 0.8500 0.8500 0.8490 0.8490 0.8480
649.893761 0.8480 0.8480 0.8460 0.8460 0.8450
654.158163 0.8420 0.8410 0.8410 0.8410 0.8400
658.422566 0.8400 0.8400 0.8400 0.8380 0.8380
662.686969 0.8380 0.8380 0.8380 0.8380 0.8380
666.951372 0.8370 0.8370 0.8370 0.8370 0.8370
671.215774 0.8360 0.8360 0.8360 0.8360 0.8340
675.480177 0.8340 0.8340 0.8330 0.8330 0.8330
679.744580 0.8320 0.8320 0.8300 0.8300 0.8300
684.008982 0.8300 0.8300 0.8290 0.8290 0.8290
688.273385 0.8290 0.8290 0.8280 0.8280 0.8260
692.537788 0.8250 0.8220 0.8220 0.8220 0.8220
696.802191 0.8210 0.8210 0.8210 0.8200 0.8200
701.066593 0.8200 0.8180 0.8180 0.8180 0.8170
705.330996 0.8170 0.8170 0.8160 0.8160 0.8160
709.595399 0.8160 0.8160 0.8160 0.8130 0.8130
713.859802 0.8120 0.8100 0.8100 0.8100 0.8100
718.124204 0.8100 0.8100 0.8100 0.8100 0.8090
722.388607 0.8090 0.8080 0.8080 0.8090 0.8090
726.653010 0.8090 0.8090 0.8090 0.8090 0.8090
730.917412 0.8080 0.8060 0.8060 0.8060 0.8050
735.181815 0.8050 0.8050 0.8040 0.8040 0.8020
739.446218 0.8020 0.8020 0.8020 0.8010 0.8010
743.710621 0.8010 0.8010 0.8000 0.8000 0.8000
747.975023 0.7980 0.7980 0.7970 0.7970 0.7960
752.239426 0.7960 0.7960 0.7940 0.7940 0.7930
756.503829 0.7930 0.7930 0.7920 0.7920 0.7920
760.768231 0.7920 0.7920 0.7900 0.7900 0.7900
765.032634 0.7890 0.7890 0.7880 0.7880 0.7860
769.297037 0.7850 0.7820 0.7810 0.7810 0.7810
773.561440 0.7810 0.7810 0.7810 0.7810 0.7800
777.825842 0.7800 0.7780 0.7780 0.7760 0.7740
782.090245 0.7740 0.7730 0.7730 0.7720 0.7700
786.354648 0.7690 0.7690 0.7680 0.7660 0.7660
790.619051 0.7650 0.7640 0.7610 0.7610 0.7600
794.883453 0.7600 0.7600 0.7580 0.7580 0.7580
799.147856 0.7580 0.7580 0.7570 0.7560 0.7530
803.412259 0.7500 0.7490 0.7480 0.7470 0.7450
807.676661 0.7440 0.7430 0.7430 0.7410 0.7400
811.941064 0.7350 0.7290 0.7270 0.7270 0.7240
816.205467 0.7170 0.7150 0.7120 0.7110 0.7090
820.469870 0.7070 0.7050 0.7000 0.7000 0.6970
824.734272 0.6930 0.6880 0.6800 0.6770 0.6760
828.998675 0.6750 0.6690 0.6670 0.6640 0.6610
833.263078 0.6570 0.6530 0.6510 0.6490 0.6480
837.527480 0.6450 0.6410 0.6390 0.6350 0.6310
841.791883 0.6310 0.6250 0.6240 0.6230 0.6210
846.056286 0.6200 0.6200 0.6190 0.6190 0.6190
850.320689 0.6190 0.6170 0.6130 0.6070 0.6040
854.585091 0.6010 0.5960 0.5920 0.5880 0.5830
858.849494 0.5790 0.5760 0.5650 0.5600 0.5530
863.113897 0.5490 0.5440 0.5400 0.5360 0.5350
867.378300 0.5360 0.5370 0.5390 0.5400 0.5410
871.642702 0.5450 0.5480 0.5480 0.5520 0.5550
875.907105 0.5570 0.5610 0.5640 0.5720 0.5750
880.171508 0.5850 0.5890 0.6000 0.6090 0.6150
884.435910 0.6200 0.6210 0.6240 0.6250 0.6270
888.700313 0.6280 0.6280 0.6270 0.6270 0.6250
892.964716 0.6240 0.6210 0.6200 0.6200 0.6190
897.229119 0.6160 0.6160 0.6150 0.6120 0.6110
901.493521 0.6050 0.6030 0.6010 0.5990 0.5960
905.757924 0.5950 0.5950 0.5930 0.5910 0.5890
910.022327 0.5880 0.5870 0.5800 0.5750 0.5720
914.286729 0.5650 0.5640 0.5630 0.5610 0.5590
918.551132 0.5550 0.5550 0.5510 0.5480 0.5410
922.815535 0.5370 0.5360 0.5350 0.5330 0.5270
927.079938 0.5230 0.5190 0.5160 0.5150 0.5110
931.344340 0.5080 0.5040 0.5010 0.5000 0.4950
935.608743 0.4920 0.4900 0.4880 0.4840 0.4840
939.873146 0.4830 0.4820 0.4790 0.4750 0.4710
944.137549 0.4680 0.4660 0.4630 0.4630 0.4620
948.401951 0.4600 0.4600 0.4600 0.4590 0.4590
952.666354 0.4590 0.4590 0.4590 0.4590 0.4600
956.930757 0.4600 0.4620 0.4620 0.4620 0.4630
961.195159 0.4640 0.4660 0.4670 0.4680 0.4680
965.459562 0.4700 0.4720 0.4720 0.4750 0.4760
969.723965 0.4790 0.4800 0.4820 0.4860 0.4870
973.988368 0.4880 0.4900 0.4950 0.5000 0.5000
978.252770 0.5010 0.5040 0.5090 0.5110 0.5130
982.517173 0.5150 0.5160 0.5160 0.5170 0.5190
986.781576 0.5190 0.5190 0.5200 0.5200 0.5210
991.045978 0.5210 0.5210 0.5210 0.5210 0.5210
995.310381 0.5210 0.5210 0.5210 0.5210 0.5210
999.574784 0.5230 0.5230 0.5240 0.5290 0.5310
1003.839187 0.5320 0.5350 0.5360 0.5370 0.5390
1008.103589 0.5440 0.5450 0.5470 0.5480 0.5490
1012.367992 0.5490 0.5490 0.5490 0.5480 0.5470
1016.632395 0.5430 0.5370 0.5330 0.5330 0.5210
1020.896798 0.5050 0.4860 0.4700 0.4600 0.4480
1025.161200 0.4440 0.4360 0.4270 0.4111 0.4020
1029.425603 0.3980 0.3870 0.3790 0.3740 0.3720
1033.690006 0.3720 0.3720 0.3740 0.3750 0.3780
1037.954408 0.3800 0.3830 0.3860 0.3940 0.3980
1042.218811 0.4100 0.4120 0.4220 0.4270 0.4420
1046.483214 0.4580 0.4760 0.4940 0.5010 0.5190
1050.747617 0.5320 0.5590 0.5760 0.5910 0.5950
1055.012019 0.5960 0.5970 0.5960 0.5930 0.5920
1059.276422 0.5910 0.5870 0.5830 0.5730 0.5650
1063.540825 0.5630 0.5560 0.5470 0.5360 0.5240
1067.805228 0.5150 0.5040 0.4960 0.4830 0.4700
1072.069630 0.4550 0.4390 0.4310 0.4160 0.4100
1076.334033 0.4080 0.4070 0.4070 0.4070 0.4070
1080.598436 0.4080 0.4140 0.4200 0.4300 0.4310
1084.862838 0.4470 0.4620 0.4760 0.4900 0.5040
1089.127241 0.5190 0.5430 0.5640 0.5920 0.6320
1093.391644 0.6370 0.6530 0.6640 0.6760 0.6840
1097.656047 0.6910 0.6930 0.6970 0.7000 0.7050
1101.920449 0.7090 0.7120 0.7160 0.7190 0.7230
1106.184852 0.7240 0.7290 0.7370 0.7410 0.7450
1110.449255 0.7530 0.7580 0.7690 0.7770 0.7880
1114.713657 0.7920 0.7970 0.8020 0.8090 0.8130
1118.978060 0.8170 0.8200 0.8320 0.8340 0.8400
1123.242463 0.8460 0.8520 0.8560 0.8600 0.8610
1127.506866 0.8640 0.8690 0.8720 0.8760 0.8780
1131.771268 0.8820 0.8890 0.8900 0.8900 0.8920
1136.035671 0.8920 0.8930 0.8930 0.8930 0.8940
1140.300074 0.8940 0.8960 0.8970 0.8970 0.8970
1144.564477 0.8970 0.8970 0.8960 0.8930 0.8920
1148.828879 0.8920 0.8900 0.8900 0.8890 0.8890
1153.093282 0.8890 0.8880 0.8840 0.8820 0.8810
1157.357685 0.8780 0.8760 0.8740 0.8730 0.8730
1161.622087 0.8720 0.8700 0.8700 0.8690 0.8690
1165.886490 0.8660 0.8650 0.8650 0.8650 0.8650
1170.150893 0.8650 0.8650 0.8660 0.8660 0.8660
1174.415296 0.8660 0.8660 0.8690 0.8690 0.8700
1178.679698 0.8700 0.8700 0.8700 0.8720 0.8780
1182.944101 0.8840 0.8890 0.8940 0.8980 0.9020
1187.208504 0.9060 0.9100 0.9100 0.9130 0.9130
1191.472906 0.9170 0.9180 0.9180 0.9220 0.9260
1195.737309 0.9280 0.9280 0.9290 0.9290 0.9300
1200.001712 0.9300 0.9320 0.9320 0.9300 0.9300
1204.266115 0.9300 0.9320 0.9320 0.9300 0.9280
1208.530517 0.9280 0.9280 0.9280 0.9260 0.9250
1212.794920 0.9240 0.9220 0.9210 0.9210 0.9210
1217.059323 0.9200 0.9180 0.9170 0.9140 0.9140
1221.323726 0.9120 0.9100 0.9080 0.9060 0.9060
1225.588128 0.9060 0.9050 0.9050 0.9040 0.9020
1229.852531 0.9020 0.9020 0.9010 0.9010 0.9010
1234.116934 0.9000 0.8940 0.8930 0.8920 0.8900
1238.381336 0.8880 0.8850 0.8850 0.8850 0.8820
1242.645739 0.8820 0.8810 0.8810 0.8810 0.8800
1246.910142 0.8800 0.8800 0.8800 0.8800 0.8800
1251.174545 0.8800 0.8780 0.8780 0.8780 0.8780
1255.438947 0.8780 0.8780 0.8800 0.8800 0.8800
1259.703350 0.8800 0.8800 0.8800 0.8800 0.8800
1263.967753 0.8800 0.8800 0.8800 0.8800 0.8800
1268.232155 0.8800 0.8810 0.8810 0.8810 0.8810
1272.496558 0.8810 0.8800 0.8800 0.8780 0.8770
1276.760961 0.8760 0.8740 0.8730 0.8730 0.8720
1281.025364 0.8690 0.8660 0.8660 0.8650 0.8640
1285.289766 0.8580 0.8540 0.8520 0.8500 0.8500
1289.554169 0.8490 0.8460 0.8420 0.8380 0.8360
1293.818572 0.8340 0.8320 0.8300 0.8260 0.8240
1298.082975 0.8200 0.8140 0.8120 0.8090 0.8050
1302.347377 0.8000 0.8000 0.7980 0.7960 0.7940
1306.611780 0.7930 0.7930 0.7900 0.7860 0.7840
1310.876183 0.7810 0.7800 0.7770 0.7770 0.7770
1315.140585 0.7760 0.7760 0.7760 0.7760 0.7760
1319.404988 0.7760 0.7760 0.7760 0.7760 0.7760
1323.669391 0.7760 0.7760 0.7760 0.7760 0.7740
1327.933794 0.7740 0.7740 0.7740 0.7730 0.7700
1332.198196 0.7690 0.7680 0.7650 0.7610 0.7600
1336.462599 0.7580 0.7570 0.7570 0.7560 0.7540
1340.727002 0.7490 0.7450 0.7440 0.7410 0.7400
1344.991405 0.7370 0.7330 0.7270 0.7210 0.7160
1349.255807 0.7120 0.7080 0.7040 0.6990 0.6920
1353.520210 0.6770 0.6760 0.6750 0.6720 0.6720
1357.784613 0.6710 0.6710 0.6710 0.6710 0.6720
1362.049015 0.6800 0.6840 0.6910 0.6930 0.6970
1366.313418 0.6990 0.7030 0.7120 0.7190 0.7210
1370.577821 0.7240 0.7250 0.7390 0.7410 0.7440
1374.842224 0.7470 0.7500 0.7530 0.7580 0.7600
1379.106626 0.7620 0.7640 0.7650 0.7660 0.7680
1383.371029 0.7680 0.7690 0.7690 0.7700 0.7720
1387.635432 0.7720 0.7730 0.7730 0.7740 0.7740
1391.899834 0.7760 0.7760 0.7760 0.7770 0.7800
1396.164237 0.7800 0.7810 0.7820 0.7840 0.7860
1400.428640 0.7920 0.7930 0.7960 0.7960 0.7970
1404.693043 0.7970 0.7960 0.7940 0.7940 0.7930
1408.957445 0.7930 0.7930 0.7930 0.7920 0.7920
1413.221848 0.7880 0.7850 0.7840 0.7840 0.7840
1417.486251 0.7820 0.7810 0.7780 0.7730 0.7650
1421.750654 0.7640 0.7610 0.7580 0.7570 0.7570
1426.015056 0.7560 0.7560 0.7500 0.7480 0.7470
1430.279459 0.7450 0.7410 0.7390 0.7360 0.7350
1434.543862 0.7330 0.7310 0.7290 0.7240 0.7160
1438.808264 0.7090 0.7080 0.7070 0.7050 0.6990
1443.072667 0.6930 0.6910 0.6890 0.6890 0.6840
1447.337070 0.6800 0.6770 0.6760 0.6760 0.6730
1451.601473 0.6710 0.6690 0.6690 0.6680 0.6650
1455.865875 0.6630 0.6600 0.6510 0.6490 0.6490
1460.130278 0.6510 0.6520 0.6530 0.6550 0.6550
1464.394681 0.6560 0.6560 0.6590 0.6600 0.6610
1468.659083 0.6630 0.6640 0.6640 0.6610 0.6610
1472.923486 0.6650 0.6650 0.6750 0.6790 0.6830
1477.187889 0.6840 0.6910 0.6920 0.6930 0.6930
1481.452292 0.6950 0.6990 0.7050 0.7080 0.7130
1485.716694 0.7160 0.7210 0.7250 0.7270 0.7310
1489.981097 0.7320 0.7390 0.7410 0.7520 0.7540
1494.245500 0.7570 0.7570 0.7600 0.7610 0.7620
1498.509903 0.7720 0.7730 0.7730 0.7780 0.7850
1502.774305 0.7880 0.7900 0.7900 0.7920 0.7930
1507.038708 0.7940 0.7970 0.8000 0.8010 0.8020
1511.303111 0.8050 0.8060 0.8090 0.8120 0.8120
1515.567513 0.8140 0.8160 0.8170 0.8210 0.8240
1519.831916 0.8250 0.8250 0.8260 0.8280 0.8290
1524.096319 0.8290 0.8290 0.8300 0.8300 0.8300
1528.360722 0.8320 0.8320 0.8320 0.8320 0.8320
1532.625124 0.8320 0.8320 0.8320 0.8290 0.8290
1536.889527 0.8290 0.8280 0.8260 0.8260 0.8250
1541.153930 0.8250 0.8240 0.8240 0.8220 0.8200
1545.418332 0.8180 0.8170 0.8160 0.8130 0.8100
1549.682735 0.8100 0.8090 0.8080 0.8040 0.8010
1553.947138 0.8000 0.7970 0.7960 0.7940 0.7930
1558.211541 0.7920 0.7770 0.7760 0.7730 0.7720
1562.475943 0.7700 0.7690 0.7610 0.7570 0.7520
1566.740346 0.7440 0.7430 0.7400 0.7390 0.7330
1571.004749 0.7230 0.7160 0.7110 0.7070 0.7050
1575.269152 0.7010 0.6929 0.6770 0.6670 0.6630
1579.533554 0.6610 0.6550 0.6480 0.6410 0.6330
1583.797957 0.6280 0.6170 0.6050 0.6010 0.5920
1588.062360 0.5890 0.5840 0.5790 0.5720 0.5630
1592.326762 0.5550 0.5470 0.5430 0.5400 0.5400
1596.591165 0.5390 0.5390 0.5390 0.5390 0.5400
1600.855568 0.5410 0.5430 0.5450 0.5480 0.5510
1605.119971 0.5520 0.5560 0.5630 0.5690 0.5730
1609.384373 0.5760 0.5890 0.5970 0.6050 0.6150
1613.648776 0.6200 0.6310 0.6430 0.6510 0.6600
1617.913179 0.6750 0.6770 0.6830 0.6930 0.7070
1622.177582 0.7160 0.7280 0.7360 0.7400 0.7410
1626.441984 0.7440 0.7490 0.7560 0.7600 0.7610
1630.706387 0.7690 0.7770 0.7820 0.7850 0.7860
1634.970790 0.7900 0.7940 0.7980 0.8040 0.8040
1639.235192 0.8060 0.8080 0.8100 0.8120 0.8120
1643.499595 0.8120 0.8130 0.8130 0.8140 0.8220
1647.763998 0.8260 0.8280 0.8280 0.8280 0.8290
1652.028401 0.8300 0.8300 0.8300 0.8320 0.8320
1656.292803 0.8330 0.8330 0.8330 0.8330 0.8340
1660.557206 0.8360 0.8360 0.8380 0.8380 0.8370
1664.821609 0.8370 0.8380 0.8380 0.8380 0.8370
1669.086011 0.8370 0.8400 0.8420 0.8460 0.8460
1673.350414 0.8480 0.8480 0.8500 0.8500 0.8540
1677.614817 0.8560 0.8570 0.8570 0.8580 0.8600
1681.879220 0.8620 0.8640 0.8640 0.8660 0.8700
1686.143622 0.8700 0.8700 0.8720 0.8720 0.8720
1690.408025 0.8740 0.8760 0.8770 0.8770 0.8770
1694.672428 0.8770 0.8780 0.8820 0.8820 0.8850
1698.936831 0.8860 0.8880 0.8890 0.8890 0.8900
1703.201233 0.8900 0.8920 0.8930 0.8930 0.8940
1707.465636 0.8960 0.8980 0.9000 0.9000 0.9010
1711.730039 0.9010 0.9010 0.9010 0.9010 0.8980
1715.994441 0.8980 0.9010 0.9020 0.9060 0.9080
1720.258844 0.9080 0.9100 0.9100 0.9100 0.9100
1724.523247 0.9100 0.9100 0.9100 0.9100 0.9090
1728.787650 0.9090 0.9100 0.9120 0.9120 0.9120
1733.052052 0.9120 0.9130 0.9140 0.9160 0.9160
1737.316455 0.9160 0.9160 0.9160 0.9140 0.9140
1741.580858 0.9140 0.9170 0.9170 0.9170 0.9180
1745.845260 0.9180 0.9200 0.9200 0.9200 0.9210
1750.109663 0.9220 0.9220 0.9220 0.9220 0.9220
1754.374066 0.9210 0.9210 0.9210 0.9240 0.9240
1758.638469 0.9240 0.9220 0.9220 0.9240 0.9260
1762.902871 0.9280 0.9260 0.9260 0.9260 0.9280
1767.167274 0.9260 0.9260 0.9260 0.9260 0.9260
1771.431677 0.9260 0.9260 0.9280 0.9280 0.9260
1775.696080 0.9260 0.9250 0.9250 0.9250 0.9250
1779.960482 0.9260 0.9260 0.9280 0.9280 0.9290
1784.224885 0.9280 0.9290 0.9290 0.9280 0.9290
1788.489288 0.9290 0.9290 0.9290 0.9290 0.9290
1792.753690 0.9290 0.9290 0.9300 0.9300 0.9300
1797.018093 0.9300 0.9300 0.9320 0.9320 0.9320
1801.282496 0.9330 0.9320 0.9320 0.9320 0.9320
1805.546899 0.9300 0.9290 0.9280 0.9280 0.9280
1809.811301 0.9280 0.9280 0.9300 0.9300 0.9320
1814.075704 0.9320 0.9320 0.9320 0.9320 0.9290
1818.340107 0.9290 0.9280 0.9280 0.9280 0.9260
1822.604509 0.9260 0.9280 0.9280 0.9280 0.9290
1826.868912 0.9300 0.9300 0.9300 0.9300 0.9290
1831.133315 0.9280 0.9260 0.9260 0.9260 0.9280
1835.397718 0.9280 0.9290 0.9290 0.9320 0.9320
1839.662120 0.9320 0.9320 0.9320 0.9320 0.9300
1843.926523 0.9280 0.9250 0.9220 0.9250 0.9260
1848.190926 0.9280 0.9280 0.9280 0.9280 0.9290
1852.455329 0.9290 0.9290 0.9290 0.9290 0.9290
1856.719731 0.9290 0.9290 0.9290 0.9290 0.9290
1860.984134 0.9290 0.9280 0.9280 0.9280 0.9280
1865.248537 0.9280 0.9260 0.9260 0.9260 0.9260
1869.512939 0.9260 0.9250 0.9250 0.9260 0.9260
1873.777342 0.9280 0.9280 0.9320 0.9320 0.9290
1878.041745 0.9280 0.9280 0.9280 0.9280 0.9260
1882.306148 0.9260 0.9280 0.9280 0.9280 0.9280
1886.570550 0.9280 0.9290 0.9290 0.9280 0.9280
1890.834953 0.9260 0.9250 0.9240 0.9240 0.9250
1895.099356 0.9250 0.9280 0.9300 0.9320 0.9320
1899.363758 0.9320 0.9290 0.9250 0.9240 0.9220
1903.628161 0.9220 0.9220 0.9220 0.9220 0.9220
1907.892564 0.9220 0.9220 0.9220 0.9240 0.9240
1912.156967 0.9260 0.9260 0.9260 0.9260 0.9260
1916.421369 0.9260 0.9260 0.9250 0.9240 0.9240
1920.685772 0.9240 0.9240 0.9250 0.9250 0.9250
1924.950175 0.9260 0.9260 0.9260 0.9260 0.9260
1929.214578 0.9260 0.9260 0.9250 0.9240 0.9240
1933.478980 0.9240 0.9220 0.9220 0.9220 0.9220
1937.743383 0.9220 0.9240 0.9240 0.9250 0.9250
1942.007786 0.9250 0.9250 0.9250 0.9260 0.9260
1946.272188 0.9260 0.9260 0.9260 0.9260 0.9260
1950.536591 0.9280 0.9280 0.9260 0.9260 0.9250
1954.800994 0.9250 0.9250 0.9240 0.9240 0.9250
1959.065397 0.9480 0.9570 0.9560 0.9420 0.9300
1963.329799 0.9280 0.9260 0.9260 0.9260 0.9260
1967.594202 0.9260 0.9260 0.9250 0.9250 0.9250
1971.858605 0.9240 0.9240 0.9240 0.9240 0.9250
1976.123008 0.9260 0.9280 0.9280 0.9280 0.9260
1980.387410 0.9260 0.9250 0.9260 0.9260 0.9260
1984.651813 0.9260 0.9260 0.9260 0.9260 0.9260
1988.916216 0.9260 0.9260 0.9260 0.9280 0.9280
1993.180618 0.9280 0.9280 0.9260 0.9260 0.9260
1997.445021 0.9250 0.9240 0.9120 0.9120 0.9170
2001.709424 0.9220 0.9230 0.9240 0.9240 0.9240
2005.973827 0.9240 0.9240 0.9240 0.9240 0.9230
2010.238229 0.9220 0.9215 0.9210 0.9205 0.9200
2014.502632 0.9190 0.9180 0.9180 0.9180 0.9175
2018.767035 0.9170 0.9170 0.9170 0.9190 0.9210
2023.031437 0.9210 0.9210 0.9215 0.9220 0.9220
2027.295840 0.9220 0.9220 0.9220 0.9220 0.9220
2031.560243 0.9220 0.9220 0.9215 0.9210 0.9205
2035.824646 0.9200 0.9200 0.9200 0.9200 0.9200
2040.089048 0.9205 0.9210 0.9210 0.9210 0.9210
2044.353451 0.9210 0.9215 0.9220 0.9220 0.9220
2048.617854 0.9220 0.9220 0.9220 0.9220 0.9215
2052.882257 0.9210 0.9210 0.9210 0.9205 0.9200
2057.146659 0.9190 0.9180 0.9175 0.9170 0.9170
2061.411062 0.9170 0.9185 0.9200 0.9200 0.9200
2065.675465 0.9200 0.9200 0.9205 0.9210 0.9205
2069.939867 0.9200 0.9190 0.9180 0.9175 0.9170
2074.204270 0.9170 0.9170 0.9165 0.9160 0.9160
2078.468673 0.9160 0.9150 0.9140 0.9140 0.9140
2082.733076 0.9140 0.9140 0.9140 0.9140 0.9150
2086.997478 0.9160 0.9160 0.9160 0.9160 0.9160
2091.261881 0.9160 0.9160 0.9160 0.9160 0.9160
2095.526284 0.9160 0.9165 0.9170 0.9170 0.9170
2099.790686 0.9175 0.9180 0.9180 0.9180 0.9180
2104.055089 0.9180 0.9180 0.9180 0.9180 0.9180
2108.319492 0.9175 0.9170 0.9170 0.9170 0.9175
2112.583895 0.9180 0.9180 0.9180 0.9180 0.9180
2116.848297 0.9180 0.9180 0.9180 0.9180 0.9180
2121.112700 0.9180 0.9190 0.9200 0.9200 0.9200
2125.377103 0.9200 0.9200 0.9190 0.9180 0.9180
2129.641506 0.9180 0.9175 0.9170 0.9156 0.9141
2133.905908 0.9140 0.9140 0.9140 0.9140 0.9140
2138.170311 0.9140 0.9140 0.9140 0.9135 0.9130
2142.434714 0.9130 0.9130 0.9135 0.9140 0.9150
2146.699116 0.9160 0.9165 0.9170 0.9170 0.9170
2150.963519 0.9175 0.9180 0.9180 0.9180 0.9180
2155.227922 0.9180 0.9175 0.9170 0.9170 0.9170
2159.492325 0.9170 0.9170 0.9165 0.9160 0.9150
2163.756727 0.9141 0.9140 0.9140 0.9135 0.9130
2168.021130 0.9130 0.9130 0.9130 0.9130 0.9135
2172.285533 0.9140 0.9150 0.9160 0.9160 0.9160
2176.549935 0.9160 0.9160 0.9165 0.9170 0.9170
2180.814338 0.9170 0.9170 0.9170 0.9170 0.9170
2185.078741 0.9170 0.9170 0.9170 0.9170 0.9170
2189.343144 0.9170 0.9165 0.9160 0.9151 0.9141
2193.607546 0.9135 0.9130 0.9130 0.9130 0.9130
2197.871949 0.9130 0.9125 0.9120 0.9120 0.9120
2202.136352 0.9120 0.9120 0.9120 0.9120 0.9111
2206.400755 0.9101 0.9100 0.9100 0.9100 0.9100
2210.665157 0.9100 0.9100 0.9100 0.9100 0.9095
2214.929560 0.9090 0.9090 0.9090 0.9090 0.9090
2219.193963 0.9090 0.9090 0.9090 0.9090 0.9090
2223.458365 0.9090 0.9090 0.9090 0.9090 0.9090
2227.722768 0.9090 0.9090 0.9095 0.9100 0.9095
2231.987171 0.9090 0.9090 0.9090 0.9090 0.9090
2236.251574 0.9085 0.9080 0.9080 0.9080 0.9080
2240.515976 0.9080 0.9080 0.9080 0.9080 0.9080
2244.780379 0.9080 0.9080 0.9080 0.9080 0.9085
2249.044782 0.9090 0.9090 0.9090 0.9085 0.9080
2253.309185 0.9080 0.9080 0.9080 0.9080 0.9080
2257.573587 0.9080 0.9071 0.9061 0.9060 0.9060
2261.837990 0.9055 0.9050 0.9050 0.9050 0.9050
2266.102393 0.9050 0.9050 0.9050 0.9045 0.9040
2270.366795 0.9040 0.9040 0.9040 0.9040 0.9040
2274.631198 0.9040 0.9040 0.9040 0.9040 0.9040
2278.895601 0.9040 0.9040 0.9040 0.9040 0.9031
2283.160004 0.9021 0.9020 0.9020 0.9020 0.9020
2287.424406 0.9020 0.9020 0.9020 0.9020 0.9020
2291.688809 0.9020 0.9015 0.9010 0.9010 0.9010
2295.953212 0.9005 0.9000 0.8991 0.8981 0.8975
2300.217614 0.8970 0.8970 0.8970 0.8965 0.8960
2304.482017 0.8951 0.8941 0.8940 0.8940 0.8940
2308.746420 0.8940 0.8940 0.8940 0.8935 0.8930
2313.010823 0.8930 0.8930 0.8930 0.8930 0.8930
2317.275225 0.8930 0.8925 0.8920 0.8920 0.8920
2321.539628 0.8920 0.8920 0.8920 0.8920 0.8902
2325.804031 0.8882 0.8880 0.8880 0.8871 0.8861
2330.068434 0.8860 0.8860 0.8855 0.8850 0.8850
2334.332836 0.8850 0.8850 0.8850 0.8846 0.8841
2338.597239 0.8831 0.8821 0.8811 0.8801 0.8791
2342.861642 0.8781 0.8775 0.8770 0.8770 0.8770
2347.126044 0.8770 0.8770 0.8770 0.8770 0.8766
2351.390447 0.8761 0.8760 0.8760 0.8760 0.8760
2355.654850 0.8760 0.8760 0.8751 0.8741 0.8740
2359.919253 0.8740 0.8731 0.8721 0.8720 0.8720
2364.183655 0.8711 0.8701 0.8700 0.8700 0.8700
2368.448058 0.8700 0.8700 0.8700 0.8700 0.8700
2372.712461 0.8696 0.8691 0.8690 0.8690 0.8690
2376.976863 0.8690 0.8690 0.8690 0.8686 0.8681
2381.241266 0.8671 0.8661 0.8651 0.8641 0.8640
2385.505669 0.8640 0.8640 0.8640 0.8631 0.8621
2389.770072 0.8620 0.8620 0.8616 0.8611 0.8606
2394.034474 0.8601 0.8600 0.8600 0.8591 0.8581
2398.298877 0.8580 0.8580 0.8580 0.8580 0.8571
2402.563280 0.8561 0.8551 0.8541 0.8522 0.8502
2406.827683 0.8500 0.8500 0.8496 0.8491 0.8468
2411.092085 0.8443 0.8431 0.8421 0.8416 0.8411
2415.356488 0.8406 0.8401 0.8400 0.8400 0.8400
2419.620891 0.8400 0.8387 0.8372 0.8370 0.8370
2423.885293 0.8370 0.8370 0.8366 0.8361 0.8351
2428.149696 0.8341 0.8331 0.8321 0.8302 0.8282
2432.414099 0.8271 0.8261 0.8256 0.8251 0.8237
2436.678502 0.8222 0.8216 0.8211 0.8206 0.8201
2440.942904 0.8191 0.8181 0.8176 0.8171 0.8166
2445.207307 0.8161 0.8151 0.8141 0.8136 0.8131
2449.471710 0.8117 0.8102 0.8083 0.8063 0.8060
2453.736112 0.8060 0.8056 0.8051 0.8046 0.8041
2458.000515 0.8040 0.8040 0.8031 0.8021 0.8011
2462.264918 0.8001 0.7991 0.7981 0.7971 0.7961
2466.529321 0.7951 0.7941 0.7931 0.7921 0.7911
2470.793723 0.7901 0.7891 0.7881 0.7871 0.7861
2475.058126 0.7860 0.7860 0.7856 0.7851 0.7837
2479.322529 0.7822 0.7803 0.7783 0.7771 0.7761
2483.586932 0.7751 0.7741 0.7736 0.7731 0.7730
2487.851334 0.7730 0.7726 0.7721 0.7703 0.7683
2492.115737 0.7671 0.7661 0.7656 0.7651 0.7646
2496.380140 0.7641 0.7631 0.7621 0.7620 0.7620
2500.644542 0.7603 0.7583 0.7571 0.7561 0.7547
2504.908945 0.7532 0.7517 0.7502 0.7496 0.7491
2509.173348 0.7486 0.7481 0.7476 0.7471 0.7461
2513.437751 0.7451 0.7446 0.7441 0.7436 0.7431
2517.702153 0.7430 0.7430 0.7421 0.7411 0.7393
2521.966556 0.7373 0.7362 0.7352 0.7342 0.7332
2526.230959 0.7326 0.7321 0.7320 0.7320 0.7299
2530.495362 0.7274 0.7261 0.7251 0.7241 0.7231
2534.759764 0.7217 0.7202 0.7187 0.7172 0.7162
2539.024167 0.7152 0.7137 0.7122 0.7116 0.7111
2543.288570 0.7102 0.7092 0.7090 0.7090 0.7090
2547.552972 0.7090 0.7086 0.7081 0.7080 0.7080
2551.817375 0.7076 0.7071 0.7070 0.7070 0.7045
2556.081778 0.7015 0.7006 0.7001 0.7000 0.7000
2560.346181 0.6987 0.6973 0.6962 0.6952 0.6942
2564.610583 0.6932 0.6930 0.6930 0.6926 0.6921
2568.874986 0.6907 0.6892 0.6882 0.6872 0.6862
2573.139389 0.6852 0.6850 0.6850 0.6846 0.6841
2577.403791 0.6840 0.6840 0.6827 0.6812 0.6789
2581.668194 0.6764 0.6747 0.6732 0.6722 0.6712
2585.932597 0.6697 0.6682 0.6680 0.6680 0.6676
2590.197000 0.6671 0.6658 0.6643 0.6623 0.6603
2594.461402 0.6584 0.6564 0.6556 0.6551 0.6550
2598.725805 0.6550 0.6542 0.6532 0.6513 0.6493
2602.990208 0.6482 0.6472 0.6458 0.6443 0.6428
2607.254611 0.6413 0.6410 0.6410 0.6402 0.6392
2611.519013 0.6378 0.6363 0.6348 0.6332 0.6326
2615.783416 0.6321 0.6308 0.6293 0.6273 0.6253
2620.047819 0.6229 0.6204 0.6188 0.6173 0.6162
2624.312221 0.6152 0.6150 0.6150 0.6142 0.6132
2628.576624 0.6122 0.6112 0.6094 0.6073 0.6058
2632.841027 0.6043 0.6036 0.6031 0.6030 0.6030
2637.105430 0.6022 0.6012 0.6006 0.6001 0.5996
2641.369832 0.5991 0.5978 0.5963 0.5948 0.5933
2645.634235 0.5926 0.5921 0.5916 0.5911 0.5902
2649.898638 0.5892 0.5890 0.5890 0.5886 0.5881
2654.163040 0.5864 0.5844 0.5828 0.5813 0.5802
2658.427443 0.5792 0.5790 0.5790 0.5778 0.5763
2662.691846 0.5760 0.5760 0.5760 0.5760 0.5756
2666.956249 0.5751 0.5742 0.5732 0.5726 0.5721
2671.220651 0.5704 0.5684 0.5676 0.5671 0.5662
2675.485054 0.5652 0.5646 0.5641 0.5640 0.5640
2679.749457 0.5624 0.5604 0.5588 0.5573 0.5566
2684.013860 0.5561 0.5556 0.5551 0.5538 0.5523
2688.278262 0.5516 0.5511 0.5498 0.5483 0.5468
2692.542665 0.5453 0.5430 0.5405 0.5388 0.5373
2696.807068 0.5370 0.5370 0.5350 0.5325 0.5304
2701.071470 0.5284 0.5264 0.5244 0.5224 0.5204
2705.335873 0.5188 0.5173 0.5166 0.5161 0.5148
2709.600276 0.5133 0.5126 0.5121 0.5108 0.5093
2713.864679 0.5082 0.5072 0.5062 0.5052 0.5046
2718.129081 0.5041 0.5036 0.5031 0.5022 0.5012
2722.393484 0.5010 0.5010 0.5002 0.4992 0.4978
2726.657887 0.4963 0.4956 0.4951 0.4946 0.4941
2730.922289 0.4928 0.4913 0.4894 0.4874 0.4866
2735.186692 0.4861 0.4860 0.4860 0.4848 0.4833
2739.451095 0.4818 0.4803 0.4796 0.4791 0.4778
2743.715498 0.4763 0.4756 0.4751 0.4746 0.4741
2747.979900 0.4728 0.4713 0.4698 0.4683 0.4672
2752.244303 0.4662 0.4644 0.4624 0.4612 0.4602
2756.508706 0.4596 0.4591 0.4590 0.4590 0.4570
2760.773109 0.4545 0.4528 0.4513 0.4498 0.4483
2765.037511 0.4476 0.4471 0.4470 0.4470 0.4458
2769.301914 0.4443 0.4436 0.4431 0.4426 0.4421
2773.566317 0.4408 0.4393 0.4378 0.4363 0.4356
2777.830719 0.4351 0.4338 0.4323 0.4301 0.4276
2782.095122 0.4266 0.4261 0.4260 0.4260 0.4252
2786.359525 0.4242 0.4236 0.4231 0.4214 0.4194
2790.623928 0.4170 0.4146 0.4132 0.4122 0.4112
2794.888330 0.4102 0.4092 0.4082 0.4076 0.4071
2799.152733 0.4051 0.4026 0.3993 0.3958 0.3915
2803.417136 0.3870 0.3844 0.3824 0.3797 0.3767
2807.681538 0.3756 0.3751 0.3731 0.3706 0.3673
2811.945941 0.3638 0.3611 0.3586 0.3557 0.3527
2816.210344 0.3505 0.3485 0.3465 0.3444 0.3417
2820.474747 0.3387 0.3349 0.3309 0.3261 0.3211
2824.739149 0.3185 0.3165 0.3137 0.3107 0.3092
2829.003552 0.3082 0.3030 0.2965 0.2923 0.2888
2833.267955 0.2857 0.2827 0.2782 0.2731 0.2689
2837.532358 0.2649 0.2617 0.2587 0.2565 0.2545
2841.796760 0.2498 0.2443 0.2399 0.2359 0.2327
2846.061163 0.2297 0.2279 0.2264 0.2256 0.2251
2850.325566 0.2208 0.2154 0.2110 0.2069 0.2041
2854.589968 0.2016 0.2002 0.1992 0.1990 0.1990
2858.854371 0.1990 0.1990 0.1998 0.2008 0.2014
2863.118774 0.2019 0.2024 0.2029 0.2045 0.2065
2867.383177 0.2070 0.2070 0.2081 0.2096 0.2111
2871.647579 0.2126 0.2160 0.2200 0.2240 0.2280
2875.911982 0.2298 0.2308 0.2333 0.2363 0.2393
2880.176385 0.2423 0.2471 0.2526 0.2562 0.2592
2884.440788 0.2615 0.2635 0.2651 0.2666 0.2674
2888.705190 0.2679 0.2680 0.2680 0.2680 0.2680
2892.969593 0.2680 0.2680 0.2680 0.2680 0.2676
2897.233996 0.2671 0.2659 0.2644 0.2625 0.2605
2901.498398 0.2567 0.2522 0.2480 0.2440 0.2426
2905.762801 0.2421 0.2394 0.2359 0.2346 0.2341
2910.027204 0.2336 0.2331 0.2300 0.2260 0.2224
2914.291607 0.2189 0.2161 0.2137 0.2115 0.2095
2918.556009 0.2075 0.2055 0.2043 0.2033 0.2026
2922.820412 0.2021 0.2016 0.2011 0.2010 0.2010
2927.084815 0.2010 0.2010 0.2010 0.2010 0.2010
2931.349217 0.2010 0.2010 0.2010 0.2010 0.2010
2935.613620 0.2014 0.2019 0.2031 0.2046 0.2072
2939.878023 0.2102 0.2136 0.2171 0.2210 0.2250
2944.142426 0.2286 0.2321 0.2345 0.2365 0.2403
2948.406828 0.2448 0.2508 0.2572 0.2652 0.2737
2952.671231 0.2829 0.2924 0.3019 0.3115 0.3207
2956.935634 0.3297 0.3375 0.3450 0.3511 0.3565
2961.200037 0.3639 0.3719 0.3791 0.3861 0.3938
2965.464439 0.4018 0.4091 0.4161 0.4227 0.4292
2969.728842 0.4353 0.4413 0.4470 0.4525 0.4573
2973.993245 0.4618 0.4648 0.4673 0.4706 0.4741
2978.257647 0.4768 0.4793 0.4811 0.4826 0.4841
2982.522050 0.4856 0.4867 0.4877 0.4880 0.4880
2986.786453 0.4887 0.4897 0.4900 0.4900 0.4900
2991.050856 0.4900 0.4900 0.4900 0.4893 0.4883
2995.315258 0.4880 0.4880 0.4873 0.4863 0.4860
2999.579661 0.4860 0.4849 0.4834 0.4826 0.4821
3003.844064 0.4820 0.4820 0.4813 0.4803 0.4796
3008.108466 0.4791 0.4790 0.4790 0.4786 0.4781
3012.372869 0.4769 0.4754 0.4732 0.4707 0.4693
3016.637272 0.4683 0.4673 0.4663 0.4649 0.4634
3020.901675 0.4616 0.4596 0.4579 0.4564 0.4556
3025.166077 0.4551 0.4550 0.4550 0.4539 0.4524
3029.430480 0.4488 0.4443 0.4405 0.4370 0.4353
3033.694883 0.4343 0.4333 0.4323 0.4316 0.4311
3037.959286 0.4299 0.4284 0.4273 0.4263 0.4231
3042.223688 0.4191 0.4169 0.4154 0.4139 0.4124
3046.488091 0.4116 0.4111 0.4110 0.4110 0.4092
3050.752494 0.4067 0.4039 0.4009 0.3986 0.3966
3055.016896 0.3953 0.3943 0.3929 0.3914 0.3906
3059.281299 0.3901 0.3889 0.3874 0.3859 0.3844
3063.545702 0.3836 0.3831 0.3819 0.3804 0.3800
3067.810105 0.3800 0.3786 0.3766 0.3739 0.3709
3072.074507 0.3690 0.3675 0.3660 0.3644 0.3640
3076.338910 0.3640 0.3636 0.3631 0.3626 0.3621
3080.603313 0.3620 0.3620 0.3599 0.3569 0.3557
3084.867715 0.3552 0.3550 0.3550 0.3540 0.3525
3089.132118 0.3513 0.3503 0.3490 0.3474 0.3459
3093.396521 0.3444 0.3433 0.3423 0.3413 0.3403
3097.660924 0.3393 0.3383 0.3380 0.3380 0.3373
3101.925326 0.3363 0.3353 0.3343 0.3330 0.3315
3106.189729 0.3296 0.3276 0.3260 0.3245 0.3233
3110.454132 0.3223 0.3213 0.3203 0.3197 0.3192
3114.718535 0.3190 0.3190 0.3187 0.3182 0.3173
3118.982937 0.3163 0.3157 0.3152 0.3140 0.3125
3123.247340 0.3117 0.3112 0.3107 0.3102 0.3093
3127.511743 0.3083 0.3073 0.3063 0.3053 0.3043
3131.776145 0.3033 0.3023 0.3013 0.3003 0.2993
3136.040548 0.2983 0.2973 0.2963 0.2960 0.2960
3140.304951 0.2957 0.2952 0.2940 0.2925 0.2917
3144.569354 0.2912 0.2907 0.2902 0.2900 0.2900
3148.833756 0.2893 0.2883 0.2877 0.2872 0.2860
3153.098159 0.2845 0.2837 0.2832 0.2820 0.2805
3157.362562 0.2797 0.2792 0.2780 0.2765 0.2757
3161.626965 0.2752 0.2740 0.2725 0.2717 0.2712
3165.891367 0.2707 0.2702 0.2693 0.2683 0.2677
3170.155770 0.2672 0.2667 0.2662 0.2660 0.2660
3174.420173 0.2660 0.2660 0.2660 0.2660 0.2660
3178.684575 0.2660 0.2660 0.2660 0.2663 0.2668
3182.948978 0.2670 0.2670 0.2673 0.2678 0.2680
3187.213381 0.2680 0.2680 0.2680 0.2687 0.2697
3191.477784 0.2703 0.2708 0.2710 0.2710 0.2713
3195.742186 0.2718 0.2720 0.2720 0.2727 0.2737
3200.006589 0.2740 0.2740 0.2743 0.2748 0.2750
3204.270992 0.2750 0.2750 0.2750 0.2750 0.2750
3208.535394 0.2750 0.2750 0.2750 0.2750 0.2750
3212.799797 0.2750 0.2750 0.2750 0.2750 0.2750
3217.064200 0.2750 0.2750 0.2750 0.2750 0.2750
3221.328603 0.2750 0.2750 0.2750 0.2747 0.2742
3225.593005 0.2740 0.2740 0.2733 0.2723 0.2717
3229.857408 0.2712 0.2707 0.2702 0.2680 0.2650
3234.121811 0.2640 0.2640 0.2637 0.2632 0.2627
3238.386214 0.2622 0.2613 0.2604 0.2597 0.2592
3242.650616 0.2587 0.2582 0.2573 0.2563 0.2553
3246.915019 0.2543 0.2533 0.2523 0.2517 0.2512
3251.179422 0.2510 0.2510 0.2507 0.2502 0.2490
3255.443824 0.2475 0.2464 0.2454 0.2440 0.2425
3259.708227 0.2410 0.2395 0.2384 0.2373 0.2363
3263.972630 0.2353 0.2343 0.2333 0.2323 0.2313
3268.237033 0.2304 0.2294 0.2277 0.2257 0.2240
3272.501435 0.2225 0.2220 0.2220 0.2217 0.2212
3276.765838 0.2204 0.2194 0.2184 0.2174 0.2163
3281.030241 0.2153 0.2150 0.2150 0.2147 0.2142
3285.294643 0.2140 0.2140 0.2137 0.2132 0.2130
3289.559046 0.2130 0.2130 0.2130 0.2133 0.2138
3293.823449 0.2143 0.2148 0.2156 0.2166 0.2173
3298.087852 0.2178 0.2193 0.2213 0.2230 0.2245
3302.352254 0.2253 0.2258 0.2276 0.2301 0.2320
3306.616657 0.2335 0.2349 0.2364 0.2370 0.2370
3310.881060 0.2376 0.2386 0.2390 0.2390 0.2390
3315.145463 0.2390 0.2390 0.2390 0.2390 0.2390
3319.409865 0.2390 0.2390 0.2387 0.2382 0.2380
3323.674268 0.2380 0.2371 0.2356 0.2344 0.2334
3327.938671 0.2318 0.2298 0.2281 0.2265 0.2257
3332.203073 0.2252 0.2237 0.2217 0.2191 0.2161
3336.467476 0.2144 0.2134 0.2124 0.2114 0.2097
3340.731879 0.2078 0.2064 0.2054 0.2041 0.2026
3344.996282 0.2008 0.1988 0.1977 0.1972 0.1961
3349.260684 0.1946 0.1940 0.1940 0.1937 0.1932
3353.525087 0.1933 0.1938 0.1943 0.1948 0.1956
3357.789490 0.1966 0.1976 0.1986 0.1999 0.2014
3362.053892 0.2029 0.2044 0.2069 0.2099 0.2119
3366.318295 0.2134 0.2168 0.2213 0.2242 0.2262
3370.582698 0.2292 0.2327 0.2362 0.2397 0.2450
3374.847101 0.2515 0.2555 0.2580 0.2627 0.2687
3379.111503 0.2759 0.2839 0.2904 0.2959 0.3008
3383.375906 0.3053 0.3086 0.3111 0.3139 0.3169
3387.640309 0.3183 0.3188 0.3236 0.3311 0.3364
3391.904712 0.3404 0.3438 0.3468 0.3492 0.3512
3396.169114 0.3541 0.3576 0.3611 0.3647 0.3688
3400.433517 0.3733 0.3765 0.3790 0.3806 0.3816
3404.697920 0.3832 0.3852 0.3866 0.3876 0.3889
3408.962322 0.3904 0.3934 0.3974 0.4005 0.4030
3413.226725 0.4052 0.4072 0.4089 0.4104 0.4113
3417.491128 0.4118 0.4151 0.4201 0.4235 0.4260
3421.755531 0.4291 0.4326 0.4364 0.4404 0.4423
3426.019933 0.4428 0.4430 0.4430 0.4463 0.4518
3430.284336 0.4555 0.4580 0.4611 0.4646 0.4666
3434.548739 0.4676 0.4689 0.4704 0.4719 0.4734
3438.813142 0.4758 0.4788 0.4830 0.4880 0.4918
3443.077544 0.4948 0.4975 0.5000 0.5019 0.5034
3447.341947 0.5052 0.5072 0.5095 0.5120 0.5151
3451.606350 0.5186 0.5224 0.5264 0.5292 0.5312
3455.870752 0.5323 0.5328 0.5339 0.5354 0.5387
3460.135155 0.5432 0.5471 0.5506 0.5541 0.5576
3464.399558 0.5602 0.5622 0.5645 0.5670 0.5695
3468.663961 0.5720 0.5742 0.5762 0.5800 0.5850
3472.928363 0.5888 0.5918 0.5951 0.5986 0.6024
3477.192766 0.6063 0.6100 0.6135 0.6173 0.6213
3481.457169 0.6253 0.6293 0.6328 0.6358 0.6391
3485.721571 0.6426 0.6452 0.6472 0.6489 0.6504
3489.985974 0.6551 0.6621 0.6673 0.6713 0.6748
3494.250377 0.6777 0.6796 0.6806 0.6822 0.6842
3498.514780 0.6870 0.6905 0.6934 0.6960 0.6979
3502.779182 0.6994 0.7012 0.7032 0.7055 0.7080
3507.043585 0.7107 0.7137 0.7153 0.7158 0.7186
3511.307988 0.7231 0.7270 0.7305 0.7346 0.7391
3515.572391 0.7419 0.7434 0.7443 0.7448 0.7471
3519.836793 0.7505 0.7538 0.7567 0.7592 0.7612
3524.101196 0.7640 0.7675 0.7704 0.7729 0.7757
3528.365599 0.7787 0.7811 0.7831 0.7851 0.7871
3532.630001 0.7891 0.7911 0.7926 0.7936 0.7946
3536.894404 0.7956 0.7963 0.7968 0.8005 0.8065
3541.158807 0.8104 0.8129 0.8151 0.8171 0.8197
3545.423210 0.8227 0.8246 0.8256 0.8268 0.8283
3549.687612 0.8293 0.8298 0.8320 0.8355 0.8393
3553.952015 0.8433 0.8461 0.8481 0.8493 0.8498
3558.216418 0.8523 0.8563 0.8597 0.8627 0.8646
3562.480820 0.8656 0.8677 0.8707 0.8723 0.8728
3566.745223 0.8733 0.8738 0.8757 0.8787 0.8811
3571.009626 0.8831 0.8857 0.8887 0.8909 0.8924
3575.274029 0.8933 0.8938 0.8946 0.8956 0.8971
3579.538431 0.8991 0.9011 0.9031 0.9046 0.9056
3583.802834 0.9068 0.9083 0.9093 0.9098 0.9109
3588.067237 0.9123 0.9141 0.9161 0.9181 0.9201
3592.331640 0.9221 0.9241 0.9261 0.9281 0.9293
3596.596042 0.9298 0.9306 0.9316 0.9323 0.9328
3600.860445 0.9330 0.9330 0.9333 0.9338 0.9340
3605.124848 0.9340 0.9346 0.9356 0.9374 0.9399
3609.389250 0.9429 0.9464 0.9491 0.9511 0.9526
3613.653653 0.9535 0.9545 0.9555 0.9563 0.9568
3617.918056 0.9570 0.9570 0.9570 0.9570 0.9573
3622.182459 0.9578 0.9580 0.9580 0.9588 0.9603
3626.446861 0.9610 0.9610 0.9618 0.9633 0.9651
3630.711264 0.9671 0.9685 0.9695 0.9705 0.9715
3634.975667 0.9720 0.9720 0.9723 0.9728 0.9733
3639.240069 0.9738 0.9746 0.9755 0.9763 0.9768
3643.504472 0.9770 0.9770 0.9770 0.9770 0.9773
3647.768875 0.9778 0.9780 0.9780 0.9780 0.9780
3652.033278 0.9785 0.9795 0.9800 0.9800 0.9803
3656.297680 0.9808 0.9810 0.9810 0.9818 0.9833
3660.562083 0.9840 0.9840 0.9840 0.9840 0.9843
3664.826486 0.9848 0.9853 0.9858 0.9860 0.9860
3669.090889 0.9865 0.9875 0.9880 0.9880 0.9883
3673.355291 0.9888 0.9890 0.9890 0.9890 0.9890
3677.619694 0.9893 0.9898 0.9900 0.9900 0.9900
3681.884097 0.9900 0.9900 0.9900 0.9905 0.9915
3686.148499 0.9923 0.9928 0.9933 0.9938 0.9940
3690.412902 0.9940 0.9940 0.9940 0.9945 0.9955
3694.677305 0.9960 0.9960 0.9960 0.9960 0.9960
3698.941708 0.9960 0.9960 0.9960 0.9960 0.9960
3703.206110 0.9960 0.9960 0.9960 0.9960 0.9960
3707.470513 0.9960 0.9960 0.9960 0.9960 0.9960
3711.734916 0.9963 0.9968 0.9973 0.9978 0.9980
3715.999318 0.9980 0.9980 0.9980 0.9985 0.9995
3720.263721 1.0000 1.0000 1.0000 1.0000 1.0000
3724.528124 1.0000 1.0003 1.0008 1.0010 1.0010
3728.792527 1.0010 1.0010 1.0013 1.0018 1.0020
3733.056929 1.0020 1.0020 1.0020 1.0020 1.0020
3737.321332 1.0023 1.0028 1.0030 1.0030 1.0027
3741.585735 1.0022 1.0020 1.0020 1.0020 1.0020
3745.850138 1.0017 1.0012 1.0010 1.0010 1.0007
3750.114540 1.0002 1.0000 1.0000 1.0000 1.0000
3754.378943 1.0000 1.0000 1.0000 1.0000 1.0000
3758.643346 1.0000 1.0000 1.0000 1.0003 1.0008
3762.907748 1.0010 1.0010 1.0010 1.0010 1.0013
3767.172151 1.0017 1.0020 1.0020 1.0020 1.0020
3771.436554 1.0023 1.0028 1.0030 1.0030 1.0030
3775.700957 1.0030 1.0030 1.0030 1.0030 1.0030
3779.965359 1.0030 1.0030 1.0030 1.0030 1.0030
3784.229762 1.0030 1.0030 1.0030 1.0028 1.0023
3788.494165 1.0020 1.0020 1.0020 1.0020 1.0017
3792.758568 1.0012 1.0010 1.0010
##END=
