##TITLE=Methoxyacetonitrile
##JCAMP-DX=4.24
$$ By DXEDIT 1.05 (RS McDonald)
##DATA TYPE=INFRARED SPECTRUM
##CLASS=COBLENTZ III
##ORIGIN=STANDARD OIL OF OHIO
##OWNER=COPYRIGHT (C) 1988 by COBLENTZ SOCIETY INC.
Collection (C) 2018 copyright by the U.S. Secretary of Commerce
on behalf of the United States of America. All rights reserved.
##DATE=1968/08/12
##CAS REGISTRY NO=1738-36-9
##MOLFORM=C3 H5 N O
##SOURCE REFERENCE=COBLENTZ NO. 08405
##$NIST SOURCE=COBLENTZ
##$NIST IMAGE=cob8405
##SPECTROMETER/DATA SYSTEM=PERKIN-ELMER 521 (GRATING)
##INSTRUMENT PARAMETERS=FILTERS AT 3150, 2500, 2000, 1150, 700, 410. GRATING CHANGES: 2000, 630 CM^-^1
##STATE=LIQUID (NEAT)
##PATH LENGTH=CAPILLARY (BETWEEN KBr PLATES)
$$INACTIVE KBr PLATES AROUND 200-400 CM^-^1
##SAMPLING PROCEDURE=TRANSMISSION
##RESOLUTION=2
##DATA PROCESSING=DIGITIZED BY COBLENTZ SOCIETY (BATCH I) FROM HARD COPY
##XUNITS=1/CM
##YUNITS=TRANSMITTANCE
##XFACTOR=1
##YFACTOR=1
##DELTAX=1
##FIRSTX=3896
##LASTX=241
##FIRSTY=0.8344
##MAXX=3896
##MINX=241
##MAXY=0.8589
##MINY=0.0616
##NPOINTS=3656
##XYDATA=(X++(Y..Y))
3896.000000 0.8344 0.8344 0.8345 0.8345 0.8346
3891.000000 0.8347 0.8348 0.8349 0.8350 0.8351
3886.000000 0.8352 0.8353 0.8354 0.8355 0.8356
3881.000000 0.8357 0.8358 0.8359 0.8360 0.8361
3876.000000 0.8362 0.8363 0.8364 0.8365 0.8366
3871.000000 0.8366 0.8366 0.8366 0.8366 0.8366
3866.000000 0.8367 0.8367 0.8367 0.8367 0.8367
3861.000000 0.8367 0.8367 0.8367 0.8368 0.8368
3856.000000 0.8368 0.8368 0.8368 0.8368 0.8368
3851.000000 0.8368 0.8368 0.8368 0.8368 0.8368
3846.000000 0.8368 0.8368 0.8368 0.8368 0.8368
3841.000000 0.8368 0.8368 0.8368 0.8370 0.8370
3836.000000 0.8370 0.8370 0.8370 0.8370 0.8370
3831.000000 0.8370 0.8370 0.8370 0.8371 0.8371
3826.000000 0.8371 0.8371 0.8371 0.8371 0.8371
3821.000000 0.8371 0.8371 0.8371 0.8371 0.8371
3816.000000 0.8371 0.8371 0.8371 0.8371 0.8371
3811.000000 0.8371 0.8371 0.8371 0.8373 0.8373
3806.000000 0.8373 0.8373 0.8373 0.8373 0.8373
3801.000000 0.8373 0.8373 0.8373 0.8373 0.8373
3796.000000 0.8373 0.8373 0.8373 0.8373 0.8374
3791.000000 0.8374 0.8374 0.8374 0.8374 0.8374
3786.000000 0.8374 0.8374 0.8374 0.8374 0.8374
3781.000000 0.8374 0.8374 0.8374 0.8374 0.8374
3776.000000 0.8374 0.8374 0.8374 0.8374 0.8374
3771.000000 0.8374 0.8374 0.8374 0.8374 0.8374
3766.000000 0.8374 0.8374 0.8374 0.8374 0.8374
3761.000000 0.8374 0.8374 0.8374 0.8374 0.8374
3756.000000 0.8374 0.8374 0.8374 0.8373 0.8373
3751.000000 0.8373 0.8373 0.8373 0.8373 0.8371
3746.000000 0.8371 0.8371 0.8371 0.8371 0.8371
3741.000000 0.8371 0.8371 0.8371 0.8371 0.8371
3736.000000 0.8371 0.8371 0.8371 0.8370 0.8370
3731.000000 0.8370 0.8370 0.8370 0.8370 0.8368
3726.000000 0.8368 0.8368 0.8368 0.8368 0.8368
3721.000000 0.8368 0.8368 0.8368 0.8368 0.8368
3716.000000 0.8368 0.8368 0.8368 0.8367 0.8367
3711.000000 0.8367 0.8367 0.8367 0.8367 0.8366
3706.000000 0.8366 0.8366 0.8366 0.8365 0.8365
3701.000000 0.8364 0.8364 0.8363 0.8363 0.8362
3696.000000 0.8362 0.8361 0.8361 0.8360 0.8360
3691.000000 0.8358 0.8356 0.8354 0.8353 0.8351
3686.000000 0.8349 0.8347 0.8346 0.8344 0.8342
3681.000000 0.8340 0.8339 0.8335 0.8332 0.8327
3676.000000 0.8321 0.8317 0.8312 0.8307 0.8303
3671.000000 0.8298 0.8293 0.8281 0.8268 0.8262
3666.000000 0.8256 0.8249 0.8243 0.8236 0.8228
3661.000000 0.8221 0.8214 0.8206 0.8198 0.8192
3656.000000 0.8187 0.8185 0.8183 0.8181 0.8180
3651.000000 0.8178 0.8176 0.8175 0.8172 0.8171
3646.000000 0.8168 0.8165 0.8161 0.8154 0.8148
3641.000000 0.8141 0.8135 0.8128 0.8121 0.8118
3636.000000 0.8115 0.8114 0.8111 0.8108 0.8107
3631.000000 0.8105 0.8103 0.8101 0.8099 0.8097
3626.000000 0.8097 0.8097 0.8098 0.8098 0.8099
3621.000000 0.8100 0.8101 0.8101 0.8103 0.8104
3616.000000 0.8105 0.8105 0.8106 0.8107 0.8108
3611.000000 0.8108 0.8110 0.8111 0.8111 0.8112
3606.000000 0.8114 0.8114 0.8115 0.8115 0.8117
3601.000000 0.8118 0.8118 0.8118 0.8119 0.8119
3596.000000 0.8121 0.8121 0.8121 0.8121 0.8122
3591.000000 0.8122 0.8124 0.8124 0.8125 0.8125
3586.000000 0.8125 0.8125 0.8126 0.8126 0.8128
3581.000000 0.8128 0.8128 0.8128 0.8130 0.8130
3576.000000 0.8130 0.8130 0.8130 0.8128 0.8126
3571.000000 0.8125 0.8124 0.8121 0.8121 0.8118
3566.000000 0.8118 0.8115 0.8115 0.8112 0.8111
3561.000000 0.8110 0.8108 0.8107 0.8106 0.8104
3556.000000 0.8103 0.8101 0.8100 0.8098 0.8097
3551.000000 0.8096 0.8095 0.8093 0.8092 0.8090
3546.000000 0.8089 0.8088 0.8087 0.8087 0.8088
3541.000000 0.8088 0.8089 0.8089 0.8090 0.8090
3536.000000 0.8091 0.8092 0.8093 0.8093 0.8094
3531.000000 0.8094 0.8095 0.8095 0.8096 0.8096
3526.000000 0.8097 0.8097 0.8098 0.8099 0.8100
3521.000000 0.8100 0.8101 0.8101 0.8101 0.8101
3516.000000 0.8103 0.8103 0.8104 0.8104 0.8105
3511.000000 0.8105 0.8105 0.8105 0.8106 0.8106
3506.000000 0.8106 0.8106 0.8106 0.8106 0.8107
3501.000000 0.8107 0.8107 0.8107 0.8108 0.8108
3496.000000 0.8108 0.8108 0.8108 0.8108 0.8108
3491.000000 0.8108 0.8110 0.8110 0.8110 0.8110
3486.000000 0.8111 0.8111 0.8111 0.8111 0.8111
3481.000000 0.8111 0.8111 0.8111 0.8112 0.8112
3476.000000 0.8112 0.8112 0.8112 0.8112 0.8114
3471.000000 0.8114 0.8114 0.8114 0.8114 0.8114
3466.000000 0.8115 0.8115 0.8115 0.8115 0.8115
3461.000000 0.8115 0.8115 0.8115 0.8115 0.8115
3456.000000 0.8115 0.8115 0.8115 0.8115 0.8117
3451.000000 0.8117 0.8117 0.8117 0.8117 0.8117
3446.000000 0.8117 0.8117 0.8118 0.8118 0.8118
3441.000000 0.8118 0.8118 0.8118 0.8119 0.8119
3436.000000 0.8121 0.8121 0.8122 0.8122 0.8124
3431.000000 0.8125 0.8125 0.8125 0.8126 0.8128
3426.000000 0.8128 0.8128 0.8130 0.8130 0.8131
3421.000000 0.8132 0.8133 0.8133 0.8134 0.8135
3416.000000 0.8136 0.8136 0.8137 0.8138 0.8139
3411.000000 0.8139 0.8140 0.8141 0.8142 0.8142
3406.000000 0.8143 0.8144 0.8145 0.8145 0.8146
3401.000000 0.8147 0.8148 0.8148 0.8148 0.8148
3396.000000 0.8148 0.8148 0.8148 0.8148 0.8149
3391.000000 0.8149 0.8149 0.8149 0.8149 0.8149
3386.000000 0.8149 0.8149 0.8149 0.8149 0.8149
3381.000000 0.8149 0.8149 0.8149 0.8149 0.8149
3376.000000 0.8149 0.8149 0.8149 0.8149 0.8149
3371.000000 0.8149 0.8149 0.8149 0.8149 0.8149
3366.000000 0.8149 0.8149 0.8149 0.8149 0.8150
3361.000000 0.8150 0.8150 0.8150 0.8150 0.8150
3356.000000 0.8150 0.8150 0.8150 0.8150 0.8150
3351.000000 0.8150 0.8150 0.8150 0.8150 0.8150
3346.000000 0.8150 0.8150 0.8150 0.8150 0.8150
3341.000000 0.8150 0.8150 0.8150 0.8150 0.8150
3336.000000 0.8150 0.8150 0.8150 0.8150 0.8151
3331.000000 0.8151 0.8151 0.8151 0.8151 0.8151
3326.000000 0.8151 0.8151 0.8151 0.8151 0.8151
3321.000000 0.8151 0.8151 0.8150 0.8150 0.8150
3316.000000 0.8150 0.8149 0.8149 0.8148 0.8148
3311.000000 0.8148 0.8148 0.8147 0.8147 0.8146
3306.000000 0.8146 0.8146 0.8146 0.8145 0.8145
3301.000000 0.8144 0.8144 0.8144 0.8144 0.8143
3296.000000 0.8143 0.8143 0.8143 0.8142 0.8142
3291.000000 0.8141 0.8141 0.8141 0.8141 0.8140
3286.000000 0.8140 0.8139 0.8139 0.8139 0.8139
3281.000000 0.8138 0.8138 0.8137 0.8137 0.8137
3276.000000 0.8137 0.8136 0.8136 0.8136 0.8136
3271.000000 0.8135 0.8135 0.8134 0.8134 0.8134
3266.000000 0.8134 0.8133 0.8133 0.8132 0.8132
3261.000000 0.8132 0.8132 0.8131 0.8131 0.8131
3256.000000 0.8131 0.8130 0.8130 0.8128 0.8128
3251.000000 0.8128 0.8126 0.8125 0.8125 0.8125
3246.000000 0.8124 0.8122 0.8122 0.8121 0.8121
3241.000000 0.8119 0.8118 0.8117 0.8115 0.8114
3236.000000 0.8111 0.8110 0.8108 0.8107 0.8106
3231.000000 0.8104 0.8101 0.8100 0.8099 0.8097
3226.000000 0.8096 0.8094 0.8093 0.8092 0.8091
3221.000000 0.8089 0.8088 0.8087 0.8086 0.8084
3216.000000 0.8083 0.8082 0.8081 0.8076 0.8074
3211.000000 0.8069 0.8067 0.8062 0.8060 0.8057
3206.000000 0.8054 0.8050 0.8047 0.8043 0.8040
3201.000000 0.8037 0.8034 0.8030 0.8026 0.8024
3196.000000 0.8021 0.8018 0.8015 0.8011 0.8008
3191.000000 0.8005 0.8001 0.7998 0.7995 0.7992
3186.000000 0.7989 0.7985 0.7982 0.7978 0.7975
3181.000000 0.7971 0.7968 0.7964 0.7961 0.7957
3176.000000 0.7954 0.7951 0.7950 0.7948 0.7946
3171.000000 0.7944 0.7942 0.7940 0.7938 0.7936
3166.000000 0.7934 0.7932 0.7931 0.7928 0.7928
3161.000000 0.7925 0.7925 0.7922 0.7921 0.7919
3156.000000 0.7918 0.7917 0.7915 0.7914 0.7914
3151.000000 0.7914 0.7914 0.7912 0.7912 0.7912
3146.000000 0.7912 0.7912 0.7912 0.7912 0.7914
3141.000000 0.7914 0.7915 0.7915 0.7915 0.7915
3136.000000 0.7917 0.7917 0.7917 0.7915 0.7914
3131.000000 0.7911 0.7908 0.7903 0.7899 0.7894
3126.000000 0.7890 0.7885 0.7880 0.7875 0.7871
3121.000000 0.7868 0.7867 0.7865 0.7865 0.7864
3116.000000 0.7862 0.7861 0.7861 0.7860 0.7858
3111.000000 0.7857 0.7856 0.7855 0.7854 0.7853
3106.000000 0.7853 0.7853 0.7854 0.7854 0.7855
3101.000000 0.7856 0.7857 0.7857 0.7858 0.7858
3096.000000 0.7858 0.7858 0.7860 0.7861 0.7861
3091.000000 0.7861 0.7862 0.7862 0.7864 0.7864
3086.000000 0.7864 0.7864 0.7865 0.7865 0.7865
3081.000000 0.7865 0.7865 0.7865 0.7865 0.7865
3076.000000 0.7865 0.7865 0.7865 0.7865 0.7865
3071.000000 0.7864 0.7862 0.7861 0.7861 0.7860
3066.000000 0.7858 0.7858 0.7857 0.7856 0.7855
3061.000000 0.7854 0.7853 0.7851 0.7851 0.7851
3056.000000 0.7850 0.7849 0.7848 0.7847 0.7847
3051.000000 0.7846 0.7845 0.7843 0.7842 0.7838
3046.000000 0.7835 0.7831 0.7828 0.7821 0.7817
3041.000000 0.7810 0.7804 0.7797 0.7791 0.7784
3036.000000 0.7778 0.7771 0.7764 0.7757 0.7750
3031.000000 0.7743 0.7736 0.7715 0.7695 0.7668
3026.000000 0.7641 0.7586 0.7532 0.7483 0.7434
3021.000000 0.7394 0.7355 0.7315 0.7275 0.7232
3016.000000 0.7190 0.7138 0.7087 0.7018 0.6949
3011.000000 0.6862 0.6778 0.6715 0.6653 0.6621
3006.000000 0.6571 0.6584 0.6578 0.6575 0.6571
3001.000000 0.6578 0.6585 0.6596 0.6608 0.6621
2996.000000 0.6637 0.6656 0.6675 0.6694 0.6712
2991.000000 0.6734 0.6756 0.6792 0.6828 0.6851
2986.000000 0.6874 0.6894 0.6914 0.6928 0.6944
2981.000000 0.6951 0.6960 0.6964 0.6968 0.6968
2976.000000 0.6983 0.6965 0.6962 0.6958 0.6954
2971.000000 0.6938 0.6921 0.6900 0.6878 0.6854
2966.000000 0.6828 0.6762 0.6698 0.6624 0.6550
2961.000000 0.6465 0.6383 0.6299 0.6215 0.6131
2956.000000 0.6048 0.5964 0.5881 0.5797 0.5714
2951.000000 0.5630 0.5546 0.5477 0.5408 0.5373
2946.000000 0.5339 0.5307 0.5275 0.5256 0.5237
2941.000000 0.5228 0.5220 0.5212 0.5185 0.5202
2936.000000 0.5198 0.5198 0.5199 0.5207 0.5215
2931.000000 0.5241 0.5267 0.5293 0.5320 0.5355
2926.000000 0.5390 0.5425 0.5460 0.5551 0.5642
2921.000000 0.5719 0.5797 0.5862 0.5930 0.5960
2916.000000 0.5993 0.6004 0.6015 0.6023 0.6031
2911.000000 0.6037 0.6043 0.6052 0.6060 0.6071
2906.000000 0.6082 0.6097 0.6112 0.6130 0.6148
2901.000000 0.6168 0.6189 0.6212 0.6235 0.6259
2896.000000 0.6284 0.6312 0.6340 0.6368 0.6396
2891.000000 0.6418 0.6443 0.6465 0.6489 0.6512
2886.000000 0.6537 0.6568 0.6601 0.6635 0.6668
2881.000000 0.6703 0.6739 0.6775 0.6811 0.6848
2876.000000 0.6884 0.6917 0.6951 0.6987 0.7022
2871.000000 0.7048 0.7074 0.7086 0.7099 0.7105
2866.000000 0.7111 0.7118 0.7125 0.7130 0.7135
2861.000000 0.7137 0.7139 0.7140 0.7158 0.7143
2856.000000 0.7144 0.7144 0.7145 0.7145 0.7145
2851.000000 0.7145 0.7144 0.7141 0.7138 0.7125
2846.000000 0.7111 0.7093 0.7075 0.7036 0.6997
2841.000000 0.6937 0.6878 0.6771 0.6667 0.6561
2836.000000 0.6457 0.6352 0.6247 0.6142 0.6037
2831.000000 0.5932 0.5792 0.5810 0.5795 0.5940
2826.000000 0.6085 0.6234 0.6384 0.6533 0.6682
2821.000000 0.6831 0.6980 0.7050 0.7119 0.7154
2816.000000 0.7188 0.7239 0.7290 0.7334 0.7378
2811.000000 0.7415 0.7453 0.7495 0.7538 0.7587
2806.000000 0.7637 0.7665 0.7693 0.7719 0.7748
2801.000000 0.7774 0.7801 0.7825 0.7851 0.7876
2796.000000 0.7901 0.7921 0.7940 0.7958 0.7978
2791.000000 0.7996 0.8014 0.8026 0.8041 0.8054
2786.000000 0.8068 0.8081 0.8095 0.8107 0.8119
2781.000000 0.8131 0.8142 0.8153 0.8165 0.8175
2776.000000 0.8186 0.8190 0.8195 0.8200 0.8205
2771.000000 0.8210 0.8215 0.8218 0.8221 0.8225
2766.000000 0.8228 0.8231 0.8234 0.8237 0.8240
2761.000000 0.8242 0.8244 0.8245 0.8247 0.8249
2756.000000 0.8251 0.8252 0.8254 0.8256 0.8258
2751.000000 0.8259 0.8261 0.8262 0.8264 0.8266
2746.000000 0.8268 0.8268 0.8271 0.8273 0.8275
2741.000000 0.8277 0.8278 0.8280 0.8282 0.8284
2736.000000 0.8286 0.8288 0.8290 0.8291 0.8293
2731.000000 0.8295 0.8297 0.8299 0.8301 0.8302
2726.000000 0.8304 0.8306 0.8308 0.8310 0.8312
2721.000000 0.8313 0.8315 0.8316 0.8317 0.8318
2716.000000 0.8320 0.8321 0.8321 0.8323 0.8324
2711.000000 0.8325 0.8325 0.8327 0.8328 0.8328
2706.000000 0.8331 0.8332 0.8333 0.8334 0.8335
2701.000000 0.8336 0.8337 0.8338 0.8340 0.8341
2696.000000 0.8342 0.8343 0.8344 0.8345 0.8346
2691.000000 0.8347 0.8348 0.8349 0.8350 0.8351
2686.000000 0.8352 0.8352 0.8353 0.8354 0.8355
2681.000000 0.8355 0.8356 0.8357 0.8358 0.8358
2676.000000 0.8359 0.8360 0.8361 0.8361 0.8362
2671.000000 0.8363 0.8364 0.8364 0.8365 0.8366
2666.000000 0.8367 0.8367 0.8368 0.8368 0.8370
2661.000000 0.8370 0.8371 0.8371 0.8373 0.8373
2656.000000 0.8374 0.8374 0.8374 0.8374 0.8374
2651.000000 0.8374 0.8375 0.8375 0.8375 0.8375
2646.000000 0.8375 0.8375 0.8375 0.8375 0.8375
2641.000000 0.8375 0.8375 0.8375 0.8375 0.8375
2636.000000 0.8375 0.8375 0.8375 0.8375 0.8375
2631.000000 0.8375 0.8375 0.8375 0.8375 0.8375
2626.000000 0.8375 0.8375 0.8375 0.8375 0.8375
2621.000000 0.8375 0.8375 0.8375 0.8375 0.8375
2616.000000 0.8375 0.8374 0.8374 0.8374 0.8374
2611.000000 0.8373 0.8373 0.8373 0.8373 0.8371
2606.000000 0.8371 0.8371 0.8371 0.8371 0.8371
2601.000000 0.8371 0.8371 0.8370 0.8370 0.8370
2596.000000 0.8370 0.8368 0.8368 0.8368 0.8368
2591.000000 0.8368 0.8368 0.8367 0.8367 0.8367
2586.000000 0.8368 0.8368 0.8368 0.8368 0.8368
2581.000000 0.8368 0.8370 0.8370 0.8371 0.8371
2576.000000 0.8371 0.8371 0.8373 0.8373 0.8373
2571.000000 0.8373 0.8374 0.8374 0.8375 0.8375
2566.000000 0.8375 0.8375 0.8377 0.8377 0.8378
2561.000000 0.8378 0.8378 0.8378 0.8378 0.8378
2556.000000 0.8380 0.8380 0.8381 0.8381 0.8382
2551.000000 0.8382 0.8383 0.8383 0.8384 0.8384
2546.000000 0.8385 0.8386 0.8387 0.8387 0.8388
2541.000000 0.8388 0.8389 0.8390 0.8391 0.8391
2536.000000 0.8392 0.8393 0.8394 0.8394 0.8395
2531.000000 0.8396 0.8397 0.8397 0.8398 0.8398
2526.000000 0.8399 0.8400 0.8401 0.8401 0.8402
2521.000000 0.8402 0.8403 0.8403 0.8403 0.8403
2516.000000 0.8404 0.8404 0.8405 0.8405 0.8406
2511.000000 0.8406 0.8406 0.8406 0.8407 0.8407
2506.000000 0.8408 0.8408 0.8409 0.8409 0.8410
2501.000000 0.8410 0.8411 0.8411 0.8412 0.8412
2496.000000 0.8413 0.8414 0.8415 0.8415 0.8416
2491.000000 0.8417 0.8418 0.8418 0.8418 0.8420
2486.000000 0.8421 0.8421 0.8421 0.8421 0.8421
2481.000000 0.8421 0.8421 0.8418 0.8417 0.8415
2476.000000 0.8413 0.8410 0.8407 0.8404 0.8401
2471.000000 0.8398 0.8395 0.8392 0.8389 0.8388
2466.000000 0.8388 0.8387 0.8386 0.8385 0.8385
2461.000000 0.8384 0.8383 0.8382 0.8382 0.8381
2456.000000 0.8380 0.8378 0.8378 0.8378 0.8377
2451.000000 0.8375 0.8375 0.8375 0.8374 0.8373
2446.000000 0.8373 0.8371 0.8371 0.8371 0.8371
2441.000000 0.8371 0.8371 0.8371 0.8371 0.8371
2436.000000 0.8373 0.8373 0.8374 0.8374 0.8374
2431.000000 0.8374 0.8375 0.8375 0.8375 0.8375
2426.000000 0.8375 0.8375 0.8375 0.8375 0.8377
2421.000000 0.8377 0.8377 0.8377 0.8378 0.8378
2416.000000 0.8378 0.8378 0.8378 0.8378 0.8380
2411.000000 0.8380 0.8380 0.8380 0.8381 0.8381
2406.000000 0.8382 0.8382 0.8383 0.8383 0.8384
2401.000000 0.8384 0.8385 0.8385 0.8386 0.8386
2396.000000 0.8387 0.8387 0.8388 0.8388 0.8389
2391.000000 0.8389 0.8390 0.8390 0.8391 0.8391
2386.000000 0.8392 0.8392 0.8393 0.8393 0.8394
2381.000000 0.8395 0.8397 0.8398 0.8399 0.8400
2376.000000 0.8402 0.8403 0.8404 0.8405 0.8407
2371.000000 0.8408 0.8409 0.8410 0.8412 0.8413
2366.000000 0.8415 0.8416 0.8417 0.8418 0.8420
2361.000000 0.8421 0.8421 0.8423 0.8425 0.8425
2356.000000 0.8427 0.8428 0.8430 0.8431 0.8432
2351.000000 0.8433 0.8435 0.8436 0.8437 0.8438
2346.000000 0.8439 0.8440 0.8441 0.8442 0.8443
2341.000000 0.8444 0.8445 0.8446 0.8447 0.8448
2336.000000 0.8449 0.8450 0.8451 0.8452 0.8453
2331.000000 0.8454 0.8455 0.8456 0.8457 0.8458
2326.000000 0.8459 0.8460 0.8461 0.8462 0.8463
2321.000000 0.8464 0.8465 0.8465 0.8465 0.8465
2316.000000 0.8465 0.8465 0.8465 0.8465 0.8465
2311.000000 0.8465 0.8465 0.8465 0.8465 0.8465
2306.000000 0.8465 0.8465 0.8465 0.8465 0.8465
2301.000000 0.8465 0.8465 0.8464 0.8464 0.8464
2296.000000 0.8464 0.8464 0.8464 0.8464 0.8464
2291.000000 0.8464 0.8464 0.8464 0.8464 0.8464
2286.000000 0.8464 0.8463 0.8463 0.8463 0.8463
2281.000000 0.8463 0.8463 0.8462 0.8462 0.8462
2276.000000 0.8462 0.8462 0.8462 0.8461 0.8461
2271.000000 0.8460 0.8460 0.8459 0.8459 0.8458
2266.000000 0.8457 0.8456 0.8455 0.8454 0.8453
2261.000000 0.8452 0.8451 0.8450 0.8449 0.8445
2256.000000 0.8441 0.8432 0.8424 0.8413 0.8402
2251.000000 0.8386 0.8370 0.8357 0.8345 0.8343
2246.000000 0.8341 0.8339 0.8338 0.8338 0.8339
2241.000000 0.8343 0.8347 0.8353 0.8360 0.8366
2236.000000 0.8373 0.8380 0.8387 0.8393 0.8400
2231.000000 0.8404 0.8409 0.8410 0.8411 0.8412
2226.000000 0.8414 0.8415 0.8417 0.8418 0.8418
2221.000000 0.8420 0.8421 0.8423 0.8425 0.8425
2216.000000 0.8427 0.8428 0.8428 0.8430 0.8431
2211.000000 0.8432 0.8433 0.8434 0.8435 0.8436
2206.000000 0.8437 0.8438 0.8439 0.8440 0.8441
2201.000000 0.8442 0.8443 0.8444 0.8445 0.8446
2196.000000 0.8447 0.8448 0.8449 0.8450 0.8451
2191.000000 0.8452 0.8453 0.8454 0.8455 0.8456
2186.000000 0.8457 0.8458 0.8459 0.8459 0.8460
2181.000000 0.8461 0.8462 0.8463 0.8464 0.8465
2176.000000 0.8467 0.8468 0.8468 0.8470 0.8471
2171.000000 0.8473 0.8475 0.8475 0.8478 0.8478
2166.000000 0.8480 0.8481 0.8483 0.8484 0.8486
2161.000000 0.8487 0.8488 0.8489 0.8491 0.8492
2156.000000 0.8494 0.8495 0.8497 0.8498 0.8499
2151.000000 0.8500 0.8501 0.8501 0.8502 0.8502
2146.000000 0.8503 0.8503 0.8504 0.8504 0.8505
2141.000000 0.8505 0.8506 0.8506 0.8507 0.8507
2136.000000 0.8508 0.8508 0.8508 0.8508 0.8508
2131.000000 0.8507 0.8507 0.8506 0.8505 0.8504
2126.000000 0.8504 0.8503 0.8502 0.8501 0.8501
2121.000000 0.8500 0.8499 0.8498 0.8497 0.8496
2116.000000 0.8496 0.8495 0.8494 0.8493 0.8493
2111.000000 0.8491 0.8490 0.8488 0.8487 0.8485
2106.000000 0.8484 0.8478 0.8475 0.8468 0.8464
2101.000000 0.8458 0.8453 0.8447 0.8442 0.8436
2096.000000 0.8431 0.8425 0.8420 0.8414 0.8409
2091.000000 0.8405 0.8404 0.8403 0.8405 0.8406
2086.000000 0.8408 0.8409 0.8410 0.8411 0.8413
2081.000000 0.8414 0.8416 0.8418 0.8420 0.8421
2076.000000 0.8425 0.8427 0.8428 0.8431 0.8433
2071.000000 0.8435 0.8438 0.8440 0.8442 0.8444
2066.000000 0.8447 0.8449 0.8451 0.8451 0.8451
2061.000000 0.8450 0.8450 0.8449 0.8449 0.8448
2056.000000 0.8448 0.8447 0.8447 0.8446 0.8446
2051.000000 0.8445 0.8445 0.8444 0.8443 0.8442
2046.000000 0.8442 0.8441 0.8440 0.8439 0.8438
2041.000000 0.8437 0.8436 0.8434 0.8433 0.8432
2036.000000 0.8431 0.8428 0.8428 0.8425 0.8425
2031.000000 0.8423 0.8421 0.8420 0.8418 0.8416
2026.000000 0.8414 0.8405 0.8397 0.8383 0.8370
2021.000000 0.8357 0.8344 0.8330 0.8317 0.8306
2016.000000 0.8295 0.8284 0.8273 0.8264 0.8225
2011.000000 0.8249 0.8243 0.8243 0.8244 0.8244
2006.000000 0.8245 0.8251 0.8258 0.8266 0.8275
2001.000000 0.8295 0.8316 0.8342 0.8368 0.8391
1996.000000 0.8396 0.8398 0.8401 0.8403 0.8406
1991.000000 0.8413 0.8421 0.8428 0.8437 0.8445
1986.000000 0.8454 0.8460 0.8464 0.8468 0.8473
1981.000000 0.8477 0.8481 0.8485 0.8489 0.8493
1976.000000 0.8497 0.8502 0.8504 0.8506 0.8508
1971.000000 0.8510 0.8512 0.8514 0.8516 0.8518
1966.000000 0.8520 0.8521 0.8524 0.8525 0.8528
1961.000000 0.8528 0.8530 0.8531 0.8532 0.8533
1956.000000 0.8534 0.8535 0.8536 0.8537 0.8538
1951.000000 0.8539 0.8540 0.8541 0.8542 0.8543
1946.000000 0.8544 0.8545 0.8546 0.8547 0.8549
1941.000000 0.8550 0.8551 0.8552 0.8554 0.8555
1936.000000 0.8556 0.8557 0.8559 0.8560 0.8561
1931.000000 0.8562 0.8563 0.8565 0.8566 0.8567
1926.000000 0.8568 0.8570 0.8571 0.8571 0.8571
1921.000000 0.8571 0.8573 0.8573 0.8573 0.8574
1916.000000 0.8574 0.8574 0.8574 0.8575 0.8575
1911.000000 0.8575 0.8575 0.8575 0.8575 0.8577
1906.000000 0.8577 0.8578 0.8578 0.8578 0.8578
1901.000000 0.8578 0.8580 0.8580 0.8581 0.8581
1896.000000 0.8581 0.8582 0.8582 0.8583 0.8583
1891.000000 0.8583 0.8584 0.8584 0.8585 0.8585
1886.000000 0.8585 0.8585 0.8584 0.8584 0.8583
1881.000000 0.8583 0.8582 0.8582 0.8582 0.8581
1876.000000 0.8581 0.8580 0.8580 0.8578 0.8578
1871.000000 0.8578 0.8578 0.8577 0.8577 0.8575
1866.000000 0.8575 0.8575 0.8575 0.8575 0.8574
1861.000000 0.8574 0.8574 0.8573 0.8573 0.8573
1856.000000 0.8573 0.8571 0.8571 0.8571 0.8571
1851.000000 0.8571 0.8571 0.8570 0.8570 0.8570
1846.000000 0.8568 0.8568 0.8568 0.8568 0.8567
1841.000000 0.8567 0.8566 0.8565 0.8564 0.8564
1836.000000 0.8563 0.8562 0.8562 0.8561 0.8560
1831.000000 0.8559 0.8559 0.8558 0.8557 0.8556
1826.000000 0.8556 0.8556 0.8555 0.8555 0.8555
1821.000000 0.8555 0.8554 0.8554 0.8554 0.8553
1816.000000 0.8553 0.8553 0.8552 0.8552 0.8552
1811.000000 0.8552 0.8551 0.8551 0.8551 0.8550
1806.000000 0.8550 0.8550 0.8549 0.8548 0.8547
1801.000000 0.8546 0.8544 0.8543 0.8542 0.8541
1796.000000 0.8540 0.8539 0.8538 0.8537 0.8535
1791.000000 0.8534 0.8533 0.8532 0.8531 0.8530
1786.000000 0.8528 0.8527 0.8525 0.8525 0.8524
1781.000000 0.8521 0.8521 0.8520 0.8518 0.8517
1776.000000 0.8516 0.8514 0.8510 0.8505 0.8501
1771.000000 0.8491 0.8480 0.8468 0.8457 0.8444
1766.000000 0.8425 0.8405 0.8385 0.8367 0.8348
1761.000000 0.8328 0.8311 0.8293 0.8275 0.8266
1756.000000 0.8256 0.8248 0.8232 0.8237 0.8237
1751.000000 0.8237 0.8238 0.8239 0.8240 0.8241
1746.000000 0.8242 0.8243 0.8250 0.8261 0.8271
1741.000000 0.8278 0.8285 0.8291 0.8296 0.8296
1736.000000 0.8296 0.8295 0.8295 0.8295 0.8295
1731.000000 0.8296 0.8297 0.8298 0.8299 0.8302
1726.000000 0.8311 0.8320 0.8328 0.8335 0.8343
1721.000000 0.8351 0.8359 0.8367 0.8371 0.8371
1716.000000 0.8374 0.8375 0.8375 0.8377 0.8378
1711.000000 0.8378 0.8378 0.8380 0.8381 0.8381
1706.000000 0.8382 0.8382 0.8382 0.8382 0.8382
1701.000000 0.8383 0.8383 0.8381 0.8375 0.8367
1696.000000 0.8359 0.8351 0.8343 0.8335 0.8328
1691.000000 0.8320 0.8312 0.8310 0.8310 0.8310
1686.000000 0.8309 0.8309 0.8309 0.8309 0.8308
1681.000000 0.8308 0.8308 0.8307 0.8311 0.8314
1676.000000 0.8318 0.8321 0.8325 0.8328 0.8332
1671.000000 0.8335 0.8338 0.8342 0.8345 0.8349
1666.000000 0.8352 0.8355 0.8358 0.8362 0.8365
1661.000000 0.8368 0.8371 0.8374 0.8374 0.8374
1656.000000 0.8371 0.8370 0.8368 0.8366 0.8365
1651.000000 0.8363 0.8361 0.8359 0.8357 0.8355
1646.000000 0.8352 0.8349 0.8345 0.8342 0.8338
1641.000000 0.8335 0.8332 0.8328 0.8325 0.8321
1636.000000 0.8318 0.8315 0.8312 0.8311 0.8310
1631.000000 0.8310 0.8309 0.8308 0.8307 0.8307
1626.000000 0.8307 0.8308 0.8311 0.8315 0.8318
1621.000000 0.8321 0.8327 0.8332 0.8338 0.8343
1616.000000 0.8345 0.8347 0.8349 0.8351 0.8353
1611.000000 0.8355 0.8356 0.8358 0.8360 0.8362
1606.000000 0.8364 0.8366 0.8368 0.8370 0.8371
1601.000000 0.8373 0.8375 0.8375 0.8378 0.8380
1596.000000 0.8381 0.8383 0.8384 0.8386 0.8387
1591.000000 0.8389 0.8391 0.8392 0.8394 0.8395
1586.000000 0.8397 0.8398 0.8400 0.8402 0.8402
1581.000000 0.8403 0.8403 0.8404 0.8404 0.8405
1576.000000 0.8405 0.8406 0.8407 0.8407 0.8408
1571.000000 0.8408 0.8409 0.8409 0.8410 0.8410
1566.000000 0.8411 0.8411 0.8412 0.8412 0.8413
1561.000000 0.8413 0.8413 0.8413 0.8412 0.8411
1556.000000 0.8411 0.8410 0.8410 0.8409 0.8409
1551.000000 0.8408 0.8408 0.8407 0.8407 0.8406
1546.000000 0.8406 0.8405 0.8405 0.8404 0.8403
1541.000000 0.8402 0.8401 0.8400 0.8399 0.8398
1536.000000 0.8397 0.8395 0.8394 0.8393 0.8392
1531.000000 0.8391 0.8390 0.8389 0.8387 0.8385
1526.000000 0.8383 0.8382 0.8380 0.8378 0.8377
1521.000000 0.8375 0.8373 0.8371 0.8370 0.8368
1516.000000 0.8368 0.8367 0.8365 0.8363 0.8361
1511.000000 0.8358 0.8356 0.8353 0.8351 0.8348
1506.000000 0.8346 0.8343 0.8341 0.8338 0.8336
1501.000000 0.8333 0.8330 0.8328 0.8325 0.8323
1496.000000 0.8320 0.8318 0.8315 0.8311 0.8307
1491.000000 0.8303 0.8299 0.8294 0.8288 0.8283
1486.000000 0.8278 0.8268 0.8248 0.8225 0.8202
1481.000000 0.8178 0.8153 0.8122 0.8088 0.8054
1476.000000 0.8011 0.7955 0.7898 0.7821 0.7715
1471.000000 0.7576 0.7428 0.7318 0.7191 0.7068
1466.000000 0.6972 0.6831 0.6317 0.6203 0.6101
1461.000000 0.6021 0.5942 0.5882 0.5833 0.5792
1456.000000 0.5721 0.5712 0.5707 0.5702 0.5698
1451.000000 0.5692 0.5681 0.5628 0.5627 0.5627
1446.000000 0.5643 0.5712 0.5792 0.5884 0.6028
1441.000000 0.6265 0.6442 0.6580 0.6637 0.6718
1436.000000 0.6700 0.6704 0.6698 0.6668 0.6630
1431.000000 0.6581 0.6610 0.6615 0.6698 0.6794
1426.000000 0.6901 0.7012 0.7093 0.7171 0.7242
1421.000000 0.7311 0.7360 0.7403 0.7445 0.7485
1416.000000 0.7518 0.7551 0.7581 0.7608 0.7635
1411.000000 0.7660 0.7681 0.7693 0.7703 0.7712
1406.000000 0.7718 0.7732 0.7728 0.7725 0.7722
1401.000000 0.7719 0.7717 0.7712 0.7708 0.7704
1396.000000 0.7700 0.7701 0.7701 0.7701 0.7701
1391.000000 0.7701 0.7705 0.7708 0.7710 0.7712
1386.000000 0.7715 0.7718 0.7718 0.7719 0.7721
1381.000000 0.7704 0.7669 0.7624 0.7571 0.7480
1376.000000 0.7421 0.7383 0.7372 0.7365 0.7361
1371.000000 0.7357 0.7351 0.7345 0.7339 0.7333
1366.000000 0.7330 0.7326 0.7324 0.7319 0.7315
1361.000000 0.7303 0.7291 0.7256 0.7208 0.7132
1356.000000 0.7037 0.6943 0.6855 0.6791 0.6738
1351.000000 0.6714 0.6706 0.6739 0.6807 0.6883
1346.000000 0.7176 0.7297 0.7391 0.7478 0.7555
1341.000000 0.7625 0.7689 0.7753 0.7811 0.7849
1336.000000 0.7886 0.7922 0.7958 0.7983 0.8008
1331.000000 0.8032 0.8055 0.8075 0.8097 0.8114
1326.000000 0.8128 0.8143 0.8157 0.8175 0.8192
1321.000000 0.8208 0.8224 0.8228 0.8233 0.8238
1316.000000 0.8243 0.8247 0.8249 0.8250 0.8250
1311.000000 0.8251 0.8251 0.8251 0.8252 0.8252
1306.000000 0.8252 0.8251 0.8250 0.8249 0.8248
1301.000000 0.8247 0.8245 0.8244 0.8243 0.8242
1296.000000 0.8238 0.8234 0.8225 0.8204 0.8144
1291.000000 0.8069 0.7990 0.7908 0.7828 0.7748
1286.000000 0.7667 0.7586 0.7505 0.7425 0.7344
1281.000000 0.7191 0.7191 0.7191 0.7199 0.7221
1276.000000 0.7310 0.7451 0.7580 0.7653 0.7708
1271.000000 0.7768 0.7831 0.7893 0.7951 0.7986
1266.000000 0.8019 0.8051 0.8080 0.8090 0.8097
1261.000000 0.8103 0.8108 0.8111 0.8115 0.8119
1256.000000 0.8121 0.8121 0.8122 0.8148 0.8125
1251.000000 0.8125 0.8125 0.8125 0.8125 0.8125
1246.000000 0.8124 0.8122 0.8121 0.8119 0.8118
1241.000000 0.8117 0.8115 0.8110 0.8105 0.8101
1236.000000 0.8096 0.8091 0.8086 0.8078 0.8071
1231.000000 0.8064 0.8056 0.8048 0.8037 0.8025
1226.000000 0.8012 0.8001 0.7988 0.7971 0.7956
1221.000000 0.7940 0.7924 0.7908 0.7888 0.7868
1216.000000 0.7848 0.7822 0.7797 0.7771 0.7746
1211.000000 0.7719 0.7694 0.7665 0.7628 0.7593
1206.000000 0.7551 0.7501 0.7450 0.7341 0.7228
1201.000000 0.7111 0.6993 0.6789 0.6617 0.6407
1196.000000 0.6173 0.6030 0.5727 0.5435 0.5142
1191.000000 0.4849 0.4557 0.4264 0.4048 0.4062
1186.000000 0.4286 0.4617 0.4949 0.5280 0.5610
1181.000000 0.5943 0.6274 0.6596 0.6595 0.6532
1176.000000 0.6426 0.6408 0.6580 0.6825 0.7068
1171.000000 0.7158 0.7217 0.7256 0.7283 0.7298
1166.000000 0.7307 0.7314 0.7341 0.7322 0.7325
1161.000000 0.7312 0.7284 0.7253 0.7221 0.7189
1156.000000 0.7154 0.7115 0.7072 0.7024 0.6981
1151.000000 0.6936 0.6889 0.6848 0.6810 0.6764
1146.000000 0.6714 0.6653 0.6614 0.6593 0.6603
1141.000000 0.6621 0.6633 0.6637 0.6635 0.6628
1136.000000 0.6607 0.6578 0.6511 0.6411 0.6330
1131.000000 0.6257 0.6180 0.6103 0.6027 0.5927
1126.000000 0.5819 0.5592 0.5350 0.5108 0.4866
1121.000000 0.4624 0.4382 0.4140 0.3898 0.3656
1116.000000 0.3414 0.3172 0.2930 0.2687 0.2445
1111.000000 0.2203 0.1961 0.1804 0.1778 0.1761
1106.000000 0.1753 0.1752 0.1782 0.1844 0.1926
1101.000000 0.2027 0.2299 0.2651 0.2994 0.3337
1096.000000 0.3680 0.4022 0.4365 0.4590 0.4730
1091.000000 0.4862 0.5037 0.5278 0.5547 0.5965
1086.000000 0.6134 0.6238 0.6384 0.6543 0.6639
1081.000000 0.6717 0.6780 0.6838 0.6861 0.6865
1076.000000 0.6865 0.6868 0.6878 0.6910 0.6972
1071.000000 0.7030 0.7088 0.7151 0.7225 0.7292
1066.000000 0.7350 0.7421 0.7478 0.7511 0.7541
1061.000000 0.7555 0.7567 0.7575 0.7586 0.7596
1056.000000 0.7611 0.7625 0.7660 0.7698 0.7735
1051.000000 0.7767 0.7778 0.7790 0.7801 0.7805
1046.000000 0.7808 0.7811 0.7817 0.7825 0.7832
1041.000000 0.7844 0.7860 0.7875 0.7888 0.7900
1036.000000 0.7907 0.7915 0.7919 0.7922 0.7926
1031.000000 0.7930 0.7932 0.7933 0.7933 0.7934
1026.000000 0.7934 0.7933 0.7933 0.7933 0.7930
1021.000000 0.7926 0.7921 0.7908 0.7896 0.7843
1016.000000 0.7788 0.7732 0.7621 0.7486 0.7351
1011.000000 0.7217 0.7082 0.6947 0.6812 0.6795
1006.000000 0.6798 0.6826 0.6958 0.7111 0.7264
1001.000000 0.7417 0.7525 0.7578 0.7631 0.7681
996.000000 0.7730 0.7780 0.7819 0.7858 0.7899
991.000000 0.7936 0.7972 0.7997 0.8021 0.8046
986.000000 0.8062 0.8080 0.8096 0.8107 0.8118
981.000000 0.8122 0.8128 0.8134 0.8138 0.8139
976.000000 0.8158 0.8142 0.8141 0.8141 0.8138
971.000000 0.8135 0.8132 0.8125 0.8119 0.8112
966.000000 0.8097 0.8080 0.8045 0.7965 0.7894
961.000000 0.7825 0.7754 0.7672 0.7587 0.7503
956.000000 0.7443 0.7415 0.7383 0.7393 0.7388
951.000000 0.7407 0.7454 0.7501 0.7558 0.7614
946.000000 0.7660 0.7707 0.7742 0.7775 0.7807
941.000000 0.7830 0.7836 0.7867 0.7838 0.7837
936.000000 0.7832 0.7826 0.7821 0.7811 0.7801
931.000000 0.7789 0.7771 0.7755 0.7732 0.7705
926.000000 0.7669 0.7630 0.7575 0.7515 0.7395
921.000000 0.7269 0.7092 0.6967 0.6701 0.6369
916.000000 0.6037 0.5704 0.5371 0.5039 0.4706
911.000000 0.4374 0.4200 0.4208 0.4255 0.4392
906.000000 0.4752 0.5112 0.5474 0.5834 0.6195
901.000000 0.6921 0.7071 0.7151 0.7211 0.7290
896.000000 0.7356 0.7406 0.7445 0.7484 0.7507
891.000000 0.7518 0.7518 0.7519 0.7510 0.7264
886.000000 0.7006 0.6748 0.6489 0.6231 0.5973
881.000000 0.5714 0.5634 0.5648 0.5910 0.6174
876.000000 0.6437 0.6701 0.6965 0.7161 0.7268
871.000000 0.7353 0.7437 0.7658 0.7768 0.7841
866.000000 0.7914 0.8000 0.8078 0.8130 0.8175
861.000000 0.8204 0.8232 0.8260 0.8278 0.8292
856.000000 0.8305 0.8316 0.8325 0.8334 0.8343
851.000000 0.8352 0.8359 0.8362 0.8366 0.8368
846.000000 0.8371 0.8371 0.8371 0.8371 0.8370
841.000000 0.8368 0.8367 0.8367 0.8367 0.8367
836.000000 0.8368 0.8371 0.8373 0.8375 0.8377
831.000000 0.8378 0.8381 0.8384 0.8388 0.8392
826.000000 0.8395 0.8399 0.8403 0.8406 0.8410
821.000000 0.8414 0.8418 0.8423 0.8428 0.8432
816.000000 0.8437 0.8441 0.8445 0.8449 0.8452
811.000000 0.8455 0.8458 0.8462 0.8465 0.8468
806.000000 0.8471 0.8475 0.8477 0.8478 0.8481
801.000000 0.8483 0.8486 0.8488 0.8490 0.8492
796.000000 0.8494 0.8498 0.8502 0.8506 0.8510
791.000000 0.8514 0.8518 0.8521 0.8525 0.8528
786.000000 0.8533 0.8537 0.8541 0.8545 0.8548
781.000000 0.8552 0.8555 0.8558 0.8562 0.8565
776.000000 0.8568 0.8571 0.8575 0.8578 0.8578
771.000000 0.8578 0.8578 0.8578 0.8580 0.8580
766.000000 0.8580 0.8581 0.8581 0.8582 0.8582
761.000000 0.8582 0.8582 0.8583 0.8583 0.8583
756.000000 0.8583 0.8583 0.8584 0.8584 0.8584
751.000000 0.8584 0.8585 0.8585 0.8585 0.8585
746.000000 0.8585 0.8586 0.8586 0.8586 0.8586
741.000000 0.8587 0.8587 0.8587 0.8587 0.8588
736.000000 0.8588 0.8588 0.8588 0.8588 0.8589
731.000000 0.8589 0.8589 0.8589 0.8589 0.8589
726.000000 0.8589 0.8589 0.8589 0.8588 0.8588
721.000000 0.8588 0.8586 0.8583 0.8581 0.8578
716.000000 0.8575 0.8571 0.8567 0.8559 0.8550
711.000000 0.8541 0.8532 0.8523 0.8512 0.8502
706.000000 0.8492 0.8486 0.8481 0.8482 0.8483
701.000000 0.8484 0.8485 0.8487 0.8492 0.8497
696.000000 0.8501 0.8506 0.8511 0.8516 0.8520
691.000000 0.8524 0.8525 0.8527 0.8528 0.8528
686.000000 0.8530 0.8532 0.8533 0.8534 0.8535
681.000000 0.8536 0.8536 0.8537 0.8537 0.8538
676.000000 0.8534 0.8528 0.8525 0.8520 0.8515
671.000000 0.8514 0.8514 0.8514 0.8514 0.8514
666.000000 0.8515 0.8517 0.8518 0.8520 0.8520
661.000000 0.8520 0.8518 0.8516 0.8514 0.8511
656.000000 0.8508 0.8503 0.8499 0.8493 0.8486
651.000000 0.8478 0.8470 0.8463 0.8452 0.8428
646.000000 0.8394 0.8355 0.8324 0.8304 0.8308
641.000000 0.8318 0.8339 0.8364 0.8370 0.8375
636.000000 0.8381 0.8386 0.8391 0.8395 0.8398
631.000000 0.8400 0.8401 0.8403 0.8405 0.8406
626.000000 0.8408 0.8408 0.8407 0.8405 0.8403
621.000000 0.8401 0.8398 0.8394 0.8388 0.8375
616.000000 0.8362 0.8377 0.8393 0.8408 0.8418
611.000000 0.8425 0.8434 0.8441 0.8441 0.8441
606.000000 0.8442 0.8442 0.8442 0.8443 0.8444
601.000000 0.8444 0.8444 0.8444 0.8441 0.8436
596.000000 0.8428 0.8417 0.8404 0.8391 0.8382
591.000000 0.8374 0.8366 0.8358 0.8358 0.8358
586.000000 0.8367 0.8375 0.8385 0.8395 0.8406
581.000000 0.8416 0.8427 0.8436 0.8442 0.8447
576.000000 0.8453 0.8458 0.8464 0.8470 0.8471
571.000000 0.8473 0.8474 0.8475 0.8478 0.8478
566.000000 0.8481 0.8482 0.8484 0.8485 0.8485
561.000000 0.8486 0.8486 0.8487 0.8487 0.8488
556.000000 0.8489 0.8491 0.8492 0.8493 0.8493
551.000000 0.8493 0.8492 0.8485 0.8478 0.8471
546.000000 0.8466 0.8460 0.8454 0.8451 0.8448
541.000000 0.8445 0.8442 0.8438 0.8436 0.8433
536.000000 0.8430 0.8428 0.8425 0.8424 0.8424
531.000000 0.8423 0.8421 0.8421 0.8421 0.8420
526.000000 0.8418 0.8418 0.8418 0.8417 0.8416
521.000000 0.8415 0.8413 0.8412 0.8411 0.8410
516.000000 0.8409 0.8408 0.8406 0.8404 0.8403
511.000000 0.8401 0.8399 0.8397 0.8396 0.8394
506.000000 0.8392 0.8391 0.8388 0.8386 0.8384
501.000000 0.8382 0.8378 0.8377 0.8375 0.8371
496.000000 0.8366 0.8366 0.8361 0.8356 0.8352
491.000000 0.8347 0.8343 0.8338 0.8334 0.8328
486.000000 0.8324 0.8320 0.8315 0.8310 0.8303
481.000000 0.8295 0.8288 0.8281 0.8273 0.8266
476.000000 0.8259 0.8254 0.8241 0.8228 0.8215
471.000000 0.8202 0.8189 0.8175 0.8158 0.8143
466.000000 0.8126 0.8111 0.8095 0.8078 0.8061
461.000000 0.8045 0.8028 0.8011 0.7993 0.7969
456.000000 0.7946 0.7922 0.7899 0.7875 0.7851
451.000000 0.7828 0.7803 0.7778 0.7753 0.7728
446.000000 0.7703 0.7678 0.7651 0.7626 0.7601
441.000000 0.7576 0.7551 0.7526 0.7501 0.7476
436.000000 0.7451 0.7426 0.7401 0.7376 0.7351
431.000000 0.7326 0.7301 0.7276 0.7251 0.7226
426.000000 0.7200 0.7171 0.7144 0.7115 0.7088
421.000000 0.7058 0.7025 0.6994 0.6961 0.6930
416.000000 0.6861 0.6786 0.6726 0.6681 0.6634
411.000000 0.6587 0.6539 0.6491 0.6443 0.6397
406.000000 0.6352 0.6306 0.6260 0.6214 0.6177
401.000000 0.6154 0.6130 0.6117 0.6109 0.6100
396.000000 0.6087 0.6065 0.6043 0.6014 0.5976
391.000000 0.5937 0.5898 0.5859 0.5810 0.5760
386.000000 0.5709 0.5658 0.5607 0.5551 0.5467
381.000000 0.5382 0.5301 0.5251 0.5201 0.5150
376.000000 0.5102 0.5068 0.5038 0.5012 0.4960
371.000000 0.4884 0.4810 0.4737 0.4675 0.4612
366.000000 0.4551 0.4478 0.4401 0.4325 0.4246
361.000000 0.4167 0.4088 0.4009 0.3945 0.3899
356.000000 0.3855 0.3818 0.3782 0.3745 0.3718
351.000000 0.3695 0.3632 0.3590 0.3548 0.3507
346.000000 0.3464 0.3418 0.3364 0.3312 0.3262
341.000000 0.3209 0.3145 0.3038 0.2954 0.2871
336.000000 0.2808 0.2744 0.2680 0.2617 0.2557
331.000000 0.2497 0.2432 0.2363 0.2285 0.2201
326.000000 0.2130 0.2060 0.2035 0.2019 0.2002
321.000000 0.1989 0.1974 0.1913 0.1852 0.1764
316.000000 0.1690 0.1635 0.1600 0.1575 0.1551
311.000000 0.1527 0.1482 0.1426 0.1377 0.1329
306.000000 0.1280 0.1231 0.1190 0.1161 0.1153
301.000000 0.1144 0.1136 0.1127 0.1116 0.1105
296.000000 0.1094 0.1081 0.1051 0.1021 0.0989
291.000000 0.0960 0.0926 0.0893 0.0871 0.0851
286.000000 0.0845 0.0838 0.0832 0.0825 0.0818
281.000000 0.0815 0.0813 0.0811 0.0809 0.0807
276.000000 0.0805 0.0804 0.0803 0.0802 0.0801
271.000000 0.0800 0.0799 0.0791 0.0775 0.0759
266.000000 0.0743 0.0724 0.0706 0.0693 0.0681
261.000000 0.0668 0.0657 0.0652 0.0646 0.0641
256.000000 0.0635 0.0630 0.0624 0.0622 0.0620
251.000000 0.0618 0.0617 0.0616 0.0616 0.0616
246.000000 0.0619 0.0621 0.0623 0.0626 0.0628
241.000000 0.0630
##END=
