##TITLE=ETHENE, 1-BROMO-1-CHLORO-
##JCAMP-DX=4.24
##DATA TYPE=INFRARED SPECTRUM
##CLASS=COBLENTZ
##ORIGIN=DOW CHEMICAL COMPANY
##OWNER=COBLENTZ SOCIETY
Collection (C) 2018 copyright by the U.S. Secretary of Commerce
on behalf of the United States of America. All rights reserved.
##DATE=1975/06/18
##NAMES=1-bromo-1-chloroethylene
##CAS REGISTRY NO=17759-85-2
##MOLFORM=C2 H2 Br Cl
##SOURCE REFERENCE=COBLENTZ NO. 10484
##$NIST SOURCE=COBLENTZ
##$NIST IMAGE=cob-r10484
##SPECTROMETER/DATA SYSTEM=BECKMAN IR-9 (GRATING)
##INSTRUMENT PARAMETERS=ORDER CHANGES: 670, 1200, 2000 CM^-^1
##STATE=GAS (10 mmHg, N2 ADDED, TOTAL PRESSURE 600 mmHg)
##PATH LENGTH=10 CM CELL
##SAMPLING PROCEDURE=TRANSMISSION
##RESOLUTION=2
##DATA PROCESSING=DIGITIZED BY NIST FROM HARD COPY (FROM TWO SEGMENTS)
##XUNITS=1/CM
##YUNITS=TRANSMITTANCE
##XFACTOR=1.000000
##YFACTOR=1
##DELTAX=1.310407
##FIRSTX=392.138
##LASTX=3793.95
##FIRSTY=0.609
##MAXX=3793.95
##MINX=392.138
##MAXY=1
##MINY=0.0530233
##NPOINTS=2597
##XYDATA=(X++(Y..Y))
392.138000 0.6090 0.6070 0.6050 0.6030 0.6030
398.690035 0.6030 0.5970 0.5920 0.5900 0.5900
405.242069 0.5900 0.5900 0.5900 0.5900 0.5900
411.794104 0.5900 0.5900 0.5900 0.5900 0.5900
418.346138 0.5900 0.5900 0.5920 0.6070 0.6259
424.898173 0.6380 0.5922 0.5333 0.5330 0.5816
431.450208 0.6590 0.6790 0.6810 0.6850 0.6940
438.002242 0.7000 0.7119 0.7269 0.7409 0.7499
444.554277 0.7620 0.7660 0.7830 0.7990 0.8050
451.106311 0.8090 0.8339 0.8449 0.8530 0.8530
457.658346 0.8550 0.8570 0.8610 0.8730 0.8780
464.210381 0.8840 0.8860 0.8860 0.8880 0.8880
470.762415 0.8920 0.8920 0.8940 0.8940 0.8940
477.314450 0.8940 0.8960 0.8960 0.8980 0.8980
483.866484 0.8980 0.9020 0.9020 0.9020 0.9040
490.418519 0.9070 0.9090 0.9110 0.9130 0.9130
496.970554 0.9130 0.9150 0.9150 0.9150 0.9170
503.522588 0.9190 0.9190 0.9210 0.9210 0.9190
510.074623 0.9190 0.9190 0.9150 0.9070 0.8980
516.626657 0.8940 0.8801 0.8631 0.8531 0.7974
523.178692 0.7780 0.7370 0.7270 0.7120 0.7120
529.730727 0.7230 0.7429 0.7520 0.7600 0.7272
536.282761 0.7250 0.7040 0.6920 0.6790 0.6710
542.834796 0.7348 0.8157 0.8339 0.8509 0.8709
549.386830 0.8840 0.8940 0.9020 0.9150 0.9250
555.938865 0.9330 0.9350 0.9380 0.9440 0.9480
562.490900 0.9580 0.9620 0.9660 0.9690 0.9690
569.042934 0.9710 0.9710 0.9710 0.9730 0.9750
575.594969 0.9750 0.9770 0.9770 0.9770 0.9770
582.147003 0.9810 0.9810 0.9790 0.9790 0.9790
588.699038 0.9790 0.9790 0.9790 0.9810 0.9790
595.251073 0.9790 0.9790 0.9790 0.9790 0.9790
601.803107 0.9830 0.9830 0.9810 0.9810 0.9790
608.355142 0.9790 0.9790 0.9790 0.9770 0.9770
614.907176 0.9770 0.9770 0.9750 0.9750 0.9750
621.459211 0.9750 0.9770 0.9790 0.9790 0.9790
628.011246 0.9790 0.9770 0.9770 0.9770 0.9790
634.563280 0.9790 0.9790 0.9790 0.9790 0.9790
641.115315 0.9790 0.9810 0.9810 0.9790 0.9790
647.667349 0.9770 0.9770 0.9770 0.9810 0.9810
654.219384 0.9790 0.9790 0.9790 0.9790 0.9790
660.771419 0.9790 0.9770 0.9750 0.9750 0.9750
667.323453 0.9750 0.9730 0.9690 0.9620 0.9730
673.875488 0.9770 0.9660 0.9640 0.9640 0.9690
680.427522 0.9690 0.9660 0.9620 0.9600 0.9600
686.979557 0.9580 0.9560 0.9560 0.9540 0.9520
693.531592 0.9500 0.9460 0.9460 0.9440 0.9440
700.083626 0.9420 0.9420 0.9400 0.9380 0.9350
706.635661 0.9350 0.9350 0.9330 0.9330 0.9330
713.187695 0.9310 0.9290 0.9290 0.9290 0.9290
719.739730 0.9290 0.9290 0.9270 0.9250 0.9250
726.291765 0.9230 0.9210 0.9190 0.9170 0.9150
732.843799 0.9040 0.8980 0.8920 0.8820 0.8531
739.395834 0.8360 0.8260 0.7274 0.6733 0.6193
745.947868 0.5329 0.4290 0.3880 0.3450 0.2332
752.499903 0.1652 0.1281 0.0882 0.0721 0.0640
759.051938 0.0640 0.0610 0.0590 0.0590 0.0610
765.603972 0.0839 0.0800 0.0700 0.0571 0.0530
772.156007 0.1572 0.2581 0.4660 0.5699 0.7327
778.708041 0.8028 0.8379 0.8569 0.8958 0.9169
785.260076 0.9210 0.9270 0.9350 0.9420 0.9440
791.812111 0.9480 0.9500 0.9540 0.9580 0.9580
798.364145 0.9580 0.9580 0.9580 0.9600 0.9600
804.916180 0.9600 0.9600 0.9600 0.9600 0.9580
811.468214 0.9580 0.9580 0.9580 0.9520 0.9520
818.020249 0.9500 0.9500 0.9500 0.9480 0.9420
824.572284 0.9400 0.9380 0.9380 0.9400 0.9440
831.124318 0.9440 0.9460 0.9460 0.9460 0.9440
837.676353 0.9440 0.9420 0.9420 0.9420 0.9350
844.228387 0.9190 0.9110 0.8981 0.8761 0.8651
850.780422 0.8379 0.8050 0.7700 0.7310 0.7120
857.332457 0.6920 0.6481 0.6171 0.5901 0.5433
863.884491 0.5139 0.4870 0.4750 0.4480 0.4170
870.436526 0.4689 0.5238 0.4074 0.2627 0.1158
876.988560 0.5020 0.5019 0.4270 0.4270 0.4380
883.540595 0.4480 0.4580 0.4710 0.4790 0.5118
890.092630 0.5370 0.5590 0.5900 0.6380 0.7409
896.644664 0.7600 0.7829 0.8199 0.8339 0.8688
903.196699 0.8940 0.9110 0.9230 0.9350 0.9380
909.748733 0.9400 0.9560 0.9620 0.9660 0.9690
916.300768 0.9690 0.9710 0.9710 0.9710 0.9710
922.852803 0.9710 0.9730 0.9750 0.9750 0.9750
929.404837 0.9790 0.9790 0.9790 0.9770 0.9770
935.956872 0.9790 0.9790 0.9790 0.9810 0.9810
942.508906 0.9810 0.9790 0.9790 0.9790 0.9810
949.060941 0.9790 0.9790 0.9810 0.9810 0.9770
955.612976 0.9750 0.9730 0.9710 0.9710 0.9710
962.165010 0.9710 0.9730 0.9750 0.9750 0.9750
968.717045 0.9750 0.9750 0.9750 0.9770 0.9770
975.269079 0.9770 0.9790 0.9790 0.9770 0.9770
981.821114 0.9770 0.9770 0.9750 0.9730 0.9710
988.373149 0.9710 0.9690 0.9660 0.9660 0.9640
994.925183 0.9620 0.9600 0.9600 0.9600 0.9600
1001.477218 0.9600 0.9600 0.9600 0.9600 0.9600
1008.029252 0.9620 0.9620 0.9620 0.9640 0.9640
1014.581287 0.9660 0.9660 0.9660 0.9690 0.9690
1021.133322 0.9710 0.9710 0.9710 0.9710 0.9710
1027.685356 0.9730 0.9750 0.9790 0.9790 0.9790
1034.237391 0.9770 0.9750 0.9690 0.9600 0.9600
1040.789425 0.9580 0.9520 0.9500 0.9480 0.9440
1047.341460 0.9380 0.9380 0.9350 0.9330 0.9230
1053.893495 0.9130 0.9000 0.8731 0.8262 0.7991
1060.445529 0.7499 0.7159 0.6830 0.6499 0.4331
1066.997564 0.3761 0.3181 0.2352 0.1693 0.1421
1073.549598 0.1130 0.1010 0.0990 0.0970 0.2209
1080.101633 0.2560 0.2660 0.1613 0.1032 0.0990
1086.653668 0.1014 0.2451 0.3182 0.4480 0.5370
1093.205702 0.6189 0.7447 0.7779 0.7780 0.7292
1099.757737 0.6809 0.6338 0.5280 0.4890 0.4250
1106.309771 0.4809 0.4850 0.4232 0.3901 0.3571
1112.861806 0.3532 0.4314 0.6398 0.4600 0.4230
1119.413841 0.4230 0.4619 0.4969 0.5817 0.7154
1125.965875 0.7931 0.8401 0.8960 0.9170 0.9350
1132.517910 0.9480 0.9580 0.9620 0.9730 0.9810
1139.069944 0.9810 0.9810 0.9830 0.9830 0.9830
1145.621979 0.9850 0.9850 0.9850 0.9850 0.9850
1152.174014 0.9850 0.9850 0.9850 0.9850 0.9870
1158.726048 0.9870 0.9870 0.9870 0.9870 0.9850
1165.278083 0.9850 0.9850 0.9850 0.9850 0.9850
1171.830117 0.9850 0.9850 0.9850 0.9850 0.9870
1178.382152 0.9850 0.9850 0.9850 0.9850 0.9850
1184.934187 0.9850 0.9850 0.9850 0.9850 0.9850
1191.486221 0.9850 0.9850 0.9850 0.9870 0.9870
1198.038256 0.9870 0.9870 0.9870 0.9870 0.9850
1204.590290 0.9850 0.9850 0.9870 0.9890 0.9890
1211.142325 0.9910 0.9930 0.9930 0.9930 0.9930
1217.694360 0.9910 0.9910 0.9910 0.9890 0.9890
1224.246394 0.9890 0.9910 0.9950 0.9950 0.9970
1230.798429 0.9970 0.9970 0.9970 1.0000 1.0000
1237.350463 1.0000 1.0000 0.9970 0.9970 0.9970
1243.902498 0.9970 0.9970 0.9930 0.9910 0.9910
1250.454533 0.9910 0.9930 0.9930 0.9950 0.9950
1257.006567 0.9950 0.9950 0.9950 0.9950 0.9950
1263.558602 0.9910 0.9910 0.9890 0.9890 0.9890
1270.110636 0.9890 0.9870 0.9830 0.9830 0.9810
1276.662671 0.9730 0.9620 0.9600 0.9560 0.9480
1283.214706 0.9400 0.9400 0.9330 0.9270 0.9230
1289.766740 0.9170 0.9130 0.9110 0.9110 0.9090
1296.318775 0.9090 0.9170 0.9210 0.9290 0.9290
1302.870809 0.9270 0.9210 0.9210 0.9399 0.9500
1309.422844 0.9600 0.9620 0.9710 0.9750 0.9770
1315.974879 0.9830 0.9850 0.9850 0.9910 0.9950
1322.526913 0.9950 0.9950 0.9950 0.9970 0.9970
1329.078948 0.9970 0.9970 1.0000 1.0000 1.0000
1335.630982 1.0000 1.0000 1.0000 1.0000 1.0000
1342.183017 1.0000 1.0000 0.9970 0.9970 0.9970
1348.735052 0.9950 0.9950 0.9970 0.9970 0.9950
1355.287086 0.9910 0.9910 0.9910 0.9890 0.9870
1361.839121 0.9850 0.9850 0.9830 0.9810 0.9810
1368.391156 0.9810 0.9830 0.9830 0.9830 0.9830
1374.943190 0.9830 0.9810 0.9810 0.9810 0.9810
1381.495225 0.9810 0.9810 0.9810 0.9830 0.9830
1388.047259 0.9830 0.9830 0.9830 0.9830 0.9830
1394.599294 0.9830 0.9830 0.9850 0.9850 0.9870
1401.151329 0.9870 0.9870 0.9870 0.9870 0.9890
1407.703363 0.9890 0.9910 0.9910 0.9910 0.9910
1414.255398 0.9910 0.9910 0.9910 0.9910 0.9910
1420.807432 0.9890 0.9890 0.9910 0.9910 0.9910
1427.359467 0.9910 0.9910 0.9910 0.9910 0.9910
1433.911502 0.9910 0.9910 0.9910 0.9910 0.9930
1440.463536 0.9930 0.9930 0.9930 0.9930 0.9930
1447.015571 0.9930 0.9930 0.9930 0.9930 0.9930
1453.567605 0.9930 0.9930 0.9930 0.9890 0.9890
1460.119640 0.9890 0.9890 0.9890 0.9890 0.9890
1466.671675 0.9870 0.9870 0.9890 0.9890 0.9870
1473.223709 0.9830 0.9810 0.9750 0.9640 0.9600
1479.775744 0.9600 0.9600 0.9600 0.9580 0.9580
1486.327778 0.9580 0.9580 0.9580 0.9600 0.9640
1492.879813 0.9690 0.9640 0.9620 0.9600 0.9580
1499.431848 0.9580 0.9560 0.9400 0.9350 0.9290
1505.983882 0.9250 0.9190 0.9190 0.9190 0.9190
1512.535917 0.9190 0.9190 0.9190 0.9190 0.9190
1519.087951 0.9190 0.9190 0.9190 0.9210 0.9230
1525.639986 0.9290 0.9350 0.9500 0.9580 0.9600
1532.192021 0.9620 0.9640 0.9640 0.9640 0.9660
1538.744055 0.9660 0.9660 0.9660 0.9660 0.9730
1545.296090 0.9770 0.9790 0.9790 0.9750 0.9730
1551.848124 0.9730 0.9790 0.9790 0.9790 0.9790
1558.400159 0.9770 0.9770 0.9790 0.9790 0.9750
1564.952194 0.9750 0.9730 0.9620 0.9580 0.9580
1571.504228 0.9460 0.9349 0.9170 0.9130 0.8960
1578.056263 0.8860 0.8730 0.8610 0.8181 0.7124
1584.608297 0.7020 0.6899 0.6669 0.6440 0.6209
1591.160332 0.5470 0.4661 0.3861 0.3730 0.3571
1597.712367 0.3359 0.3139 0.2909 0.2450 0.2430
1604.264401 0.2430 0.2580 0.2760 0.2830 0.2930
1610.816436 0.2908 0.2329 0.2020 0.2000 0.2020
1617.368470 0.2450 0.2890 0.3319 0.4457 0.4909
1623.920505 0.5782 0.6281 0.6571 0.7080 0.7230
1630.472540 0.7410 0.7780 0.8219 0.8320 0.8420
1637.024574 0.8531 0.8860 0.8940 0.9040 0.9130
1643.576609 0.9170 0.9250 0.9270 0.9310 0.9380
1650.128643 0.9380 0.9440 0.9480 0.9520 0.9580
1656.680678 0.9580 0.9620 0.9710 0.9730 0.9750
1663.232713 0.9750 0.9770 0.9790 0.9790 0.9810
1669.784747 0.9790 0.9790 0.9790 0.9790 0.9810
1676.336782 0.9830 0.9830 0.9830 0.9830 0.9830
1682.888816 0.9830 0.9810 0.9810 0.9810 0.9830
1689.440851 0.9830 0.9830 0.9830 0.9850 0.9850
1695.992886 0.9830 0.9810 0.9810 0.9810 0.9810
1702.544920 0.9810 0.9830 0.9830 0.9830 0.9830
1709.096955 0.9830 0.9830 0.9830 0.9830 0.9810
1715.648989 0.9810 0.9790 0.9790 0.9790 0.9790
1722.201024 0.9790 0.9790 0.9790 0.9790 0.9790
1728.753059 0.9770 0.9750 0.9730 0.9690 0.9620
1735.305093 0.9600 0.9600 0.9580 0.9560 0.9540
1741.857128 0.9440 0.9400 0.9350 0.9330 0.9230
1748.409162 0.9210 0.9230 0.9270 0.9330 0.9460
1754.961197 0.9499 0.9270 0.9250 0.9250 0.9230
1761.513232 0.9230 0.9250 0.9400 0.9420 0.9480
1768.065266 0.9520 0.9560 0.9580 0.9640 0.9690
1774.617301 0.9730 0.9770 0.9770 0.9790 0.9790
1781.169335 0.9790 0.9810 0.9830 0.9830 0.9830
1787.721370 0.9830 0.9830 0.9810 0.9810 0.9810
1794.273405 0.9830 0.9810 0.9810 0.9810 0.9810
1800.825439 0.9810 0.9810 0.9810 0.9810 0.9810
1807.377474 0.9810 0.9810 0.9810 0.9790 0.9790
1813.929508 0.9790 0.9770 0.9770 0.9770 0.9770
1820.481543 0.9770 0.9770 0.9750 0.9750 0.9770
1827.033578 0.9770 0.9770 0.9770 0.9790 0.9790
1833.585612 0.9790 0.9790 0.9770 0.9770 0.9750
1840.137647 0.9750 0.9750 0.9770 0.9770 0.9790
1846.689681 0.9790 0.9810 0.9810 0.9810 0.9830
1853.241716 0.9830 0.9830 0.9830 0.9830 0.9830
1859.793751 0.9830 0.9830 0.9850 0.9850 0.9830
1866.345785 0.9830 0.9850 0.9830 0.9830 0.9830
1872.897820 0.9830 0.9830 0.9850 0.9870 0.9870
1879.449854 0.9850 0.9830 0.9830 0.9850 0.9870
1886.001889 0.9870 0.9870 0.9870 0.9870 0.9870
1892.553924 0.9870 0.9870 0.9870 0.9870 0.9870
1899.105958 0.9890 0.9890 0.9890 0.9890 0.9890
1905.657993 0.9890 0.9870 0.9870 0.9870 0.9870
1912.210027 0.9890 0.9890 0.9890 0.9870 0.9870
1918.762062 0.9870 0.9870 0.9870 0.9890 0.9870
1925.314097 0.9870 0.9870 0.9870 0.9870 0.9850
1931.866131 0.9830 0.9830 0.9830 0.9830 0.9830
1938.418166 0.9830 0.9830 0.9810 0.9830 0.9830
1944.970200 0.9830 0.9830 0.9810 0.9810 0.9830
1951.522235 0.9830 0.9830 0.9830 0.9830 0.9830
1958.074270 0.9830 0.9810 0.9810 0.9810 0.9810
1964.626304 0.9810 0.9810 0.9810 0.9810 0.9810
1971.178339 0.9810 0.9830 0.9830 0.9830 0.9810
1977.730373 0.9810 0.9810 0.9810 0.9810 0.9810
1984.282408 0.9810 0.9810 0.9810 0.9810 0.9810
1990.834443 0.9810 0.9810 0.9810 0.9790 0.9790
1997.386477 0.9790 0.9770 0.9770 0.9770 0.9770
2003.938512 0.9800 0.9830 0.9860 0.9890 0.9890
2010.490546 0.9890 0.9861 0.9831 0.9830 0.9830
2017.042581 0.9830 0.9830 0.9830 0.9830 0.9849
2023.594616 0.9869 0.9880 0.9890 0.9890 0.9890
2030.146650 0.9890 0.9890 0.9890 0.9890 0.9890
2036.698685 0.9890 0.9900 0.9910 0.9900 0.9890
2043.250719 0.9899 0.9909 0.9910 0.9910 0.9910
2049.802754 0.9910 0.9910 0.9910 0.9910 0.9910
2056.354789 0.9910 0.9910 0.9910 0.9910 0.9910
2062.906823 0.9910 0.9910 0.9910 0.9919 0.9929
2069.458858 0.9921 0.9911 0.9910 0.9910 0.9910
2076.010892 0.9910 0.9910 0.9910 0.9919 0.9929
2082.562927 0.9930 0.9930 0.9921 0.9911 0.9910
2089.114962 0.9910 0.9910 0.9910 0.9910 0.9910
2095.666996 0.9910 0.9910 0.9910 0.9910 0.9910
2102.219031 0.9910 0.9910 0.9910 0.9910 0.9910
2108.771065 0.9919 0.9929 0.9930 0.9930 0.9930
2115.323100 0.9930 0.9930 0.9930 0.9930 0.9930
2121.875135 0.9921 0.9911 0.9910 0.9910 0.9910
2128.427169 0.9910 0.9910 0.9910 0.9910 0.9910
2134.979204 0.9910 0.9910 0.9910 0.9910 0.9901
2141.531238 0.9891 0.9890 0.9890 0.9890 0.9890
2148.083273 0.9899 0.9909 0.9910 0.9910 0.9910
2154.635308 0.9910 0.9910 0.9910 0.9910 0.9910
2161.187342 0.9910 0.9910 0.9910 0.9910 0.9910
2167.739377 0.9910 0.9910 0.9910 0.9910 0.9910
2174.291411 0.9910 0.9910 0.9910 0.9910 0.9910
2180.843446 0.9910 0.9910 0.9910 0.9918 0.9928
2187.395481 0.9922 0.9912 0.9910 0.9910 0.9910
2193.947515 0.9910 0.9918 0.9928 0.9930 0.9930
2200.499550 0.9922 0.9912 0.9910 0.9910 0.9910
2207.051584 0.9910 0.9910 0.9910 0.9910 0.9910
2213.603619 0.9910 0.9910 0.9910 0.9910 0.9910
2220.155654 0.9910 0.9910 0.9910 0.9910 0.9910
2226.707688 0.9910 0.9910 0.9910 0.9910 0.9902
2233.259723 0.9892 0.9890 0.9890 0.9890 0.9890
2239.811757 0.9890 0.9890 0.9890 0.9890 0.9898
2246.363792 0.9908 0.9910 0.9910 0.9910 0.9910
2252.915827 0.9910 0.9910 0.9902 0.9892 0.9890
2259.467861 0.9890 0.9890 0.9890 0.9890 0.9890
2266.019896 0.9890 0.9890 0.9890 0.9890 0.9890
2272.571930 0.9890 0.9890 0.9890 0.9890 0.9890
2279.123965 0.9890 0.9890 0.9890 0.9890 0.9890
2285.676000 0.9890 0.9890 0.9890 0.9890 0.9890
2292.228034 0.9890 0.9890 0.9890 0.9890 0.9897
2298.780069 0.9907 0.9910 0.9910 0.9910 0.9910
2305.332103 0.9910 0.9910 0.9917 0.9927 0.9930
2311.884138 0.9930 0.9930 0.9930 0.9930 0.9930
2318.436173 0.9930 0.9930 0.9930 0.9930 0.9930
2324.988207 0.9930 0.9930 0.9930 0.9930 0.9930
2331.540242 0.9930 0.9930 0.9937 0.9947 0.9957
2338.092276 0.9967 0.9970 0.9970 0.9970 0.9970
2344.644311 0.9970 0.9970 0.9963 0.9953 0.9943
2351.196346 0.9933 0.9930 0.9930 0.9930 0.9930
2357.748380 0.9930 0.9930 0.9930 0.9930 0.9923
2364.300415 0.9913 0.9917 0.9927 0.9923 0.9913
2370.852449 0.9903 0.9893 0.9890 0.9890 0.9877
2377.404484 0.9857 0.9850 0.9850 0.9844 0.9834
2383.956519 0.9830 0.9830 0.9830 0.9830 0.9830
2390.508553 0.9830 0.9836 0.9846 0.9850 0.9850
2397.060588 0.9850 0.9850 0.9850 0.9850 0.9856
2403.612622 0.9866 0.9870 0.9870 0.9870 0.9870
2410.164657 0.9870 0.9870 0.9870 0.9870 0.9870
2416.716692 0.9870 0.9870 0.9870 0.9864 0.9854
2423.268726 0.9850 0.9850 0.9850 0.9850 0.9850
2429.820761 0.9850 0.9844 0.9834 0.9830 0.9830
2436.372795 0.9830 0.9830 0.9830 0.9830 0.9830
2442.924830 0.9830 0.9830 0.9830 0.9830 0.9830
2449.476865 0.9824 0.9814 0.9810 0.9810 0.9810
2456.028899 0.9810 0.9810 0.9810 0.9810 0.9810
2462.580934 0.9810 0.9810 0.9810 0.9810 0.9810
2469.132968 0.9810 0.9810 0.9810 0.9810 0.9810
2475.685003 0.9810 0.9810 0.9810 0.9810 0.9810
2482.237038 0.9810 0.9810 0.9810 0.9810 0.9810
2488.789072 0.9810 0.9810 0.9810 0.9810 0.9810
2495.341107 0.9810 0.9810 0.9810 0.9810 0.9810
2501.893141 0.9810 0.9810 0.9810 0.9810 0.9810
2508.445176 0.9810 0.9810 0.9810 0.9810 0.9810
2514.997211 0.9810 0.9810 0.9810 0.9810 0.9810
2521.549245 0.9810 0.9810 0.9810 0.9810 0.9810
2528.101280 0.9810 0.9810 0.9810 0.9810 0.9810
2534.653314 0.9810 0.9810 0.9810 0.9805 0.9795
2541.205349 0.9790 0.9790 0.9790 0.9790 0.9785
2547.757384 0.9775 0.9770 0.9770 0.9770 0.9770
2554.309418 0.9770 0.9770 0.9770 0.9770 0.9770
2560.861453 0.9770 0.9770 0.9770 0.9770 0.9770
2567.413487 0.9770 0.9770 0.9770 0.9770 0.9770
2573.965522 0.9770 0.9770 0.9770 0.9770 0.9770
2580.517557 0.9770 0.9770 0.9770 0.9770 0.9765
2587.069591 0.9755 0.9750 0.9750 0.9755 0.9765
2593.621626 0.9770 0.9770 0.9766 0.9756 0.9750
2600.173660 0.9750 0.9750 0.9750 0.9750 0.9750
2606.725695 0.9750 0.9750 0.9755 0.9764 0.9770
2613.277730 0.9770 0.9770 0.9770 0.9770 0.9770
2619.829764 0.9770 0.9770 0.9757 0.9727 0.9710
2626.381799 0.9710 0.9710 0.9710 0.9710 0.9710
2632.933833 0.9710 0.9710 0.9710 0.9710 0.9714
2639.485868 0.9724 0.9730 0.9730 0.9734 0.9744
2646.037903 0.9750 0.9750 0.9746 0.9736 0.9730
2652.589937 0.9730 0.9726 0.9716 0.9710 0.9710
2659.141972 0.9710 0.9710 0.9706 0.9696 0.9690
2665.694006 0.9690 0.9690 0.9690 0.9684 0.9669
2672.246041 0.9660 0.9660 0.9660 0.9660 0.9660
2678.798076 0.9660 0.9660 0.9660 0.9660 0.9660
2685.350110 0.9660 0.9660 0.9660 0.9660 0.9660
2691.902145 0.9660 0.9660 0.9660 0.9660 0.9660
2698.454179 0.9660 0.9660 0.9660 0.9660 0.9660
2705.006214 0.9660 0.9660 0.9660 0.9660 0.9660
2711.558249 0.9660 0.9660 0.9660 0.9660 0.9660
2718.110283 0.9660 0.9660 0.9660 0.9665 0.9680
2724.662318 0.9690 0.9690 0.9690 0.9690 0.9690
2731.214352 0.9690 0.9690 0.9690 0.9685 0.9670
2737.766387 0.9660 0.9660 0.9660 0.9660 0.9660
2744.318422 0.9660 0.9660 0.9660 0.9660 0.9660
2750.870456 0.9657 0.9647 0.9640 0.9640 0.9640
2757.422491 0.9640 0.9640 0.9640 0.9640 0.9640
2763.974525 0.9640 0.9640 0.9640 0.9640 0.9640
2770.526560 0.9640 0.9640 0.9640 0.9640 0.9640
2777.078595 0.9640 0.9640 0.9640 0.9640 0.9640
2783.630629 0.9640 0.9640 0.9640 0.9640 0.9640
2790.182664 0.9640 0.9640 0.9640 0.9640 0.9640
2796.734698 0.9640 0.9640 0.9640 0.9637 0.9627
2803.286733 0.9620 0.9620 0.9620 0.9620 0.9620
2809.838768 0.9620 0.9620 0.9620 0.9620 0.9620
2816.390802 0.9620 0.9620 0.9617 0.9607 0.9600
2822.942837 0.9600 0.9600 0.9600 0.9600 0.9600
2829.494871 0.9600 0.9600 0.9600 0.9600 0.9600
2836.046906 0.9600 0.9600 0.9600 0.9597 0.9588
2842.598941 0.9578 0.9568 0.9560 0.9560 0.9560
2849.150975 0.9560 0.9558 0.9548 0.9540 0.9540
2855.703010 0.9540 0.9540 0.9540 0.9540 0.9540
2862.255044 0.9540 0.9540 0.9540 0.9542 0.9552
2868.807079 0.9560 0.9560 0.9558 0.9548 0.9540
2875.359114 0.9540 0.9540 0.9540 0.9540 0.9540
2881.911148 0.9540 0.9540 0.9540 0.9540 0.9540
2888.463183 0.9540 0.9540 0.9540 0.9540 0.9540
2895.015217 0.9540 0.9540 0.9538 0.9528 0.9520
2901.567252 0.9520 0.9520 0.9520 0.9520 0.9520
2908.119287 0.9520 0.9520 0.9518 0.9508 0.9498
2914.671321 0.9488 0.9480 0.9480 0.9478 0.9468
2921.223356 0.9458 0.9448 0.9440 0.9440 0.9442
2927.775390 0.9452 0.9460 0.9460 0.9460 0.9460
2934.327425 0.9461 0.9471 0.9481 0.9491 0.9500
2940.879460 0.9500 0.9499 0.9489 0.9480 0.9480
2947.431494 0.9480 0.9480 0.9479 0.9469 0.9460
2953.983529 0.9460 0.9460 0.9460 0.9460 0.9460
2960.535563 0.9460 0.9460 0.9460 0.9460 0.9460
2967.087598 0.9460 0.9460 0.9460 0.9460 0.9460
2973.639633 0.9460 0.9460 0.9460 0.9460 0.9459
2980.191667 0.9449 0.9440 0.9440 0.9440 0.9440
2986.743702 0.9440 0.9440 0.9441 0.9451 0.9460
2993.295736 0.9460 0.9460 0.9460 0.9461 0.9471
2999.847771 0.9480 0.9480 0.9480 0.9480 0.9480
3006.399806 0.9480 0.9479 0.9469 0.9460 0.9460
3012.951840 0.9460 0.9460 0.9460 0.9460 0.9459
3019.503875 0.9449 0.9440 0.9440 0.9440 0.9440
3026.055909 0.9440 0.9440 0.9440 0.9440 0.9440
3032.607944 0.9440 0.9439 0.9429 0.9420 0.9420
3039.159979 0.9420 0.9420 0.9420 0.9420 0.9420
3045.712013 0.9420 0.9420 0.9420 0.9420 0.9420
3052.264048 0.9421 0.9431 0.9439 0.9430 0.9420
3058.816082 0.9420 0.9420 0.9420 0.9420 0.9420
3065.368117 0.9420 0.9430 0.9440 0.9440 0.9440
3071.920152 0.9430 0.9420 0.9420 0.9420 0.9410
3078.472186 0.9400 0.9400 0.9400 0.9390 0.9380
3085.024221 0.9380 0.9380 0.9380 0.9380 0.9380
3091.576255 0.9380 0.9380 0.9380 0.9390 0.9400
3098.128290 0.9400 0.9400 0.9390 0.9380 0.9365
3104.680325 0.9350 0.9350 0.9350 0.9350 0.9350
3111.232359 0.9340 0.9330 0.9330 0.9330 0.9330
3117.784394 0.9330 0.9330 0.9330 0.9330 0.9330
3124.336428 0.9330 0.9330 0.9330 0.9330 0.9330
3130.888463 0.9330 0.9320 0.9310 0.9310 0.9310
3137.440498 0.9310 0.9310 0.9310 0.9310 0.9300
3143.992532 0.9290 0.9290 0.9290 0.9290 0.9290
3150.544567 0.9299 0.9309 0.9310 0.9310 0.9320
3157.096601 0.9330 0.9330 0.9330 0.9320 0.9310
3163.648636 0.9310 0.9310 0.9310 0.9310 0.9301
3170.200671 0.9291 0.9281 0.9271 0.9261 0.9251
3176.752705 0.9250 0.9250 0.9241 0.9231 0.9230
3183.304740 0.9230 0.9230 0.9230 0.9221 0.9211
3189.856774 0.9201 0.9191 0.9172 0.9152 0.9150
3196.408809 0.9150 0.9141 0.9131 0.9121 0.9111
3202.960844 0.9092 0.9072 0.9047 0.9022 0.9011
3209.512878 0.9001 0.9000 0.9000 0.9000 0.9000
3216.064913 0.9000 0.9000 0.9009 0.9019 0.9029
3222.616947 0.9039 0.9040 0.9040 0.9053 0.9068
3229.168982 0.9070 0.9070 0.9057 0.9042 0.9040
3235.721017 0.9040 0.9031 0.9021 0.9020 0.9020
3242.273051 0.9020 0.9020 0.9029 0.9039 0.9040
3248.825086 0.9040 0.9040 0.9040 0.9040 0.9040
3255.377120 0.9053 0.9068 0.9070 0.9070 0.9057
3261.929155 0.9042 0.9040 0.9040 0.9040 0.9040
3268.481190 0.9040 0.9040 0.9032 0.9022 0.9020
3275.033224 0.9020 0.9012 0.9002 0.8992 0.8982
3281.585259 0.8980 0.8980 0.8980 0.8980 0.8972
3288.137293 0.8962 0.8960 0.8960 0.8960 0.8960
3294.689328 0.8952 0.8942 0.8932 0.8922 0.8920
3301.241363 0.8920 0.8912 0.8902 0.8900 0.8900
3307.793397 0.8892 0.8882 0.8880 0.8880 0.8872
3314.345432 0.8862 0.8844 0.8824 0.8812 0.8802
3320.897467 0.8792 0.8782 0.8772 0.8762 0.8748
3327.449501 0.8733 0.8722 0.8712 0.8710 0.8710
3334.001536 0.8710 0.8710 0.8702 0.8692 0.8682
3340.553570 0.8672 0.8662 0.8652 0.8642 0.8632
3347.105605 0.8606 0.8577 0.8562 0.8552 0.8542
3353.657640 0.8532 0.8515 0.8495 0.8490 0.8490
3360.209674 0.8463 0.8429 0.8412 0.8402 0.8377
3366.761709 0.8347 0.8332 0.8322 0.8312 0.8302
3373.313743 0.8292 0.8282 0.8257 0.8227 0.8213
3379.865778 0.8203 0.8193 0.8183 0.8165 0.8145
3386.417813 0.8140 0.8140 0.8129 0.8114 0.8102
3392.969847 0.8093 0.8075 0.8055 0.8050 0.8050
3399.521882 0.8043 0.8033 0.8023 0.8013 0.8003
3406.073916 0.7993 0.7990 0.7990 0.7990 0.7990
3412.625951 0.7990 0.7990 0.7990 0.7990 0.7997
3419.177986 0.8007 0.8017 0.8027 0.8037 0.8047
3425.730020 0.8057 0.8067 0.8077 0.8087 0.8097
3432.282055 0.8107 0.8120 0.8135 0.8147 0.8157
3438.834089 0.8167 0.8177 0.8194 0.8214 0.8227
3445.386124 0.8237 0.8254 0.8274 0.8287 0.8297
3451.938159 0.8307 0.8317 0.8327 0.8337 0.8340
3458.490193 0.8340 0.8347 0.8357 0.8367 0.8377
3465.042228 0.8387 0.8397 0.8400 0.8400 0.8424
3471.594262 0.8459 0.8477 0.8487 0.8497 0.8507
3478.146297 0.8523 0.8543 0.8550 0.8550 0.8563
3484.698332 0.8583 0.8597 0.8606 0.8629 0.8659
3491.250366 0.8676 0.8686 0.8690 0.8690 0.8697
3497.802401 0.8707 0.8710 0.8710 0.8716 0.8726
3504.354435 0.8730 0.8730 0.8740 0.8755 0.8766
3510.906470 0.8776 0.8786 0.8796 0.8800 0.8800
3517.458505 0.8806 0.8816 0.8832 0.8853 0.8860
3524.010539 0.8860 0.8866 0.8876 0.8880 0.8880
3530.562574 0.8880 0.8880 0.8880 0.8880 0.8886
3537.114608 0.8896 0.8900 0.8900 0.8900 0.8900
3543.666643 0.8900 0.8900 0.8906 0.8916 0.8920
3550.218678 0.8920 0.8920 0.8920 0.8920 0.8920
3556.770712 0.8926 0.8936 0.8940 0.8940 0.8940
3563.322747 0.8940 0.8940 0.8940 0.8946 0.8956
3569.874781 0.8960 0.8960 0.8960 0.8960 0.8960
3576.426816 0.8960 0.8960 0.8960 0.8960 0.8960
3582.978851 0.8960 0.8960 0.8960 0.8960 0.8960
3589.530885 0.8960 0.8960 0.8960 0.8960 0.8960
3596.082920 0.8960 0.8960 0.8960 0.8960 0.8960
3602.634954 0.8960 0.8960 0.8960 0.8960 0.8960
3609.186989 0.8960 0.8960 0.8960 0.8960 0.8960
3615.739024 0.8960 0.8960 0.8960 0.8960 0.8960
3622.291058 0.8960 0.8960 0.8955 0.8945 0.8940
3628.843093 0.8940 0.8940 0.8940 0.8940 0.8940
3635.395127 0.8940 0.8940 0.8940 0.8940 0.8935
3641.947162 0.8925 0.8920 0.8920 0.8920 0.8920
3648.499197 0.8920 0.8920 0.8920 0.8920 0.8920
3655.051231 0.8920 0.8920 0.8920 0.8920 0.8920
3661.603266 0.8920 0.8920 0.8915 0.8905 0.8900
3668.155300 0.8900 0.8900 0.8900 0.8900 0.8900
3674.707335 0.8900 0.8900 0.8905 0.8915 0.8925
3681.259370 0.8935 0.8935 0.8925 0.8920 0.8920
3687.811404 0.8920 0.8920 0.8920 0.8920 0.8920
3694.363439 0.8920 0.8920 0.8920 0.8920 0.8920
3700.915473 0.8920 0.8920 0.8920 0.8920 0.8920
3707.467508 0.8920 0.8920 0.8920 0.8915 0.8905
3714.019543 0.8900 0.8900 0.8900 0.8900 0.8900
3720.571577 0.8900 0.8900 0.8900 0.8900 0.8900
3727.123612 0.8900 0.8900 0.8900 0.8900 0.8900
3733.675646 0.8900 0.8900 0.8900 0.8900 0.8900
3740.227681 0.8900 0.8900 0.8900 0.8900 0.8900
3746.779716 0.8900 0.8900 0.8900 0.8900 0.8900
3753.331750 0.8900 0.8900 0.8900 0.8900 0.8900
3759.883785 0.8900 0.8900 0.8900 0.8900 0.8900
3766.435819 0.8900 0.8900 0.8900 0.8900 0.8900
3772.987854 0.8900 0.8900 0.8900 0.8896 0.8886
3779.539889 0.8880 0.8880 0.8880 0.8880 0.8876
3786.091923 0.8866 0.8860 0.8860 0.8860 0.8860
3792.643958 0.8860 0.8860
##END=
