##TITLE=CYCLOPROPANEMETHANOL
##JCAMP-DX=4.24
##DATA TYPE=INFRARED SPECTRUM
##CLASS=COBLENTZ III
##ORIGIN=DOW CORNING CORP.
##OWNER=COBLENTZ SOCIETY
Collection (C) 2018 copyright by the U.S. Secretary of Commerce
on behalf of the United States of America. All rights reserved.
##DATE=1966/06/02
##NAMES=cyclopropylmethanol
##CAS REGISTRY NO=2516-33-8
##MOLFORM=C4 H8 O
##SOURCE REFERENCE=COBLENTZ NO. 4812
##$NIST SOURCE=COBLENTZ
##$NIST IMAGE=cob4812
##SPECTROMETER/DATA SYSTEM=PERKIN-ELMER 521 (GRATING)
##INSTRUMENT PARAMETERS=FILTERS AT 3150, 2500, 2000, 1150, 700, 410; GRATING CHANGES AT 2000, 630 CM^-^1
##STATE=SOLUTION (10% IN CCl4 FOR 3800-1300, 10% IN CS2 FOR 1300-620, 10% IN CCl4 FOR 620-250 CM^-^1) VERSUS SOLVENT
##PATH LENGTH=0.011, 0.011, AND 0.010 CM (CsBr CELL)
##SAMPLING PROCEDURE=TRANSMISSION
##RESOLUTION=4
##DATA PROCESSING=DIGITIZED BY NIST FROM HARD COPY (FROM TWO SEGMENTS)
##XUNITS=1/CM
##YUNITS=TRANSMITTANCE
##XFACTOR=1.000000
##YFACTOR=1
##DELTAX=0.983070
##FIRSTX=248.17
##LASTX=3791.16
##FIRSTY=0.524
##MAXX=3791.16
##MINX=248.17
##MAXY=0.89
##MINY=0
##NPOINTS=3605
##XYDATA=(X++(Y..Y))
248.170000 0.5240 0.5240 0.5250 0.5250 0.5260
253.085351 0.5260 0.5260 0.5260 0.5280 0.5290
258.000703 0.5330 0.5380 0.5420 0.5460 0.5460
262.916054 0.5480 0.5490 0.5500 0.5500 0.5500
267.831406 0.5520 0.5520 0.5540 0.5540 0.5540
272.746757 0.5560 0.5560 0.5570 0.5570 0.5580
277.662108 0.5580 0.5600 0.5600 0.5610 0.5610
282.577460 0.5620 0.5640 0.5640 0.5650 0.5660
287.492811 0.5660 0.5660 0.5680 0.5700 0.5730
292.408163 0.5800 0.5820 0.5860 0.5880 0.5900
297.323514 0.5930 0.5940 0.5980 0.6010 0.6050
302.238866 0.6090 0.6130 0.6140 0.6160 0.6170
307.154217 0.6200 0.6210 0.6240 0.6240 0.6250
312.069568 0.6270 0.6280 0.6280 0.6290 0.6290
316.984920 0.6310 0.6320 0.6320 0.6330 0.6330
321.900271 0.6350 0.6360 0.6360 0.6400 0.6400
326.815623 0.6400 0.6410 0.6410 0.6430 0.6430
331.730974 0.6430 0.6440 0.6440 0.6450 0.6450
336.646325 0.6450 0.6470 0.6470 0.6470 0.6480
341.561677 0.6490 0.6490 0.6510 0.6510 0.6510
346.477028 0.6490 0.6490 0.6480 0.6480 0.6480
351.392380 0.6480 0.6470 0.6450 0.6440 0.6430
356.307731 0.6410 0.6400 0.6390 0.6370 0.6370
361.223082 0.6360 0.6360 0.6360 0.6370 0.6400
366.138434 0.6430 0.6480 0.6510 0.6530 0.6570
371.053785 0.6600 0.6630 0.6640 0.6650 0.6680
375.969137 0.6710 0.6710 0.6720 0.6730 0.6750
380.884488 0.6750 0.6760 0.6790 0.6830 0.6850
385.799839 0.6880 0.6880 0.6890 0.6890 0.6910
390.715191 0.6910 0.6910 0.6910 0.6910 0.6910
395.630542 0.6890 0.6890 0.6890 0.6890 0.6890
400.545894 0.6880 0.6880 0.6880 0.6880 0.6870
405.461245 0.6850 0.6850 0.6850 0.6850 0.6840
410.376597 0.6840 0.6840 0.6830 0.6830 0.6830
415.291948 0.6810 0.6810 0.6810 0.6800 0.6800
420.207299 0.6800 0.6800 0.6800 0.6790 0.6790
425.122651 0.6770 0.6770 0.6760 0.6760 0.6750
430.038002 0.6750 0.6730 0.6720 0.6690 0.6680
434.953354 0.6650 0.6640 0.6640 0.6630 0.6630
439.868705 0.6610 0.6600 0.6590 0.6570 0.6570
444.784056 0.6560 0.6550 0.6530 0.6520 0.6510
449.699408 0.6490 0.6470 0.6450 0.6430 0.6410
454.614759 0.6400 0.6370 0.6360 0.6350 0.6320
459.530111 0.6310 0.6250 0.6180 0.6170 0.6160
464.445462 0.6120 0.6060 0.6040 0.6000 0.5970
469.360813 0.5920 0.5781 0.5700 0.5411 0.5370
474.276165 0.5280 0.5210 0.5130 0.5060 0.5000
479.191516 0.4910 0.4900 0.4910 0.4930 0.4970
484.106868 0.5010 0.5020 0.5100 0.5170 0.5220
489.022219 0.5290 0.5360 0.5440 0.5480 0.5500
493.937571 0.5580 0.5620 0.5650 0.5700 0.5720
498.852922 0.5770 0.5800 0.5840 0.5860 0.5900
503.768273 0.5920 0.5930 0.5940 0.5960 0.5970
508.683625 0.5970 0.5980 0.5980 0.5970 0.5970
513.598976 0.5960 0.5960 0.5940 0.5930 0.5920
518.514328 0.5900 0.5890 0.5880 0.5880 0.5860
523.429679 0.5860 0.5850 0.5840 0.5840 0.5820
528.345030 0.5810 0.5810 0.5800 0.5780 0.5780
533.260382 0.5780 0.5770 0.5760 0.5740 0.5730
538.175733 0.5730 0.5720 0.5720 0.5700 0.5690
543.091085 0.5680 0.5660 0.5660 0.5650 0.5650
548.006436 0.5640 0.5640 0.5610 0.5600 0.5570
552.921787 0.5560 0.5540 0.5520 0.5480 0.5450
557.837139 0.5440 0.5420 0.5400 0.5370 0.5340
562.752490 0.5340 0.5330 0.5330 0.5320 0.5320
567.667842 0.5320 0.5330 0.5340 0.5340 0.5360
572.583193 0.5360 0.5360 0.5360 0.5360 0.5340
577.498544 0.5340 0.5330 0.5320 0.5320 0.5300
582.413896 0.5300 0.5290 0.5290 0.5290 0.5280
587.329247 0.5280 0.5280 0.5260 0.5260 0.5250
592.244599 0.5250 0.5250 0.5240 0.5240 0.5240
597.159950 0.5220 0.5220 0.5210 0.5210 0.5210
602.075302 0.5200 0.5200 0.5200 0.5180 0.5180
606.990653 0.5180 0.5170 0.5170 0.5170 0.5170
611.906004 0.5170 0.5160 0.5160 0.5160 0.5160
616.821356 0.5160 0.5160 0.5160 0.5170 0.5170
621.736707 0.5170 0.5170 0.5180 0.5180 0.5180
626.652059 0.5180 0.5200 0.5200 0.5200 0.5210
631.567410 0.5220 0.5240 0.5250 0.5250 0.5250
636.482761 0.5260 0.5280 0.5280 0.5290 0.5300
641.398113 0.5320 0.5330 0.5330 0.5340 0.5360
646.313464 0.5370 0.5370 0.5380 0.5400 0.5410
651.228816 0.5420 0.5440 0.5450 0.5450 0.5480
656.144167 0.5490 0.5500 0.5500 0.5530 0.5560
661.059518 0.5570 0.5580 0.5580 0.5600 0.5610
665.974870 0.5610 0.5620 0.5620 0.5640 0.5640
670.890221 0.5640 0.5650 0.5650 0.5660 0.5700
675.805573 0.5740 0.5740 0.5770 0.5780 0.5780
680.720924 0.5810 0.5820 0.5820 0.5820 0.5840
685.636276 0.5850 0.5880 0.5880 0.5890 0.5890
690.551627 0.5900 0.5920 0.5920 0.5940 0.6000
695.466978 0.6010 0.6040 0.6060 0.6060 0.6080
700.382330 0.6100 0.6130 0.6140 0.6140 0.6160
705.297681 0.6170 0.6180 0.6210 0.6220 0.6220
710.213033 0.6240 0.6270 0.6280 0.6310 0.6310
715.128384 0.6320 0.6330 0.6330 0.6350 0.6350
720.043735 0.6370 0.6410 0.6470 0.6480 0.6490
724.959087 0.6490 0.6510 0.6520 0.6530 0.6560
729.874438 0.6590 0.6630 0.6640 0.6650 0.6670
734.789790 0.6680 0.6680 0.6690 0.6710 0.6720
739.705141 0.6730 0.6730 0.6750 0.6760 0.6770
744.620492 0.6770 0.6790 0.6790 0.6800 0.6800
749.535844 0.6800 0.6800 0.6790 0.6790 0.6790
754.451195 0.6770 0.6760 0.6750 0.6720 0.6690
759.366547 0.6670 0.6610 0.6520 0.6370 0.6130
764.281898 0.6040 0.5920 0.5800 0.5770 0.5651
769.197250 0.5650 0.6100 0.6200 0.6290 0.6450
774.112601 0.6649 0.6680 0.6790 0.6850 0.6870
779.027952 0.6890 0.6910 0.6920 0.6920 0.6910
783.943304 0.6870 0.6840 0.6770 0.6750 0.6601
788.858655 0.6530 0.6310 0.6050 0.5441 0.5221
793.774007 0.5021 0.4811 0.4611 0.4411 0.4410
798.689358 0.4830 0.5260 0.5600 0.5930 0.5940
803.604709 0.6130 0.6309 0.6479 0.6689 0.6720
808.520061 0.6750 0.6750 0.6750 0.6730 0.6710
813.435412 0.6650 0.6590 0.6520 0.6440 0.6370
818.350764 0.6280 0.6170 0.5281 0.4951 0.4351
823.266115 0.3991 0.3721 0.3391 0.3062 0.2722
828.181466 0.2720 0.3150 0.3660 0.3740 0.4409
833.096818 0.5408 0.5619 0.5819 0.6089 0.6409
838.012169 0.6680 0.6830 0.6950 0.7030 0.7070
842.927521 0.7080 0.7040 0.7000 0.6930 0.6880
847.842872 0.6840 0.6810 0.6830 0.6960 0.7070
852.758223 0.7309 0.7499 0.7590 0.7640 0.7789
857.673575 0.7800 0.7880 0.7910 0.7960 0.7980
862.588926 0.7980 0.7990 0.7990 0.7990 0.7990
867.504278 0.7990 0.7990 0.7990 0.7980 0.7980
872.419629 0.7980 0.7950 0.7950 0.7940 0.7920
877.334981 0.7900 0.7870 0.7820 0.7790 0.7740
882.250332 0.7660 0.7630 0.7550 0.7450 0.7360
887.165683 0.7280 0.7110 0.7050 0.6910 0.6511
892.081035 0.6011 0.5771 0.5321 0.5091 0.4871
896.996386 0.4870 0.5160 0.5360 0.5530 0.5690
901.911738 0.5860 0.6239 0.6399 0.6629 0.6829
906.827089 0.6840 0.6840 0.6810 0.6710 0.6510
911.742440 0.6450 0.6350 0.6211 0.6041 0.5443
916.657792 0.5170 0.4930 0.4750 0.4540 0.4331
921.573143 0.4111 0.4110 0.4429 0.4749 0.5048
926.488495 0.5280 0.5500 0.5880 0.6050 0.6519
931.403846 0.6789 0.7189 0.7190 0.7270 0.7310
936.319197 0.7320 0.7320 0.7310 0.7310 0.7270
941.234549 0.7240 0.7230 0.7200 0.7170 0.7090
946.149900 0.7040 0.6970 0.6930 0.6870 0.6680
951.065252 0.6351 0.6201 0.6021 0.5861 0.5691
955.980603 0.5370 0.5340 0.5360 0.5450 0.5530
960.895955 0.5899 0.5930 0.6209 0.6220 0.6240
965.811306 0.6240 0.6210 0.6160 0.6080 0.5900
970.726657 0.5740 0.5331 0.5141 0.5050 0.5010
975.642009 0.4930 0.4890 0.4810 0.4780 0.4660
980.557360 0.4590 0.4271 0.4220 0.4101 0.3891
985.472712 0.3710 0.3550 0.3390 0.3160 0.3000
990.388063 0.2631 0.2401 0.2071 0.2030 0.1871
995.303414 0.1710 0.1590 0.1470 0.1250 0.1130
1000.218766 0.0861 0.0700 0.0541 0.0480 0.0380
1005.134117 0.0320 0.0280 0.0260 0.0250 0.0250
1010.049469 0.0250 0.0250 0.0240 0.0240 0.0170
1014.964820 0.0130 0.0090 0.0050 0.0010 0.0000
1019.880171 0.0000 0.0000 0.0000 0.0000 0.0000
1024.795523 0.0000 0.0000 0.0000 0.0000 0.0000
1029.710874 0.0000 0.0000 0.0000 0.0000 0.0010
1034.626226 0.0020 0.0050 0.0120 0.0160 0.0210
1039.541577 0.0330 0.0410 0.0579 0.0650 0.0720
1044.456928 0.0880 0.1000 0.1120 0.1290 0.1400
1049.372280 0.1759 0.2109 0.2708 0.3397 0.3619
1054.287631 0.3910 0.4140 0.4470 0.4830 0.5040
1059.202983 0.5260 0.5370 0.5659 0.5959 0.6249
1064.118334 0.6330 0.6470 0.6610 0.6670 0.6810
1069.033686 0.6930 0.7030 0.7110 0.7210 0.7310
1073.949037 0.7400 0.7450 0.7510 0.7520 0.7540
1078.864388 0.7560 0.7560 0.7550 0.7550 0.7540
1083.779740 0.7540 0.7520 0.7480 0.7470 0.7450
1088.695091 0.7440 0.7410 0.7390 0.7360 0.7320
1093.610443 0.7170 0.6990 0.6840 0.6730 0.6650
1098.525794 0.6650 0.6889 0.6990 0.7199 0.7190
1103.441145 0.7240 0.7250 0.7270 0.7270 0.7250
1108.356497 0.7240 0.7190 0.7160 0.7090 0.6951
1113.271848 0.6760 0.6510 0.6450 0.6370 0.6250
1118.187200 0.6220 0.6220 0.6240 0.6320 0.6449
1123.102551 0.6470 0.6600 0.6750 0.6850 0.6880
1128.017902 0.6920 0.6920 0.6910 0.6890 0.6870
1132.933254 0.6850 0.6750 0.6720 0.6630 0.6510
1137.848605 0.6440 0.6350 0.6310 0.6141 0.6021
1142.763957 0.5920 0.5770 0.5660 0.5640 0.5580
1147.679308 0.5560 0.5540 0.5540 0.5560 0.5570
1152.594660 0.5580 0.5610 0.5660 0.5720 0.5730
1157.510011 0.5820 0.5920 0.5930 0.6010 0.6060
1162.425362 0.6120 0.6180 0.6290 0.6320 0.6390
1167.340714 0.6480 0.6600 0.6630 0.6769 0.6870
1172.256065 0.6930 0.6960 0.6970 0.6970 0.6960
1177.171417 0.6960 0.6950 0.6920 0.6890 0.6870
1182.086768 0.6830 0.6800 0.6790 0.6690 0.6630
1187.002119 0.6560 0.6510 0.6430 0.6360 0.6290
1191.917471 0.6250 0.6240 0.6250 0.6450 0.6520
1196.832822 0.6570 0.6690 0.6750 0.6790 0.6929
1201.748174 0.6950 0.6970 0.6970 0.6970 0.6950
1206.663525 0.6930 0.6910 0.6880 0.6850 0.6840
1211.578876 0.6810 0.6760 0.6720 0.6650 0.6610
1216.494228 0.6520 0.6450 0.6390 0.6330 0.6330
1221.409579 0.6280 0.6220 0.6180 0.6170 0.6160
1226.324931 0.6130 0.6100 0.6080 0.6050 0.6020
1231.240282 0.5970 0.5890 0.5800 0.5780 0.5740
1236.155633 0.5650 0.5610 0.5451 0.5410 0.5370
1241.070985 0.5330 0.5290 0.5170 0.5140 0.5120
1245.986336 0.5120 0.5120 0.5130 0.5140 0.5170
1250.901688 0.5220 0.5300 0.5440 0.5500 0.5560
1255.817039 0.5620 0.5760 0.5890 0.5960 0.6060
1260.732391 0.6220 0.6270 0.6290 0.6330 0.6430
1265.647742 0.6440 0.6450 0.6450 0.6450 0.6450
1270.563093 0.6450 0.6450 0.6450 0.6440 0.6440
1275.478445 0.6430 0.6410 0.6370 0.6350 0.6320
1280.393796 0.6280 0.6250 0.6220 0.6200 0.6200
1285.309148 0.6160 0.6120 0.6090 0.6060 0.6040
1290.224499 0.6000 0.5960 0.5920 0.5880 0.5840
1295.139850 0.5800 0.5760 0.5720 0.5680 0.5620
1300.055202 0.5580 0.5560 0.5480 0.5450 0.5440
1304.970553 0.5420 0.5420 0.5420 0.5440 0.5450
1309.885905 0.5450 0.5480 0.5490 0.5500 0.5520
1314.801256 0.5530 0.5560 0.5570 0.5600 0.5610
1319.716607 0.5650 0.5660 0.5690 0.5740 0.5780
1324.631959 0.5810 0.5840 0.5850 0.5850 0.5850
1329.547310 0.5850 0.5850 0.5840 0.5840 0.5820
1334.462662 0.5820 0.5820 0.5820 0.5820 0.5810
1339.378013 0.5810 0.5810 0.5800 0.5800 0.5780
1344.293365 0.5760 0.5760 0.5720 0.5640 0.5560
1349.208716 0.5410 0.5250 0.5100 0.4980 0.4950
1354.124067 0.4870 0.4780 0.4730 0.4700 0.4690
1359.039419 0.4690 0.4690 0.4690 0.4690 0.4690
1363.954770 0.4690 0.4690 0.4690 0.4670 0.4670
1368.870122 0.4670 0.4660 0.4650 0.4650 0.4620
1373.785473 0.4610 0.4580 0.4570 0.4550 0.4540
1378.700824 0.4530 0.4470 0.4460 0.4430 0.4410
1383.616176 0.4380 0.4340 0.4260 0.4180 0.4070
1388.531527 0.3990 0.3830 0.3670 0.3520 0.3380
1393.446879 0.3310 0.2981 0.2910 0.2820 0.2711
1398.362230 0.2620 0.2480 0.2390 0.2320 0.2290
1403.277581 0.2290 0.2310 0.2320 0.2360 0.2400
1408.192933 0.2440 0.2480 0.2580 0.2630 0.2750
1413.108284 0.2940 0.2990 0.3030 0.3070 0.3160
1418.023636 0.3220 0.3270 0.3280 0.3350 0.3390
1422.938987 0.3390 0.3390 0.3360 0.3340 0.3230
1427.854339 0.3110 0.2830 0.2520 0.2240 0.2240
1432.769690 0.2430 0.3078 0.3110 0.3478 0.3968
1437.685041 0.3990 0.4150 0.4380 0.4450 0.4590
1442.600393 0.4740 0.4790 0.4890 0.4910 0.4980
1447.515744 0.5010 0.5130 0.5170 0.5210 0.5220
1452.431096 0.5220 0.5240 0.5240 0.5240 0.5220
1457.346447 0.5210 0.5180 0.5170 0.5120 0.5060
1462.261798 0.5010 0.4970 0.4910 0.4870 0.4820
1467.177150 0.4790 0.4790 0.4790 0.4810 0.4830
1472.092501 0.4870 0.4930 0.4980 0.5060 0.5419
1477.007853 0.5570 0.5700 0.5970 0.6060 0.6320
1481.923204 0.6480 0.6650 0.6750 0.6800 0.6929
1486.838555 0.7010 0.7070 0.7080 0.7110 0.7170
1491.753907 0.7230 0.7280 0.7280 0.7350 0.7440
1496.669258 0.7480 0.7550 0.7560 0.7590 0.7600
1501.584610 0.7640 0.7680 0.7720 0.7720 0.7750
1506.499961 0.7760 0.7780 0.7820 0.7840 0.7870
1511.415312 0.7880 0.7920 0.7950 0.7950 0.7960
1516.330664 0.7990 0.8040 0.8070 0.8110 0.8120
1521.246015 0.8150 0.8220 0.8270 0.8310 0.8340
1526.161367 0.8350 0.8390 0.8400 0.8420 0.8430
1531.076718 0.8500 0.8540 0.8540 0.8550 0.8560
1535.992070 0.8580 0.8590 0.8620 0.8620 0.8630
1540.907421 0.8640 0.8640 0.8640 0.8640 0.8660
1545.822772 0.8660 0.8660 0.8660 0.8660 0.8660
1550.738124 0.8660 0.8660 0.8660 0.8640 0.8640
1555.653475 0.8630 0.8630 0.8620 0.8600 0.8600
1560.568827 0.8590 0.8590 0.8560 0.8560 0.8550
1565.484178 0.8550 0.8550 0.8540 0.8540 0.8540
1570.399529 0.8540 0.8520 0.8520 0.8520 0.8520
1575.314881 0.8510 0.8510 0.8510 0.8510 0.8500
1580.230232 0.8500 0.8470 0.8460 0.8430 0.8420
1585.145584 0.8390 0.8380 0.8350 0.8340 0.8320
1590.060935 0.8320 0.8310 0.8310 0.8300 0.8280
1594.976286 0.8280 0.8270 0.8260 0.8260 0.8240
1599.891638 0.8230 0.8220 0.8220 0.8200 0.8190
1604.806989 0.8190 0.8180 0.8160 0.8150 0.8140
1609.722341 0.8120 0.8100 0.8060 0.8030 0.8000
1614.637692 0.7990 0.7980 0.7980 0.7960 0.7950
1619.553044 0.7940 0.7940 0.7940 0.7920 0.7920
1624.468395 0.7910 0.7910 0.7900 0.7900 0.7900
1629.383746 0.7910 0.7920 0.7920 0.7920 0.7940
1634.299098 0.7940 0.7940 0.7950 0.7950 0.7950
1639.214449 0.7960 0.7960 0.7990 0.8000 0.8030
1644.129801 0.8040 0.8060 0.8070 0.8070 0.8080
1649.045152 0.8100 0.8110 0.8120 0.8140 0.8150
1653.960503 0.8150 0.8150 0.8160 0.8160 0.8180
1658.875855 0.8180 0.8190 0.8190 0.8190 0.8200
1663.791206 0.8200 0.8200 0.8220 0.8220 0.8220
1668.706558 0.8220 0.8230 0.8260 0.8270 0.8270
1673.621909 0.8280 0.8280 0.8300 0.8300 0.8300
1678.537260 0.8300 0.8310 0.8320 0.8320 0.8310
1683.452612 0.8310 0.8300 0.8280 0.8270 0.8270
1688.367963 0.8260 0.8260 0.8260 0.8260 0.8260
1693.283315 0.8260 0.8270 0.8280 0.8280 0.8300
1698.198666 0.8310 0.8320 0.8350 0.8380 0.8400
1703.114017 0.8400 0.8420 0.8420 0.8420 0.8430
1708.029369 0.8430 0.8440 0.8460 0.8460 0.8470
1712.944720 0.8480 0.8500 0.8520 0.8540 0.8540
1717.860072 0.8550 0.8560 0.8560 0.8560 0.8560
1722.775423 0.8560 0.8580 0.8580 0.8580 0.8590
1727.690775 0.8590 0.8590 0.8590 0.8590 0.8590
1732.606126 0.8590 0.8590 0.8590 0.8590 0.8590
1737.521477 0.8600 0.8600 0.8600 0.8600 0.8600
1742.436829 0.8600 0.8600 0.8600 0.8600 0.8600
1747.352180 0.8600 0.8590 0.8590 0.8590 0.8590
1752.267532 0.8590 0.8590 0.8590 0.8590 0.8590
1757.182883 0.8590 0.8580 0.8580 0.8560 0.8560
1762.098234 0.8560 0.8560 0.8580 0.8580 0.8580
1767.013586 0.8580 0.8580 0.8560 0.8560 0.8560
1771.928937 0.8550 0.8550 0.8550 0.8540 0.8520
1776.844289 0.8510 0.8500 0.8500 0.8480 0.8480
1781.759640 0.8470 0.8470 0.8470 0.8470 0.8470
1786.674991 0.8480 0.8500 0.8500 0.8500 0.8480
1791.590343 0.8500 0.8500 0.8500 0.8510 0.8510
1796.505694 0.8510 0.8520 0.8520 0.8520 0.8520
1801.421046 0.8540 0.8540 0.8540 0.8540 0.8540
1806.336397 0.8550 0.8550 0.8550 0.8540 0.8540
1811.251749 0.8520 0.8520 0.8520 0.8520 0.8520
1816.167100 0.8520 0.8520 0.8540 0.8540 0.8540
1821.082451 0.8540 0.8540 0.8540 0.8540 0.8540
1825.997803 0.8540 0.8540 0.8550 0.8550 0.8560
1830.913154 0.8580 0.8580 0.8590 0.8590 0.8600
1835.828506 0.8600 0.8590 0.8590 0.8580 0.8580
1840.743857 0.8580 0.8560 0.8560 0.8550 0.8540
1845.659208 0.8540 0.8540 0.8540 0.8540 0.8550
1850.574560 0.8550 0.8560 0.8580 0.8590 0.8590
1855.489911 0.8580 0.8580 0.8560 0.8560 0.8560
1860.405263 0.8560 0.8580 0.8580 0.8590 0.8590
1865.320614 0.8590 0.8590 0.8590 0.8600 0.8600
1870.235965 0.8600 0.8600 0.8600 0.8600 0.8600
1875.151317 0.8600 0.8600 0.8590 0.8590 0.8590
1880.066668 0.8590 0.8580 0.8580 0.8580 0.8580
1884.982020 0.8580 0.8590 0.8600 0.8600 0.8620
1889.897371 0.8620 0.8620 0.8620 0.8600 0.8590
1894.812722 0.8580 0.8560 0.8550 0.8540 0.8540
1899.728074 0.8520 0.8520 0.8510 0.8480 0.8460
1904.643425 0.8430 0.8420 0.8400 0.8400 0.8390
1909.558777 0.8380 0.8360 0.8350 0.8320 0.8320
1914.474128 0.8310 0.8310 0.8300 0.8300 0.8280
1919.389480 0.8280 0.8280 0.8280 0.8280 0.8300
1924.304831 0.8310 0.8310 0.8320 0.8320 0.8340
1929.220182 0.8340 0.8350 0.8350 0.8360 0.8360
1934.135534 0.8380 0.8390 0.8400 0.8420 0.8430
1939.050885 0.8440 0.8470 0.8480 0.8510 0.8520
1943.966237 0.8540 0.8540 0.8550 0.8550 0.8550
1948.881588 0.8560 0.8560 0.8580 0.8580 0.8580
1953.796939 0.8580 0.8580 0.8580 0.8580 0.8590
1958.712291 0.8590 0.8590 0.8590 0.8590 0.8600
1963.627642 0.8600 0.8600 0.8600 0.8620 0.8620
1968.542994 0.8620 0.8630 0.8630 0.8630 0.8630
1973.458345 0.8640 0.8640 0.8640 0.8660 0.8660
1978.373696 0.8660 0.8660 0.8660 0.8660 0.8660
1983.289048 0.8660 0.8660 0.8640 0.8630 0.8630
1988.204399 0.8630 0.8620 0.8620 0.8620 0.8600
1993.119751 0.8600 0.8600 0.8590 0.8590 0.8590
1998.035102 0.8600 0.8620 0.8630 0.8630 0.8630
2002.950454 0.8625 0.8620 0.8625 0.8630 0.8635
2007.865805 0.8640 0.8640 0.8640 0.8640 0.8640
2012.781156 0.8640 0.8640 0.8640 0.8640 0.8635
2017.696508 0.8630 0.8630 0.8630 0.8625 0.8620
2022.611859 0.8610 0.8600 0.8600 0.8600 0.8595
2027.527211 0.8590 0.8585 0.8580 0.8580 0.8580
2032.442562 0.8571 0.8561 0.8555 0.8550 0.8545
2037.357913 0.8540 0.8526 0.8511 0.8510 0.8510
2042.273265 0.8491 0.8471 0.8438 0.8403 0.8395
2047.188616 0.8390 0.8376 0.8361 0.8342 0.8322
2052.103968 0.8311 0.8301 0.8291 0.8281 0.8262
2057.019319 0.8242 0.8231 0.8221 0.8211 0.8201
2061.934670 0.8209 0.8219 0.8224 0.8229 0.8243
2066.850022 0.8258 0.8278 0.8298 0.8304 0.8309
2071.765373 0.8332 0.8357 0.8394 0.8434 0.8453
2076.680725 0.8468 0.8483 0.8498 0.8504 0.8509
2081.596076 0.8514 0.8519 0.8529 0.8539 0.8544
2086.511428 0.8549 0.8550 0.8550 0.8554 0.8559
2091.426779 0.8560 0.8560 0.8560 0.8560 0.8568
2096.342130 0.8578 0.8588 0.8598 0.8613 0.8627
2101.257482 0.8651 0.8676 0.8705 0.8735 0.8744
2106.172833 0.8749 0.8762 0.8777 0.8784 0.8789
2111.088185 0.8790 0.8790 0.8798 0.8808 0.8814
2116.003536 0.8819 0.8820 0.8820 0.8820 0.8820
2120.918887 0.8824 0.8829 0.8838 0.8848 0.8850
2125.834239 0.8850 0.8850 0.8850 0.8854 0.8859
2130.749590 0.8860 0.8860 0.8860 0.8860 0.8860
2135.664942 0.8860 0.8856 0.8851 0.8850 0.8850
2140.580293 0.8850 0.8850 0.8842 0.8832 0.8830
2145.495644 0.8830 0.8830 0.8830 0.8826 0.8821
2150.410996 0.8820 0.8820 0.8820 0.8820 0.8820
2155.326347 0.8820 0.8820 0.8820 0.8820 0.8820
2160.241699 0.8820 0.8820 0.8824 0.8829 0.8830
2165.157050 0.8830 0.8830 0.8830 0.8830 0.8830
2170.072401 0.8830 0.8830 0.8830 0.8830 0.8830
2174.987753 0.8830 0.8830 0.8830 0.8826 0.8821
2179.903104 0.8820 0.8820 0.8820 0.8820 0.8817
2184.818456 0.8812 0.8810 0.8810 0.8810 0.8810
2189.733807 0.8810 0.8810 0.8803 0.8793 0.8790
2194.649159 0.8790 0.8790 0.8790 0.8790 0.8790
2199.564510 0.8790 0.8790 0.8790 0.8790 0.8790
2204.479861 0.8790 0.8790 0.8790 0.8790 0.8790
2209.395213 0.8790 0.8790 0.8790 0.8790 0.8790
2214.310564 0.8790 0.8790 0.8790 0.8790 0.8790
2219.225916 0.8790 0.8790 0.8790 0.8790 0.8790
2224.141267 0.8790 0.8790 0.8790 0.8790 0.8790
2229.056618 0.8790 0.8790 0.8790 0.8790 0.8787
2233.971970 0.8782 0.8780 0.8780 0.8780 0.8780
2238.887321 0.8780 0.8780 0.8780 0.8780 0.8780
2243.802673 0.8780 0.8780 0.8780 0.8777 0.8772
2248.718024 0.8770 0.8770 0.8770 0.8770 0.8770
2253.633375 0.8770 0.8770 0.8770 0.8773 0.8778
2258.548727 0.8783 0.8788 0.8790 0.8790 0.8796
2263.464078 0.8806 0.8810 0.8810 0.8813 0.8818
2268.379430 0.8823 0.8828 0.8830 0.8830 0.8835
2273.294781 0.8845 0.8850 0.8850 0.8850 0.8850
2278.210133 0.8853 0.8858 0.8860 0.8860 0.8863
2283.125484 0.8868 0.8870 0.8870 0.8870 0.8870
2288.040835 0.8870 0.8870 0.8867 0.8862 0.8858
2292.956187 0.8853 0.8850 0.8850 0.8850 0.8850
2297.871538 0.8845 0.8835 0.8830 0.8830 0.8830
2302.786890 0.8830 0.8828 0.8823 0.8820 0.8820
2307.702241 0.8820 0.8820 0.8820 0.8820 0.8818
2312.617592 0.8813 0.8810 0.8810 0.8805 0.8795
2317.532944 0.8788 0.8783 0.8778 0.8773 0.8765
2322.448295 0.8755 0.8750 0.8750 0.8750 0.8750
2327.363647 0.8748 0.8743 0.8740 0.8740 0.8740
2332.278998 0.8740 0.8740 0.8740 0.8740 0.8740
2337.194349 0.8736 0.8726 0.8720 0.8720 0.8716
2342.109701 0.8706 0.8700 0.8700 0.8696 0.8686
2347.025052 0.8680 0.8680 0.8680 0.8680 0.8678
2351.940404 0.8673 0.8670 0.8670 0.8670 0.8670
2356.855755 0.8668 0.8663 0.8660 0.8660 0.8656
2361.771106 0.8646 0.8640 0.8640 0.8640 0.8640
2366.686458 0.8640 0.8640 0.8640 0.8640 0.8638
2371.601809 0.8633 0.8632 0.8637 0.8640 0.8640
2376.517161 0.8640 0.8640 0.8640 0.8640 0.8638
2381.432512 0.8633 0.8628 0.8623 0.8620 0.8620
2386.347864 0.8620 0.8620 0.8620 0.8620 0.8620
2391.263215 0.8620 0.8620 0.8620 0.8620 0.8620
2396.178566 0.8620 0.8620 0.8620 0.8620 0.8620
2401.093918 0.8620 0.8617 0.8607 0.8600 0.8600
2406.009269 0.8603 0.8613 0.8620 0.8620 0.8617
2410.924621 0.8607 0.8600 0.8600 0.8600 0.8600
2415.839972 0.8600 0.8600 0.8600 0.8600 0.8599
2420.755323 0.8594 0.8590 0.8590 0.8590 0.8590
2425.670675 0.8590 0.8590 0.8590 0.8590 0.8590
2430.586026 0.8590 0.8590 0.8590 0.8590 0.8590
2435.501378 0.8590 0.8590 0.8590 0.8590 0.8590
2440.416729 0.8590 0.8590 0.8590 0.8589 0.8584
2445.332080 0.8580 0.8580 0.8580 0.8580 0.8576
2450.247432 0.8562 0.8550 0.8550 0.8549 0.8544
2455.162783 0.8540 0.8540 0.8538 0.8528 0.8519
2460.078135 0.8514 0.8507 0.8492 0.8480 0.8480
2464.993486 0.8479 0.8474 0.8470 0.8470 0.8470
2469.908838 0.8470 0.8469 0.8464 0.8460 0.8460
2474.824189 0.8458 0.8448 0.8440 0.8440 0.8440
2479.739540 0.8440 0.8442 0.8452 0.8460 0.8460
2484.654892 0.8460 0.8460 0.8461 0.8466 0.8470
2489.570243 0.8470 0.8470 0.8470 0.8471 0.8476
2494.485595 0.8480 0.8480 0.8480 0.8480 0.8482
2499.400946 0.8492 0.8500 0.8500 0.8500 0.8500
2504.316297 0.8500 0.8500 0.8500 0.8500 0.8500
2509.231649 0.8500 0.8500 0.8500 0.8500 0.8500
2514.147000 0.8499 0.8489 0.8480 0.8480 0.8480
2519.062352 0.8480 0.8479 0.8474 0.8470 0.8470
2523.977703 0.8470 0.8470 0.8469 0.8464 0.8460
2528.893054 0.8460 0.8459 0.8449 0.8440 0.8440
2533.808406 0.8439 0.8434 0.8429 0.8424 0.8419
2538.723757 0.8409 0.8399 0.8389 0.8379 0.8364
2543.639109 0.8350 0.8345 0.8339 0.8329 0.8319
2548.554460 0.8309 0.8300 0.8300 0.8299 0.8289
2553.469811 0.8280 0.8280 0.8280 0.8275 0.8270
2558.385163 0.8270 0.8270 0.8265 0.8260 0.8260
2563.300514 0.8260 0.8250 0.8240 0.8240 0.8240
2568.215866 0.8235 0.8230 0.8225 0.8220 0.8220
2573.131217 0.8220 0.8210 0.8200 0.8200 0.8200
2578.046569 0.8200 0.8200 0.8195 0.8190 0.8190
2582.961920 0.8190 0.8190 0.8190 0.8185 0.8180
2587.877271 0.8180 0.8180 0.8180 0.8180 0.8170
2592.792623 0.8160 0.8160 0.8160 0.8160 0.8160
2597.707974 0.8155 0.8150 0.8150 0.8150 0.8150
2602.623326 0.8150 0.8145 0.8140 0.8140 0.8140
2607.538677 0.8130 0.8120 0.8115 0.8110 0.8105
2612.454028 0.8100 0.8090 0.8080 0.8075 0.8070
2617.369380 0.8065 0.8060 0.8050 0.8040 0.8035
2622.284731 0.8030 0.8025 0.8020 0.8020 0.8020
2627.200083 0.8011 0.8001 0.8000 0.8000 0.7995
2632.115434 0.7990 0.7985 0.7980 0.7980 0.7980
2637.030785 0.7980 0.7980 0.7971 0.7961 0.7960
2641.946137 0.7960 0.7955 0.7950 0.7945 0.7940
2646.861488 0.7940 0.7940 0.7931 0.7921 0.7920
2651.776840 0.7920 0.7902 0.7882 0.7875 0.7870
2656.692191 0.7870 0.7870 0.7857 0.7842 0.7831
2661.607543 0.7821 0.7807 0.7792 0.7786 0.7781
2666.522894 0.7771 0.7761 0.7760 0.7760 0.7756
2671.438245 0.7751 0.7750 0.7750 0.7746 0.7741
2676.353597 0.7740 0.7740 0.7740 0.7740 0.7740
2681.268948 0.7740 0.7731 0.7722 0.7716 0.7711
2686.184300 0.7710 0.7710 0.7697 0.7682 0.7676
2691.099651 0.7671 0.7670 0.7670 0.7657 0.7642
2696.015002 0.7632 0.7622 0.7612 0.7602 0.7596
2700.930354 0.7591 0.7586 0.7581 0.7572 0.7562
2705.845705 0.7540 0.7515 0.7506 0.7501 0.7480
2710.761057 0.7455 0.7442 0.7432 0.7406 0.7376
2715.676408 0.7362 0.7352 0.7334 0.7314 0.7302
2720.591759 0.7292 0.7290 0.7290 0.7286 0.7281
2725.507111 0.7280 0.7280 0.7280 0.7280 0.7280
2730.422462 0.7280 0.7276 0.7271 0.7270 0.7270
2735.337814 0.7262 0.7252 0.7250 0.7250 0.7246
2740.253165 0.7241 0.7236 0.7231 0.7230 0.7230
2745.168516 0.7223 0.7213 0.7210 0.7210 0.7202
2750.083868 0.7193 0.7183 0.7173 0.7166 0.7161
2754.999219 0.7156 0.7151 0.7139 0.7124 0.7116
2759.914571 0.7111 0.7099 0.7084 0.7062 0.7037
2764.829922 0.7019 0.7004 0.6989 0.6974 0.6963
2769.745274 0.6953 0.6939 0.6924 0.6895 0.6860
2774.660625 0.6843 0.6833 0.6820 0.6805 0.6790
2779.575976 0.6775 0.6756 0.6736 0.6703 0.6663
2784.491328 0.6633 0.6608 0.6583 0.6558 0.6529
2789.406679 0.6499 0.6473 0.6448 0.6423 0.6398
2794.322031 0.6370 0.6340 0.6317 0.6297 0.6274
2799.237382 0.6249 0.6217 0.6182 0.6144 0.6104
2804.152733 0.6061 0.6016 0.5965 0.5909 0.5880
2809.068085 0.5865 0.5831 0.5786 0.5754 0.5729
2813.983436 0.5688 0.5638 0.5595 0.5555 0.5458
2818.898788 0.5329 0.5258 0.5223 0.5161 0.5081
2823.814139 0.5029 0.4994 0.4946 0.4891 0.4845
2828.729490 0.4805 0.4725 0.4621 0.4565 0.4540
2833.644842 0.4509 0.4474 0.4436 0.4396 0.4324
2838.560193 0.4229 0.4152 0.4087 0.4010 0.3926
2843.475545 0.3884 0.3874 0.3832 0.3767 0.3711
2848.390896 0.3661 0.3593 0.3514 0.3434 0.3354
2853.306248 0.3268 0.3179 0.3095 0.3015 0.2927
2858.221599 0.2832 0.2737 0.2642 0.2531 0.2406
2863.136950 0.2312 0.2242 0.2185 0.2140 0.2064
2868.052302 0.1965 0.1890 0.1835 0.1777 0.1717
2872.967653 0.1687 0.1682 0.1680 0.1680 0.1688
2877.883005 0.1703 0.1741 0.1801 0.1861 0.1921
2882.798356 0.1976 0.2025 0.2078 0.2134 0.2184
2887.713707 0.2228 0.2255 0.2265 0.2334 0.2459
2892.629059 0.2599 0.2753 0.2868 0.2942 0.3005
2897.544410 0.3055 0.3085 0.3095 0.3093 0.3078
2902.459762 0.3058 0.3033 0.3006 0.2975 0.2938
2907.375113 0.2893 0.2848 0.2803 0.2756 0.2706
2912.290464 0.2666 0.2636 0.2601 0.2561 0.2519
2917.205816 0.2474 0.2448 0.2443 0.2440 0.2440
2922.121167 0.2442 0.2447 0.2454 0.2465 0.2477
2927.036519 0.2492 0.2520 0.2565 0.2610 0.2655
2931.951870 0.2693 0.2723 0.2751 0.2776 0.2831
2936.867222 0.2926 0.2989 0.3008 0.3028 0.3048
2941.782573 0.3060 0.3060 0.3056 0.3046 0.3036
2946.697924 0.3026 0.3016 0.3006 0.2983 0.2944
2951.613276 0.2918 0.2913 0.2912 0.2917 0.2948
2956.528627 0.3018 0.3068 0.3088 0.3104 0.3114
2961.443979 0.3275 0.3679 0.3962 0.4048 0.4161
2966.359330 0.4315 0.4456 0.4576 0.4717 0.4891
2971.274681 0.5041 0.5151 0.5242 0.5302 0.5353
2976.190033 0.5388 0.5410 0.5410 0.5408 0.5403
2981.105384 0.5381 0.5326 0.5271 0.5215 0.5158
2986.020736 0.5099 0.5037 0.4972 0.4920 0.4890
2990.936087 0.4839 0.4749 0.4663 0.4583 0.4467
2995.851438 0.4277 0.4080 0.3865 0.3641 0.3397
3000.766790 0.3047 0.2468 0.2040 0.1944 0.1846
3005.682141 0.1741 0.1635 0.1525 0.1417 0.1312
3010.597493 0.1209 0.1109 0.1040 0.1040 0.1075
3015.512844 0.1189 0.1307 0.1432 0.1524 0.1539
3020.428195 0.1610 0.1819 0.2019 0.2196 0.2361
3025.343547 0.2501 0.2638 0.2767 0.2911 0.3091
3030.258898 0.3276 0.3475 0.3706 0.4020 0.4294
3035.174250 0.4459 0.4636 0.4851 0.5051 0.5211
3040.089601 0.5349 0.5424 0.5497 0.5568 0.5629
3045.004953 0.5664 0.5699 0.5734 0.5768 0.5797
3049.920304 0.5825 0.5845 0.5860 0.5860 0.5858
3054.835655 0.5848 0.5835 0.5815 0.5793 0.5763
3059.751007 0.5730 0.5685 0.5645 0.5619 0.5574
3064.666358 0.5459 0.5348 0.5248 0.5145 0.5030
3069.581710 0.4910 0.4771 0.4638 0.4533 0.4430
3074.497061 0.4330 0.4227 0.4113 0.3972 0.3723
3079.412412 0.3468 0.3189 0.2933 0.2781 0.2627
3084.327764 0.2457 0.2288 0.2124 0.1990 0.1990
3089.243115 0.2023 0.2208 0.2391 0.2571 0.2747
3094.158467 0.2907 0.3091 0.3400 0.3715 0.4059
3099.073818 0.4386 0.4620 0.4854 0.5086 0.5288
3103.989169 0.5338 0.5386 0.5426 0.5462 0.5477
3108.904521 0.5492 0.5507 0.5521 0.5531 0.5541
3113.819872 0.5551 0.5561 0.5566 0.5572 0.5587
3118.735224 0.5601 0.5606 0.5610 0.5610 0.5610
3123.650575 0.5610 0.5609 0.5604 0.5598 0.5583
3128.565927 0.5568 0.5553 0.5537 0.5507 0.5478
3133.481278 0.5463 0.5448 0.5428 0.5409 0.5394
3138.396629 0.5376 0.5337 0.5297 0.5256 0.5216
3143.311981 0.5176 0.5140 0.5135 0.5129 0.5114
3148.227332 0.5097 0.5057 0.5019 0.5009 0.4996
3153.142684 0.4947 0.4898 0.4873 0.4848 0.4818
3158.058035 0.4789 0.4769 0.4747 0.4687 0.4630
3162.973386 0.4625 0.4618 0.4578 0.4537 0.4482
3167.888738 0.4430 0.4425 0.4419 0.4394 0.4369
3172.804089 0.4349 0.4329 0.4299 0.4270 0.4265
3177.719441 0.4259 0.4214 0.4169 0.4088 0.4009
3182.634792 0.3969 0.3930 0.3930 0.3929 0.3899
3187.550143 0.3869 0.3829 0.3789 0.3745 0.3700
3192.465495 0.3660 0.3620 0.3600 0.3580 0.3540
3197.380846 0.3500 0.3451 0.3401 0.3355 0.3310
3202.296198 0.3265 0.3220 0.3180 0.3140 0.3120
3207.211549 0.3100 0.3080 0.3060 0.3045 0.3030
3212.126900 0.3011 0.2991 0.2947 0.2902 0.2871
3217.042252 0.2841 0.2797 0.2752 0.2692 0.2632
3221.957603 0.2587 0.2542 0.2497 0.2452 0.2426
3226.872955 0.2401 0.2381 0.2361 0.2341 0.2321
3231.788306 0.2306 0.2291 0.2262 0.2232 0.2179
3236.703658 0.2124 0.2088 0.2053 0.2022 0.1992
3241.619009 0.1939 0.1884 0.1857 0.1832 0.1812
3246.534360 0.1792 0.1763 0.1733 0.1712 0.1692
3251.449712 0.1667 0.1642 0.1622 0.1602 0.1578
3256.365063 0.1553 0.1532 0.1512 0.1483 0.1453
3261.280415 0.1414 0.1374 0.1343 0.1313 0.1279
3266.195766 0.1244 0.1214 0.1184 0.1158 0.1133
3271.111117 0.1113 0.1093 0.1077 0.1062 0.1051
3276.026469 0.1041 0.1031 0.1021 0.0999 0.0973
3280.941820 0.0948 0.0923 0.0907 0.0892 0.0877
3285.857172 0.0862 0.0852 0.0842 0.0832 0.0822
3290.772523 0.0812 0.0802 0.0788 0.0773 0.0766
3295.687874 0.0761 0.0744 0.0724 0.0703 0.0683
3300.603226 0.0672 0.0662 0.0652 0.0642 0.0632
3305.518577 0.0622 0.0616 0.0611 0.0606 0.0601
3310.433929 0.0592 0.0582 0.0580 0.0580 0.0576
3315.349280 0.0571 0.0566 0.0561 0.0548 0.0533
3320.264632 0.0530 0.0530 0.0518 0.0503 0.0500
3325.179983 0.0500 0.0496 0.0491 0.0490 0.0490
3330.095334 0.0486 0.0481 0.0480 0.0480 0.0472
3335.010686 0.0462 0.0460 0.0460 0.0460 0.0460
3339.926037 0.0460 0.0460 0.0460 0.0460 0.0460
3344.841389 0.0460 0.0460 0.0460 0.0460 0.0460
3349.756740 0.0460 0.0460 0.0460 0.0460 0.0467
3354.672091 0.0477 0.0480 0.0480 0.0484 0.0489
3359.587443 0.0490 0.0490 0.0494 0.0499 0.0507
3364.502794 0.0517 0.0520 0.0520 0.0524 0.0529
3369.418146 0.0530 0.0530 0.0534 0.0539 0.0547
3374.333497 0.0557 0.0560 0.0560 0.0563 0.0569
3379.248848 0.0574 0.0579 0.0587 0.0597 0.0600
3384.164200 0.0600 0.0600 0.0600 0.0603 0.0608
3389.079551 0.0613 0.0618 0.0620 0.0620 0.0633
3393.994903 0.0653 0.0667 0.0677 0.0683 0.0688
3398.910254 0.0700 0.0715 0.0723 0.0728 0.0733
3403.825605 0.0738 0.0753 0.0773 0.0780 0.0780
3408.740957 0.0786 0.0796 0.0806 0.0816 0.0829
3413.656308 0.0844 0.0853 0.0858 0.0866 0.0876
3418.571660 0.0893 0.0913 0.0926 0.0936 0.0946
3423.487011 0.0956 0.0966 0.0976 0.0986 0.0996
3428.402363 0.1000 0.1000 0.1006 0.1016 0.1029
3433.317714 0.1044 0.1053 0.1058 0.1069 0.1084
3438.233065 0.1093 0.1098 0.1118 0.1148 0.1175
3443.148417 0.1200 0.1213 0.1218 0.1229 0.1244
3448.063768 0.1270 0.1305 0.1334 0.1359 0.1381
3452.979120 0.1401 0.1416 0.1426 0.1441 0.1461
3457.894471 0.1487 0.1517 0.1538 0.1553 0.1571
3462.809822 0.1591 0.1619 0.1654 0.1676 0.1685
3467.725174 0.1695 0.1705 0.1734 0.1779 0.1811
3472.640525 0.1831 0.1851 0.1871 0.1891 0.1911
3477.555877 0.1933 0.1958 0.1997 0.2047 0.2086
3482.471228 0.2116 0.2138 0.2153 0.2178 0.2213
3487.386579 0.2253 0.2298 0.2333 0.2358 0.2378
3492.301931 0.2392 0.2410 0.2430 0.2480 0.2560
3497.217282 0.2625 0.2675 0.2715 0.2745 0.2780
3502.132634 0.2820 0.2860 0.2899 0.2939 0.2979
3507.047985 0.3017 0.3052 0.3079 0.3099 0.3126
3511.963337 0.3161 0.3208 0.3268 0.3319 0.3359
3516.878688 0.3411 0.3476 0.3531 0.3576 0.3635
3521.794039 0.3710 0.3787 0.3866 0.3919 0.3939
3526.709391 0.3966 0.4001 0.4053 0.4128 0.4187
3531.624742 0.4227 0.4269 0.4314 0.4364 0.4419
3536.540094 0.4479 0.4544 0.4608 0.4673 0.4740
3541.455445 0.4810 0.4871 0.4921 0.4965 0.5000
3546.370796 0.5066 0.5175 0.5244 0.5254 0.5280
3551.286148 0.5330 0.5384 0.5444 0.5500 0.5550
3556.201499 0.5586 0.5601 0.5632 0.5687 0.5728
3561.116851 0.5748 0.5801 0.5906 0.5985 0.6025
3566.032202 0.6067 0.6112 0.6161 0.6215 0.6261
3570.947553 0.6291 0.6312 0.6317 0.6336 0.6382
3575.862905 0.6425 0.6465 0.6496 0.6511 0.6527
3580.778256 0.6547 0.6569 0.6594 0.6621 0.6651
3585.693608 0.6677 0.6697 0.6719 0.6744 0.6762
3590.608959 0.6767 0.6770 0.6770 0.6770 0.6770
3595.524311 0.6768 0.6763 0.6748 0.6713 0.6683
3600.439662 0.6663 0.6635 0.6590 0.6554 0.6534
3605.355013 0.6496 0.6422 0.6347 0.6272 0.6176
3610.270365 0.6031 0.5908 0.5833 0.5732 0.5571
3615.185716 0.5438 0.5368 0.5317 0.5307 0.5303
3620.101068 0.5313 0.5339 0.5404 0.5460 0.5495
3625.016419 0.5528 0.5558 0.5594 0.5644 0.5698
3629.931770 0.5762 0.5833 0.5917 0.6000 0.6075
3634.847122 0.6143 0.6187 0.6224 0.6239 0.6287
3639.762473 0.6427 0.6565 0.6700 0.6840 0.6994
3644.677825 0.7128 0.7197 0.7270 0.7349 0.7430
3649.593176 0.7515 0.7603 0.7703 0.7795 0.7861
3654.508527 0.7916 0.7941 0.7962 0.7972 0.7987
3659.423879 0.8017 0.8042 0.8052 0.8061 0.8066
3664.339230 0.8070 0.8070 0.8069 0.8064 0.8058
3669.254582 0.8048 0.8039 0.8034 0.8029 0.8024
3674.169933 0.8017 0.8002 0.7986 0.7966 0.7949
3679.085284 0.7944 0.7941 0.7946 0.7959 0.8003
3684.000636 0.8050 0.8105 0.8158 0.8203 0.8250
3688.915987 0.8304 0.8357 0.8397 0.8434 0.8459
3693.831339 0.8485 0.8515 0.8544 0.8569 0.8596
3698.746690 0.8631 0.8662 0.8672 0.8682 0.8697
3703.662042 0.8711 0.8716 0.8721 0.8731 0.8741
3708.577393 0.8746 0.8751 0.8761 0.8773 0.8793
3713.492744 0.8811 0.8816 0.8820 0.8820 0.8821
3718.408096 0.8826 0.8830 0.8830 0.8831 0.8841
3723.323447 0.8850 0.8850 0.8851 0.8856 0.8860
3728.238799 0.8860 0.8861 0.8865 0.8870 0.8870
3733.154150 0.8870 0.8870 0.8871 0.8881 0.8890
3738.069501 0.8890 0.8890 0.8890 0.8890 0.8890
3742.984853 0.8890 0.8895 0.8900 0.8900 0.8900
3747.900204 0.8900 0.8900 0.8895 0.8890 0.8890
3752.815556 0.8890 0.8890 0.8890 0.8890 0.8890
3757.730907 0.8890 0.8889 0.8879 0.8870 0.8870
3762.646258 0.8870 0.8870 0.8870 0.8870 0.8870
3767.561610 0.8870 0.8870 0.8865 0.8860 0.8860
3772.476961 0.8860 0.8860 0.8860 0.8860 0.8860
3777.392313 0.8860 0.8860 0.8855 0.8850 0.8850
3782.307664 0.8850 0.8850 0.8850 0.8850 0.8850
3787.223016 0.8850 0.8850 0.8850 0.8850 0.8840
##END=
