##TITLE=ACETONITRILE, DICHLORO-
##JCAMP-DX=4.24
##DATA TYPE=INFRARED SPECTRUM
##CLASS=COBLENTZ III
##ORIGIN=STANDARD OIL OF OHIO
##OWNER=COBLENTZ SOCIETY
Collection (C) 2018 copyright by the U.S. Secretary of Commerce
on behalf of the United States of America. All rights reserved.
##DATE=1968/01/15
##NAMES=dichloroacetonitrile
##CAS REGISTRY NO=3018-12-0
##MOLFORM=C2 H Cl2 N
##SOURCE REFERENCE=COBLENTZ NO. 10264
##$NIST SOURCE=COBLENTZ
##$NIST IMAGE=cob10264
##SPECTROMETER/DATA SYSTEM=PERKIN-ELMER 521 (GRATING)
##INSTRUMENT PARAMETERS=GRATING CHANGES AT 2000, 630 CM^-^1
##STATE=LIQUID (NEAT)
##PATH LENGTH=0.0021 CM, KBr CELL
##SAMPLING PROCEDURE=TRANSMISSION
##RESOLUTION=4
##DATA PROCESSING=DIGITIZED BY NIST FROM HARD COPY (FROM TWO SEGMENTS)
##XUNITS=1/CM
##YUNITS=TRANSMITTANCE
##XFACTOR=1.000000
##YFACTOR=1
##DELTAX=0.950570
##FIRSTX=297.529
##LASTX=3894.49
##FIRSTY=0.146
##MAXX=3894.49
##MINX=297.529
##MAXY=0.911
##MINY=0.024
##NPOINTS=3785
##XYDATA=(X++(Y..Y))
297.529000 0.1460 0.1490 0.1510 0.1540 0.1570
302.281851 0.1610 0.1650 0.1700 0.1750 0.1800
307.034701 0.1840 0.1880 0.1910 0.1950 0.1970
311.787552 0.1990 0.2020 0.2080 0.2150 0.2190
316.540403 0.2210 0.2230 0.2280 0.2330 0.2380
321.293253 0.2400 0.2440 0.2460 0.2500 0.2530
326.046104 0.2590 0.2630 0.2670 0.2770 0.2860
330.798955 0.2920 0.3020 0.3080 0.3150 0.3190
335.551805 0.3290 0.3370 0.3410 0.3470 0.3540
340.304656 0.3600 0.3670 0.3740 0.3810 0.3890
345.057506 0.3960 0.4040 0.4120 0.4190 0.4250
349.810357 0.4330 0.4380 0.4440 0.4470 0.4560
354.563208 0.4600 0.4630 0.4680 0.4730 0.4820
359.316058 0.4880 0.4940 0.4980 0.5030 0.5070
364.068909 0.5170 0.5270 0.5350 0.5410 0.5530
368.821760 0.5600 0.5670 0.5740 0.5770 0.5790
373.574610 0.5820 0.5870 0.5900 0.5920 0.5970
378.327461 0.6030 0.6120 0.6160 0.6190 0.6220
383.080312 0.6270 0.6320 0.6390 0.6440 0.6450
387.833162 0.6490 0.6500 0.6520 0.6580 0.6640
392.586013 0.6740 0.6770 0.6780 0.6820 0.6840
397.338864 0.6880 0.6910 0.6960 0.7010 0.7060
402.091714 0.7080 0.7100 0.7140 0.7160 0.7190
406.844565 0.7230 0.7260 0.7290 0.7350 0.7380
411.597416 0.7420 0.7450 0.7480 0.7530 0.7580
416.350266 0.7610 0.7640 0.7640 0.7660 0.7700
421.103117 0.7720 0.7760 0.7770 0.7790 0.7810
425.855967 0.7830 0.7850 0.7870 0.7920 0.7930
430.608818 0.7930 0.7960 0.7970 0.8030 0.8040
435.361669 0.8060 0.8080 0.8100 0.8120 0.8130
440.114519 0.8150 0.8150 0.8150 0.8150 0.8150
444.867370 0.8130 0.8130 0.8130 0.8130 0.8170
449.620221 0.8170 0.8170 0.8170 0.8170 0.8170
454.373071 0.8170 0.8170 0.8160 0.8130 0.8060
459.125922 0.8030 0.8020 0.7990 0.7970 0.7920
463.878773 0.7810 0.7770 0.7710 0.7590 0.7540
468.631623 0.7360 0.7070 0.7010 0.6820 0.6670
473.384474 0.6401 0.6141 0.6100 0.6100 0.6110
478.137325 0.6170 0.6320 0.6540 0.6670 0.6870
482.890175 0.7000 0.7060 0.7070 0.7070 0.7030
487.643026 0.7010 0.6930 0.6830 0.6640 0.6391
492.395876 0.5971 0.5711 0.5451 0.4942 0.4403
497.148727 0.3870 0.3410 0.3290 0.3290 0.3480
501.901578 0.4358 0.4559 0.4999 0.5777 0.6138
506.654428 0.6500 0.6830 0.7180 0.7510 0.7839
511.407279 0.8030 0.8170 0.8300 0.8400 0.8440
516.160130 0.8490 0.8540 0.8570 0.8640 0.8690
520.912980 0.8700 0.8730 0.8740 0.8750 0.8770
525.665831 0.8800 0.8810 0.8810 0.8820 0.8850
530.418682 0.8860 0.8860 0.8860 0.8870 0.8870
535.171532 0.8870 0.8880 0.8890 0.8880 0.8890
539.924383 0.8890 0.8890 0.8890 0.8900 0.8900
544.677234 0.8920 0.8920 0.8900 0.8920 0.8920
549.430084 0.8920 0.8920 0.8930 0.8930 0.8940
554.182935 0.8940 0.8940 0.8950 0.8950 0.8950
558.935786 0.8950 0.8960 0.8960 0.8960 0.8990
563.688636 0.8990 0.9000 0.9000 0.9010 0.9010
568.441487 0.9010 0.9010 0.9010 0.9010 0.9010
573.194337 0.9010 0.9010 0.9010 0.9010 0.9010
577.947188 0.9010 0.9020 0.9020 0.9010 0.9010
582.700039 0.9010 0.9010 0.9010 0.9000 0.9000
587.452889 0.9000 0.8990 0.8990 0.8980 0.8980
592.205740 0.8980 0.8980 0.8980 0.8980 0.8980
596.958591 0.8980 0.8980 0.8990 0.9000 0.9000
601.711441 0.9000 0.9000 0.9010 0.9010 0.9010
606.464292 0.9010 0.9020 0.9020 0.9020 0.9040
611.217143 0.9040 0.9040 0.9040 0.9040 0.9040
615.969993 0.9040 0.9050 0.9050 0.9020 0.9020
620.722844 0.9050 0.9070 0.9090 0.9110 0.9110
625.475695 0.9090 0.9090 0.9080 0.9070 0.9060
630.228545 0.9050 0.9050 0.9050 0.9040 0.9040
634.981396 0.9020 0.9010 0.9000 0.8990 0.8980
639.734247 0.8950 0.8920 0.8890 0.8850 0.8810
644.487097 0.8800 0.8770 0.8750 0.8730 0.8700
649.239948 0.8680 0.8640 0.8630 0.8600 0.8560
653.992798 0.8540 0.8500 0.8490 0.8480 0.8470
658.745649 0.8470 0.8470 0.8480 0.8510 0.8550
663.498500 0.8560 0.8560 0.8590 0.8600 0.8610
668.251350 0.8610 0.8620 0.8620 0.8620 0.8610
673.004201 0.8600 0.8560 0.8560 0.8550 0.8540
677.757052 0.8540 0.8530 0.8510 0.8480 0.8440
682.509902 0.8400 0.8310 0.8210 0.8081 0.7921
687.262753 0.7830 0.7770 0.7680 0.7610 0.7590
692.015604 0.7460 0.7350 0.7230 0.7001 0.6701
696.768454 0.6070 0.5720 0.5350 0.4511 0.3552
701.521305 0.2153 0.1502 0.0842 0.0681 0.0680
706.274156 0.0720 0.1010 0.1310 0.1899 0.2609
711.027006 0.3109 0.3828 0.4398 0.4858 0.5537
715.779857 0.5740 0.5880 0.6040 0.6140 0.6200
720.532707 0.6220 0.6220 0.6200 0.6200 0.6190
725.285558 0.6170 0.6140 0.6130 0.6070 0.5990
730.038409 0.5930 0.5850 0.5740 0.5610 0.5540
734.791259 0.5470 0.5310 0.5140 0.4960 0.4770
739.544110 0.4571 0.4321 0.4071 0.3831 0.3611
744.296961 0.3380 0.3160 0.2920 0.2680 0.2421
749.049811 0.2141 0.1751 0.1312 0.1061 0.0901
753.802662 0.0720 0.0460 0.0310 0.0260 0.0240
758.555513 0.0240 0.0240 0.0240 0.0240 0.0240
763.308363 0.0240 0.0240 0.0240 0.0240 0.0240
768.061214 0.0240 0.0260 0.0280 0.0280 0.0290
772.814065 0.0310 0.0360 0.0370 0.0370 0.0400
777.566915 0.0470 0.0560 0.0709 0.1158 0.1429
782.319766 0.1750 0.2080 0.2440 0.2800 0.3159
787.072617 0.3529 0.3869 0.4189 0.4489 0.4729
791.825467 0.5030 0.5550 0.5770 0.5970 0.6160
796.578318 0.6350 0.6510 0.6679 0.6869 0.6950
801.331168 0.6970 0.7080 0.7200 0.7270 0.7380
806.084019 0.7440 0.7510 0.7590 0.7670 0.7770
810.836870 0.7830 0.7910 0.7960 0.8030 0.8060
815.589720 0.8120 0.8160 0.8220 0.8250 0.8320
820.342571 0.8360 0.8370 0.8380 0.8410 0.8430
825.095422 0.8450 0.8470 0.8480 0.8490 0.8500
829.848272 0.8540 0.8560 0.8590 0.8620 0.8660
834.601123 0.8690 0.8720 0.8740 0.8770 0.8820
839.353974 0.8850 0.8870 0.8880 0.8880 0.8890
844.106824 0.8890 0.8920 0.8940 0.8940 0.8940
848.859675 0.8950 0.8960 0.8960 0.8980 0.8980
853.612526 0.8990 0.9000 0.9010 0.9010 0.9010
858.365376 0.9010 0.9020 0.9020 0.9010 0.9020
863.118227 0.9020 0.9020 0.9020 0.9020 0.9010
867.871078 0.9010 0.9010 0.9020 0.9020 0.9020
872.623928 0.9020 0.9010 0.9010 0.9010 0.9010
877.376779 0.9010 0.9010 0.9010 0.9010 0.9010
882.129629 0.9010 0.9010 0.9010 0.9010 0.9010
886.882480 0.9000 0.8990 0.8980 0.8960 0.8960
891.635331 0.8960 0.8950 0.8950 0.8940 0.8940
896.388181 0.8940 0.8930 0.8920 0.8900 0.8890
901.141032 0.8870 0.8850 0.8820 0.8800 0.8790
905.893883 0.8790 0.8770 0.8760 0.8750 0.8700
910.646733 0.8680 0.8640 0.8610 0.8590 0.8550
915.399584 0.8500 0.8430 0.8350 0.8230 0.8100
920.152435 0.7950 0.7780 0.7591 0.7381 0.7121
924.905285 0.6840 0.6490 0.6140 0.5800 0.5650
929.658136 0.5480 0.5071 0.4781 0.4322 0.3832
934.410987 0.3340 0.2960 0.2720 0.2470 0.2280
939.163837 0.1971 0.1691 0.1650 0.1650 0.1680
943.916688 0.1780 0.1970 0.2020 0.2020 0.2010
948.669539 0.1860 0.1631 0.1291 0.1111 0.0931
953.422389 0.0690 0.0670 0.0690 0.0730 0.1109
958.175240 0.1459 0.1909 0.2498 0.3048 0.3597
962.928090 0.4090 0.4570 0.4970 0.5659 0.5880
967.680941 0.6119 0.6299 0.6499 0.6629 0.6739
972.433792 0.6820 0.6900 0.6960 0.7040 0.7120
977.186642 0.7160 0.7190 0.7190 0.7180 0.7160
981.939493 0.7150 0.7140 0.7090 0.7030 0.6960
986.692344 0.6840 0.6690 0.6541 0.6301 0.6001
991.445194 0.5680 0.5480 0.5280 0.5000 0.4731
996.198045 0.4630 0.4620 0.4710 0.4879 0.5537
1000.950896 0.5780 0.5980 0.6290 0.6570 0.6829
1005.703746 0.7089 0.7359 0.7699 0.7919 0.8129
1010.456597 0.8300 0.8380 0.8470 0.8560 0.8620
1015.209448 0.8700 0.8760 0.8830 0.8880 0.8890
1019.962298 0.8900 0.8930 0.8930 0.8930 0.8940
1024.715149 0.8940 0.8950 0.8980 0.8990 0.9010
1029.467999 0.9020 0.9020 0.9020 0.9020 0.9020
1034.220850 0.9040 0.9040 0.9040 0.9040 0.9040
1038.973701 0.9050 0.9050 0.9050 0.9050 0.9050
1043.726551 0.9050 0.9050 0.9050 0.9060 0.9060
1048.479402 0.9060 0.9070 0.9080 0.9080 0.9070
1053.232253 0.9070 0.9080 0.9080 0.9080 0.9080
1057.985103 0.9080 0.9080 0.9080 0.9080 0.9080
1062.737954 0.9080 0.9070 0.9070 0.9080 0.9070
1067.490805 0.9070 0.9070 0.9070 0.9070 0.9070
1072.243655 0.9070 0.9080 0.9080 0.9070 0.9070
1076.996506 0.9080 0.9080 0.9070 0.9070 0.9080
1081.749357 0.9070 0.9070 0.9070 0.9070 0.9070
1086.502207 0.9070 0.9070 0.9070 0.9070 0.9070
1091.255058 0.9060 0.9060 0.9060 0.9060 0.9060
1096.007909 0.9060 0.9060 0.9060 0.9060 0.9060
1100.760759 0.9050 0.9050 0.9040 0.9040 0.9020
1105.513610 0.9020 0.9020 0.9020 0.9010 0.9010
1110.266460 0.9010 0.9010 0.9010 0.9010 0.9000
1115.019311 0.9000 0.8990 0.8980 0.8980 0.8980
1119.772162 0.8960 0.8960 0.8960 0.8960 0.8960
1124.525012 0.8960 0.8960 0.8960 0.8960 0.8960
1129.277863 0.8950 0.8950 0.8950 0.8950 0.8950
1134.030714 0.8950 0.8950 0.8950 0.8950 0.8940
1138.783564 0.8940 0.8930 0.8900 0.8890 0.8880
1143.536415 0.8880 0.8860 0.8850 0.8850 0.8830
1148.289266 0.8830 0.8820 0.8810 0.8790 0.8760
1153.042116 0.8750 0.8740 0.8730 0.8700 0.8690
1157.794967 0.8680 0.8670 0.8660 0.8640 0.8620
1162.547818 0.8610 0.8590 0.8570 0.8550 0.8500
1167.300668 0.8490 0.8470 0.8440 0.8430 0.8410
1172.053519 0.8380 0.8340 0.8270 0.8180 0.8080
1176.806370 0.7990 0.7900 0.7800 0.7700 0.7531
1181.559220 0.7380 0.7230 0.7070 0.6820 0.6590
1186.312071 0.6351 0.6051 0.5731 0.5501 0.5271
1191.064921 0.4880 0.4620 0.4450 0.4430 0.4430
1195.817772 0.4440 0.4510 0.4590 0.4719 0.4849
1200.570623 0.5010 0.5170 0.5310 0.5580 0.5720
1205.323473 0.5860 0.6030 0.6229 0.6369 0.6619
1210.076324 0.6780 0.6940 0.7040 0.7130 0.7230
1214.829175 0.7330 0.7410 0.7480 0.7550 0.7570
1219.582025 0.7590 0.7600 0.7600 0.7590 0.7590
1224.334876 0.7590 0.7580 0.7580 0.7570 0.7550
1229.087727 0.7540 0.7520 0.7470 0.7420 0.7390
1233.840577 0.7380 0.7330 0.7290 0.7220 0.7140
1238.593428 0.7090 0.7020 0.6940 0.6880 0.6780
1243.346279 0.6680 0.6570 0.6450 0.6330 0.6201
1248.099129 0.6050 0.5750 0.5610 0.5470 0.5300
1252.851980 0.5101 0.5050 0.5040 0.5070 0.5130
1257.604830 0.5210 0.5350 0.5630 0.5800 0.5870
1262.357681 0.5980 0.6129 0.6289 0.6459 0.6619
1267.110532 0.6760 0.6900 0.7030 0.7160 0.7320
1271.863382 0.7480 0.7640 0.7849 0.7960 0.8060
1276.616233 0.8150 0.8270 0.8350 0.8370 0.8400
1281.369084 0.8430 0.8490 0.8530 0.8550 0.8560
1286.121934 0.8590 0.8610 0.8620 0.8640 0.8670
1290.874785 0.8690 0.8700 0.8720 0.8740 0.8750
1295.627636 0.8770 0.8820 0.8870 0.8880 0.8890
1300.380486 0.8890 0.8900 0.8900 0.8920 0.8920
1305.133337 0.8930 0.8930 0.8930 0.8930 0.8930
1309.886188 0.8940 0.8940 0.8940 0.8940 0.8940
1314.639038 0.8950 0.8950 0.8950 0.8960 0.8960
1319.391889 0.8960 0.8960 0.8980 0.8980 0.8980
1324.144740 0.8980 0.8980 0.8980 0.8990 0.8990
1328.897590 0.8990 0.8990 0.8990 0.8990 0.8990
1333.650441 0.8990 0.8980 0.8980 0.8980 0.8980
1338.403291 0.8980 0.8980 0.8980 0.8980 0.8980
1343.156142 0.8980 0.8980 0.8980 0.8980 0.8960
1347.908993 0.8960 0.8960 0.8960 0.8960 0.8960
1352.661843 0.8960 0.8960 0.8960 0.8960 0.8960
1357.414694 0.8960 0.8960 0.8960 0.8960 0.8960
1362.167545 0.8960 0.8960 0.8960 0.8960 0.8960
1366.920395 0.8950 0.8950 0.8950 0.8950 0.8950
1371.673246 0.8950 0.8940 0.8940 0.8940 0.8940
1376.426097 0.8940 0.8940 0.8940 0.8940 0.8940
1381.178947 0.8950 0.8980 0.8990 0.9000 0.9000
1385.931798 0.9010 0.9010 0.9010 0.9010 0.9010
1390.684649 0.9010 0.9010 0.9010 0.9010 0.9010
1395.437499 0.9010 0.9010 0.9010 0.9010 0.9010
1400.190350 0.9000 0.8990 0.8980 0.8980 0.8980
1404.943201 0.8960 0.8960 0.8950 0.8940 0.8940
1409.696051 0.8940 0.8940 0.8930 0.8930 0.8930
1414.448902 0.8930 0.8930 0.8930 0.8930 0.8930
1419.201752 0.8930 0.8940 0.8940 0.8940 0.8940
1423.954603 0.8950 0.8950 0.8960 0.8990 0.9000
1428.707454 0.9000 0.9010 0.9010 0.9000 0.9000
1433.460304 0.9000 0.9000 0.9000 0.9000 0.9000
1438.213155 0.9000 0.8990 0.8990 0.8990 0.8990
1442.966006 0.8980 0.8980 0.8980 0.8960 0.8960
1447.718856 0.8960 0.8960 0.8960 0.8950 0.8950
1452.471707 0.8940 0.8940 0.8930 0.8930 0.8920
1457.224558 0.8900 0.8900 0.8890 0.8880 0.8820
1461.977408 0.8800 0.8770 0.8760 0.8750 0.8740
1466.730259 0.8730 0.8690 0.8640 0.8610 0.8570
1471.483110 0.8560 0.8540 0.8540 0.8540 0.8550
1476.235960 0.8550 0.8560 0.8570 0.8590 0.8600
1480.988811 0.8610 0.8630 0.8640 0.8660 0.8680
1485.741661 0.8690 0.8700 0.8720 0.8740 0.8750
1490.494512 0.8770 0.8850 0.8860 0.8880 0.8900
1495.247363 0.8900 0.8920 0.8940 0.8940 0.8960
1500.000213 0.8980 0.8980 0.8980 0.8990 0.8990
1504.753064 0.8990 0.8990 0.8990 0.8980 0.8980
1509.505915 0.8980 0.8980 0.8980 0.8980 0.8960
1514.258765 0.8960 0.8960 0.8950 0.8950 0.8950
1519.011616 0.8950 0.8940 0.8940 0.8940 0.8940
1523.764467 0.8940 0.8940 0.8940 0.8940 0.8930
1528.517317 0.8930 0.8920 0.8920 0.8900 0.8900
1533.270168 0.8900 0.8900 0.8900 0.8900 0.8900
1538.023019 0.8900 0.8920 0.8920 0.8920 0.8930
1542.775869 0.8930 0.8940 0.8940 0.8940 0.8950
1547.528720 0.8960 0.8980 0.8980 0.8990 0.9000
1552.281571 0.9000 0.9000 0.9000 0.9000 0.9000
1557.034421 0.9010 0.9010 0.9040 0.9040 0.9040
1561.787272 0.9040 0.9040 0.9040 0.9040 0.9040
1566.540122 0.9040 0.9040 0.9040 0.9020 0.9020
1571.292973 0.9020 0.9020 0.9010 0.9010 0.9010
1576.045824 0.9010 0.9000 0.9000 0.9000 0.9000
1580.798674 0.9000 0.9000 0.9000 0.9000 0.9000
1585.551525 0.9000 0.9000 0.9000 0.9000 0.9000
1590.304376 0.9000 0.9000 0.9000 0.9000 0.9000
1595.057226 0.9000 0.9000 0.9000 0.9000 0.9000
1599.810077 0.9000 0.9000 0.9010 0.9010 0.9010
1604.562928 0.9010 0.9010 0.9010 0.9010 0.9010
1609.315778 0.9020 0.9020 0.9020 0.9020 0.9020
1614.068629 0.9020 0.9020 0.9020 0.9040 0.9040
1618.821480 0.9040 0.9040 0.9040 0.9040 0.9040
1623.574330 0.9040 0.9040 0.9020 0.9020 0.9010
1628.327181 0.9010 0.9000 0.9000 0.9000 0.8990
1633.080032 0.8990 0.8980 0.8980 0.8960 0.8960
1637.832882 0.8950 0.8950 0.8950 0.8950 0.8940
1642.585733 0.8940 0.8930 0.8930 0.8920 0.8920
1647.338583 0.8920 0.8900 0.8900 0.8890 0.8890
1652.091434 0.8890 0.8890 0.8890 0.8900 0.8900
1656.844285 0.8900 0.8900 0.8900 0.8900 0.8900
1661.597135 0.8890 0.8890 0.8890 0.8890 0.8880
1666.349986 0.8880 0.8860 0.8860 0.8860 0.8850
1671.102837 0.8830 0.8820 0.8820 0.8810 0.8810
1675.855687 0.8810 0.8800 0.8790 0.8770 0.8760
1680.608538 0.8760 0.8760 0.8750 0.8750 0.8750
1685.361389 0.8750 0.8750 0.8750 0.8750 0.8740
1690.114239 0.8740 0.8750 0.8750 0.8750 0.8750
1694.867090 0.8750 0.8750 0.8750 0.8740 0.8730
1699.619941 0.8720 0.8700 0.8700 0.8690 0.8690
1704.372791 0.8690 0.8690 0.8690 0.8690 0.8690
1709.125642 0.8690 0.8690 0.8690 0.8690 0.8690
1713.878493 0.8690 0.8700 0.8720 0.8730 0.8730
1718.631343 0.8740 0.8750 0.8770 0.8800 0.8800
1723.384194 0.8810 0.8820 0.8830 0.8850 0.8870
1728.137044 0.8880 0.8890 0.8890 0.8900 0.8900
1732.889895 0.8920 0.8930 0.8940 0.8940 0.8940
1737.642746 0.8950 0.8950 0.8950 0.8950 0.8960
1742.395596 0.8960 0.8960 0.8960 0.8960 0.8960
1747.148447 0.8960 0.8960 0.8960 0.8960 0.8980
1751.901298 0.8980 0.8980 0.8980 0.8980 0.8980
1756.654148 0.8980 0.8990 0.8990 0.9000 0.9000
1761.406999 0.9000 0.9000 0.9010 0.9010 0.9010
1766.159850 0.9010 0.9010 0.9010 0.9020 0.9020
1770.912700 0.9020 0.9020 0.9020 0.9040 0.9040
1775.665551 0.9050 0.9050 0.9050 0.9050 0.9050
1780.418402 0.9060 0.9060 0.9060 0.9060 0.9060
1785.171252 0.9060 0.9060 0.9060 0.9060 0.9060
1789.924103 0.9060 0.9060 0.9060 0.9060 0.9070
1794.676953 0.9070 0.9070 0.9070 0.9070 0.9070
1799.429804 0.9070 0.9070 0.9070 0.9070 0.9070
1804.182655 0.9070 0.9070 0.9070 0.9070 0.9070
1808.935505 0.9070 0.9070 0.9070 0.9070 0.9070
1813.688356 0.9070 0.9070 0.9070 0.9070 0.9070
1818.441207 0.9060 0.9060 0.9060 0.9060 0.9060
1823.194057 0.9060 0.9060 0.9060 0.9060 0.9060
1827.946908 0.9060 0.9060 0.9060 0.9060 0.9060
1832.699759 0.9060 0.9060 0.9060 0.9060 0.9060
1837.452609 0.9060 0.9060 0.9060 0.9060 0.9060
1842.205460 0.9060 0.9060 0.9060 0.9060 0.9060
1846.958311 0.9060 0.9060 0.9060 0.9060 0.9060
1851.711161 0.9060 0.9060 0.9060 0.9060 0.9060
1856.464012 0.9050 0.9050 0.9050 0.9050 0.9050
1861.216863 0.9050 0.9050 0.9050 0.9050 0.9050
1865.969713 0.9050 0.9050 0.9050 0.9050 0.9050
1870.722564 0.9050 0.9050 0.9050 0.9050 0.9050
1875.475414 0.9050 0.9050 0.9050 0.9050 0.9050
1880.228265 0.9040 0.9040 0.9050 0.9050 0.9050
1884.981116 0.9040 0.9040 0.9040 0.9040 0.9050
1889.733966 0.9040 0.9040 0.9040 0.9040 0.9050
1894.486817 0.9040 0.9050 0.9050 0.9040 0.9040
1899.239668 0.9040 0.9040 0.9040 0.9040 0.9050
1903.992518 0.9050 0.9050 0.9040 0.9040 0.9040
1908.745369 0.9040 0.9040 0.9040 0.9040 0.9040
1913.498220 0.9040 0.9050 0.9050 0.9050 0.9050
1918.251070 0.9040 0.9040 0.9040 0.9050 0.9050
1923.003921 0.9040 0.9020 0.9020 0.9020 0.9020
1927.756772 0.9020 0.9020 0.9020 0.9020 0.9020
1932.509622 0.9020 0.9020 0.9020 0.9020 0.9020
1937.262473 0.9020 0.9020 0.9020 0.9010 0.9000
1942.015324 0.9000 0.9000 0.9000 0.9000 0.9000
1946.768174 0.9000 0.8990 0.8990 0.8990 0.8990
1951.521025 0.8990 0.8980 0.8980 0.8980 0.8980
1956.273875 0.8980 0.8980 0.8980 0.8980 0.8980
1961.026726 0.8980 0.8980 0.8980 0.8980 0.8980
1965.779577 0.8980 0.8980 0.8980 0.8980 0.8980
1970.532427 0.8980 0.8980 0.8980 0.8980 0.8980
1975.285278 0.8980 0.8980 0.8980 0.8980 0.8980
1980.038129 0.8980 0.8980 0.8980 0.8980 0.8980
1984.790979 0.8980 0.8980 0.8980 0.8980 0.8980
1989.543830 0.8980 0.8980 0.8980 0.8980 0.8980
1994.296681 0.8980 0.8980 0.8980 0.8980 0.8980
1999.049531 0.8960 0.8960 0.8960 0.8960 0.8960
2003.802382 0.8960 0.8960 0.8960 0.8955 0.8950
2008.555233 0.8950 0.8950 0.8950 0.8950 0.8950
2013.308083 0.8950 0.8950 0.8950 0.8950 0.8950
2018.060934 0.8950 0.8950 0.8950 0.8950 0.8950
2022.813784 0.8950 0.8955 0.8960 0.8960 0.8960
2027.566635 0.8960 0.8960 0.8955 0.8950 0.8950
2032.319486 0.8950 0.8950 0.8950 0.8950 0.8950
2037.072336 0.8950 0.8950 0.8950 0.8950 0.8950
2041.825187 0.8950 0.8950 0.8950 0.8950 0.8950
2046.578038 0.8950 0.8950 0.8950 0.8950 0.8950
2051.330888 0.8950 0.8955 0.8960 0.8955 0.8950
2056.083739 0.8950 0.8950 0.8950 0.8950 0.8950
2060.836590 0.8950 0.8950 0.8950 0.8945 0.8940
2065.589440 0.8940 0.8940 0.8945 0.8950 0.8945
2070.342291 0.8940 0.8940 0.8940 0.8940 0.8940
2075.095142 0.8940 0.8941 0.8946 0.8950 0.8950
2079.847992 0.8950 0.8950 0.8949 0.8944 0.8940
2084.600843 0.8940 0.8940 0.8940 0.8940 0.8940
2089.353694 0.8940 0.8940 0.8941 0.8946 0.8950
2094.106544 0.8950 0.8950 0.8950 0.8950 0.8950
2098.859395 0.8950 0.8950 0.8950 0.8950 0.8950
2103.612245 0.8950 0.8950 0.8950 0.8950 0.8950
2108.365096 0.8950 0.8950 0.8950 0.8950 0.8950
2113.117947 0.8950 0.8950 0.8950 0.8950 0.8950
2117.870797 0.8950 0.8950 0.8950 0.8950 0.8950
2122.623648 0.8950 0.8950 0.8950 0.8950 0.8950
2127.376499 0.8950 0.8950 0.8949 0.8944 0.8940
2132.129349 0.8940 0.8940 0.8940 0.8939 0.8934
2136.882200 0.8930 0.8930 0.8930 0.8930 0.8930
2141.635051 0.8930 0.8929 0.8924 0.8921 0.8926
2146.387901 0.8930 0.8930 0.8930 0.8930 0.8929
2151.140752 0.8924 0.8920 0.8920 0.8918 0.8908
2155.893603 0.8900 0.8900 0.8900 0.8900 0.8900
2160.646453 0.8900 0.8900 0.8900 0.8900 0.8900
2165.399304 0.8900 0.8900 0.8900 0.8900 0.8900
2170.152155 0.8900 0.8899 0.8894 0.8890 0.8890
2174.905005 0.8890 0.8890 0.8890 0.8890 0.8890
2179.657856 0.8890 0.8887 0.8872 0.8859 0.8854
2184.410706 0.8850 0.8850 0.8850 0.8850 0.8848
2189.163557 0.8838 0.8830 0.8830 0.8830 0.8830
2193.916408 0.8830 0.8830 0.8830 0.8830 0.8830
2198.669258 0.8830 0.8829 0.8824 0.8819 0.8814
2203.422109 0.8810 0.8810 0.8810 0.8810 0.8809
2208.174960 0.8804 0.8800 0.8800 0.8800 0.8800
2212.927810 0.8800 0.8800 0.8800 0.8800 0.8800
2217.680661 0.8800 0.8800 0.8800 0.8800 0.8800
2222.433512 0.8799 0.8794 0.8787 0.8777 0.8770
2227.186362 0.8770 0.8768 0.8763 0.8758 0.8753
2231.939213 0.8747 0.8737 0.8724 0.8704 0.8687
2236.692064 0.8677 0.8664 0.8644 0.8627 0.8617
2241.444914 0.8607 0.8597 0.8578 0.8538 0.8498
2246.197765 0.8457 0.8415 0.8370 0.8332 0.8307
2250.950616 0.8283 0.8263 0.8248 0.8243 0.8242
2255.703466 0.8247 0.8253 0.8263 0.8278 0.8303
2260.456317 0.8340 0.8400 0.8458 0.8513 0.8569
2265.209167 0.8624 0.8676 0.8721 0.8754 0.8764
2269.962018 0.8775 0.8790 0.8800 0.8800 0.8800
2274.714869 0.8800 0.8800 0.8800 0.8800 0.8800
2279.467719 0.8800 0.8800 0.8800 0.8800 0.8800
2284.220570 0.8800 0.8800 0.8800 0.8800 0.8800
2288.973421 0.8800 0.8800 0.8800 0.8800 0.8800
2293.726271 0.8800 0.8800 0.8800 0.8800 0.8800
2298.479122 0.8800 0.8800 0.8800 0.8800 0.8800
2303.231973 0.8800 0.8800 0.8800 0.8800 0.8800
2307.984823 0.8800 0.8800 0.8800 0.8800 0.8800
2312.737674 0.8800 0.8800 0.8800 0.8800 0.8800
2317.490525 0.8798 0.8793 0.8790 0.8790 0.8790
2322.243375 0.8790 0.8790 0.8790 0.8790 0.8790
2326.996226 0.8790 0.8790 0.8786 0.8776 0.8770
2331.749076 0.8770 0.8770 0.8770 0.8770 0.8770
2336.501927 0.8770 0.8770 0.8768 0.8763 0.8758
2341.254778 0.8753 0.8748 0.8743 0.8740 0.8740
2346.007628 0.8735 0.8725 0.8711 0.8691 0.8666
2350.760479 0.8636 0.8609 0.8584 0.8563 0.8548
2355.513330 0.8531 0.8511 0.8498 0.8493 0.8488
2360.266180 0.8483 0.8478 0.8473 0.8465 0.8455
2365.019031 0.8448 0.8443 0.8435 0.8425 0.8410
2369.771882 0.8390 0.8375 0.8365 0.8350 0.8330
2374.524732 0.8318 0.8313 0.8310 0.8310 0.8310
2379.277583 0.8310 0.8310 0.8310 0.8310 0.8310
2384.030434 0.8310 0.8310 0.8310 0.8310 0.8313
2388.783284 0.8318 0.8325 0.8335 0.8343 0.8348
2393.536135 0.8355 0.8365 0.8370 0.8370 0.8373
2398.288986 0.8378 0.8380 0.8380 0.8385 0.8395
2403.041836 0.8400 0.8400 0.8400 0.8400 0.8400
2407.794687 0.8400 0.8400 0.8400 0.8400 0.8400
2412.547537 0.8400 0.8400 0.8403 0.8408 0.8413
2417.300388 0.8418 0.8420 0.8420 0.8423 0.8428
2422.053239 0.8433 0.8438 0.8440 0.8440 0.8443
2426.806089 0.8448 0.8456 0.8466 0.8476 0.8486
2431.558940 0.8493 0.8498 0.8508 0.8523 0.8530
2436.311791 0.8530 0.8533 0.8538 0.8540 0.8540
2441.064641 0.8540 0.8540 0.8540 0.8540 0.8540
2445.817492 0.8540 0.8540 0.8540 0.8540 0.8540
2450.570343 0.8540 0.8540 0.8540 0.8540 0.8540
2455.323193 0.8540 0.8540 0.8540 0.8540 0.8540
2460.076044 0.8540 0.8540 0.8543 0.8548 0.8550
2464.828895 0.8550 0.8547 0.8542 0.8540 0.8540
2469.581745 0.8540 0.8540 0.8540 0.8540 0.8540
2474.334596 0.8540 0.8540 0.8540 0.8537 0.8532
2479.087447 0.8530 0.8530 0.8530 0.8530 0.8530
2483.840297 0.8530 0.8530 0.8530 0.8524 0.8514
2488.593148 0.8510 0.8510 0.8507 0.8502 0.8497
2493.345998 0.8492 0.8483 0.8473 0.8470 0.8470
2498.098849 0.8463 0.8453 0.8450 0.8450 0.8450
2502.851700 0.8450 0.8450 0.8450 0.8450 0.8450
2507.604550 0.8450 0.8450 0.8450 0.8450 0.8450
2512.357401 0.8450 0.8450 0.8450 0.8450 0.8450
2517.110252 0.8450 0.8450 0.8450 0.8450 0.8450
2521.863102 0.8450 0.8457 0.8467 0.8470 0.8470
2526.615953 0.8473 0.8478 0.8483 0.8488 0.8497
2531.368804 0.8507 0.8521 0.8536 0.8544 0.8549
2536.121654 0.8557 0.8567 0.8581 0.8596 0.8604
2540.874505 0.8609 0.8614 0.8619 0.8627 0.8637
2545.627356 0.8651 0.8666 0.8677 0.8687 0.8694
2550.380206 0.8699 0.8707 0.8717 0.8724 0.8729
2555.133057 0.8730 0.8730 0.8734 0.8739 0.8744
2559.885907 0.8749 0.8754 0.8759 0.8760 0.8760
2564.638758 0.8764 0.8769 0.8770 0.8770 0.8770
2569.391609 0.8770 0.8778 0.8788 0.8790 0.8790
2574.144459 0.8790 0.8790 0.8790 0.8790 0.8794
2578.897310 0.8799 0.8800 0.8800 0.8800 0.8800
2583.650161 0.8800 0.8800 0.8800 0.8800 0.8800
2588.403011 0.8800 0.8800 0.8800 0.8800 0.8800
2593.155862 0.8800 0.8800 0.8800 0.8800 0.8800
2597.908713 0.8800 0.8804 0.8809 0.8810 0.8810
2602.661563 0.8806 0.8801 0.8800 0.8800 0.8800
2607.414414 0.8800 0.8800 0.8800 0.8800 0.8800
2612.167265 0.8800 0.8800 0.8804 0.8809 0.8810
2616.920115 0.8810 0.8810 0.8810 0.8810 0.8810
2621.672966 0.8810 0.8810 0.8806 0.8801 0.8800
2626.425817 0.8800 0.8800 0.8800 0.8800 0.8800
2631.178667 0.8800 0.8800 0.8800 0.8800 0.8800
2635.931518 0.8800 0.8800 0.8800 0.8804 0.8809
2640.684368 0.8810 0.8810 0.8810 0.8810 0.8810
2645.437219 0.8810 0.8810 0.8810 0.8810 0.8810
2650.190070 0.8810 0.8810 0.8810 0.8810 0.8806
2654.942920 0.8801 0.8800 0.8800 0.8800 0.8800
2659.695771 0.8800 0.8800 0.8804 0.8809 0.8806
2664.448622 0.8801 0.8800 0.8800 0.8800 0.8800
2669.201472 0.8800 0.8800 0.8800 0.8800 0.8800
2673.954323 0.8800 0.8800 0.8800 0.8800 0.8800
2678.707174 0.8800 0.8800 0.8800 0.8800 0.8800
2683.460024 0.8800 0.8800 0.8800 0.8800 0.8800
2688.212875 0.8800 0.8800 0.8800 0.8800 0.8800
2692.965726 0.8800 0.8800 0.8800 0.8800 0.8800
2697.718576 0.8800 0.8800 0.8800 0.8800 0.8800
2702.471427 0.8800 0.8800 0.8800 0.8800 0.8800
2707.224278 0.8795 0.8790 0.8790 0.8790 0.8790
2711.977128 0.8790 0.8781 0.8771 0.8765 0.8760
2716.729979 0.8760 0.8760 0.8760 0.8760 0.8760
2721.482829 0.8760 0.8760 0.8760 0.8760 0.8760
2726.235680 0.8760 0.8760 0.8760 0.8760 0.8760
2730.988531 0.8760 0.8760 0.8760 0.8760 0.8760
2735.741381 0.8765 0.8770 0.8770 0.8770 0.8770
2740.494232 0.8770 0.8770 0.8770 0.8780 0.8790
2745.247083 0.8795 0.8800 0.8800 0.8800 0.8800
2749.999933 0.8800 0.8800 0.8800 0.8800 0.8800
2754.752784 0.8800 0.8800 0.8800 0.8800 0.8795
2759.505635 0.8790 0.8790 0.8790 0.8790 0.8790
2764.258485 0.8790 0.8790 0.8790 0.8790 0.8790
2769.011336 0.8790 0.8790 0.8790 0.8790 0.8790
2773.764187 0.8790 0.8790 0.8790 0.8790 0.8795
2778.517037 0.8800 0.8800 0.8800 0.8800 0.8800
2783.269888 0.8800 0.8800 0.8800 0.8800 0.8800
2788.022739 0.8800 0.8795 0.8790 0.8790 0.8790
2792.775589 0.8790 0.8790 0.8790 0.8790 0.8790
2797.528440 0.8790 0.8790 0.8790 0.8790 0.8789
2802.281290 0.8779 0.8770 0.8770 0.8770 0.8770
2807.034141 0.8770 0.8770 0.8770 0.8770 0.8770
2811.786992 0.8770 0.8770 0.8770 0.8770 0.8770
2816.539842 0.8770 0.8770 0.8770 0.8770 0.8770
2821.292693 0.8770 0.8770 0.8765 0.8760 0.8760
2826.045544 0.8760 0.8755 0.8750 0.8745 0.8740
2830.798394 0.8740 0.8740 0.8740 0.8740 0.8734
2835.551245 0.8730 0.8730 0.8730 0.8730 0.8730
2840.304096 0.8730 0.8729 0.8724 0.8720 0.8720
2845.056946 0.8720 0.8720 0.8720 0.8720 0.8720
2849.809797 0.8720 0.8719 0.8709 0.8699 0.8694
2854.562648 0.8690 0.8690 0.8689 0.8684 0.8679
2859.315498 0.8674 0.8668 0.8653 0.8640 0.8640
2864.068349 0.8640 0.8640 0.8640 0.8640 0.8640
2868.821199 0.8640 0.8639 0.8634 0.8629 0.8618
2873.574050 0.8610 0.8610 0.8609 0.8604 0.8600
2878.326901 0.8600 0.8599 0.8594 0.8590 0.8590
2883.079751 0.8588 0.8578 0.8570 0.8570 0.8569
2887.832602 0.8564 0.8559 0.8554 0.8547 0.8526
2892.585453 0.8508 0.8498 0.8490 0.8490 0.8490
2897.338303 0.8490 0.8489 0.8484 0.8477 0.8462
2902.091154 0.8448 0.8438 0.8430 0.8430 0.8429
2906.844005 0.8424 0.8419 0.8414 0.8409 0.8404
2911.596855 0.8395 0.8370 0.8347 0.8332 0.8320
2916.349706 0.8320 0.8316 0.8296 0.8276 0.8256
2921.102557 0.8238 0.8228 0.8215 0.8190 0.8169
2925.855407 0.8164 0.8157 0.8142 0.8122 0.8087
2930.608258 0.8053 0.8023 0.7994 0.7969 0.7946
2935.361109 0.7931 0.7913 0.7883 0.7854 0.7829
2940.113959 0.7806 0.7791 0.7774 0.7749 0.7721
2944.866810 0.7686 0.7650 0.7610 0.7573 0.7542
2949.619660 0.7509 0.7469 0.7424 0.7364 0.7305
2954.372511 0.7250 0.7195 0.7140 0.7079 0.6999
2959.125362 0.6908 0.6788 0.6665 0.6535 0.6405
2963.878212 0.6275 0.6138 0.5983 0.5824 0.5652
2968.631063 0.5501 0.5401 0.5298 0.5188 0.5043
2973.383914 0.4813 0.4568 0.4288 0.3995 0.3669
2978.136764 0.3299 0.2819 0.2353 0.1923 0.1568
2982.889615 0.1393 0.1220 0.1050 0.0866 0.0649
2987.642466 0.0492 0.0467 0.0450 0.0450 0.0456
2992.395316 0.0476 0.0519 0.0609 0.0748 0.0993
2997.148167 0.1186 0.1266 0.1336 0.1386 0.1662
3001.901018 0.2417 0.3028 0.3333 0.3584 0.3720
3006.653868 0.3919 0.4239 0.4541 0.4806 0.5119
3011.406719 0.5524 0.5843 0.5998 0.6145 0.6275
3016.159570 0.6398 0.6508 0.6618 0.6728 0.6836
3020.912420 0.6941 0.7024 0.7064 0.7106 0.7151
3025.665271 0.7193 0.7228 0.7267 0.7312 0.7351
3030.418121 0.7381 0.7411 0.7441 0.7471 0.7501
3035.170972 0.7535 0.7575 0.7609 0.7634 0.7654
3039.923823 0.7664 0.7676 0.7691 0.7704 0.7714
3044.676673 0.7730 0.7755 0.7776 0.7791 0.7810
3049.429524 0.7835 0.7862 0.7892 0.7914 0.7924
3054.182375 0.7934 0.7944 0.7954 0.7964 0.7982
3058.935225 0.8012 0.8032 0.8037 0.8042 0.8047
3063.688076 0.8058 0.8078 0.8098 0.8118 0.8136
3068.440927 0.8151 0.8162 0.8167 0.8172 0.8177
3073.193777 0.8188 0.8208 0.8224 0.8234 0.8248
3077.946628 0.8268 0.8293 0.8323 0.8344 0.8354
3082.699479 0.8364 0.8374 0.8384 0.8394 0.8400
3087.452329 0.8400 0.8402 0.8407 0.8410 0.8410
3092.205180 0.8410 0.8410 0.8414 0.8424 0.8432
3096.958030 0.8437 0.8449 0.8469 0.8487 0.8502
3101.710881 0.8515 0.8525 0.8532 0.8537 0.8540
3106.463732 0.8540 0.8540 0.8540 0.8542 0.8547
3111.216582 0.8550 0.8550 0.8552 0.8557 0.8562
3115.969433 0.8567 0.8575 0.8585 0.8590 0.8590
3120.722284 0.8590 0.8590 0.8590 0.8590 0.8590
3125.475134 0.8590 0.8590 0.8590 0.8585 0.8575
3130.227985 0.8570 0.8570 0.8570 0.8570 0.8570
3134.980836 0.8570 0.8570 0.8570 0.8570 0.8570
3139.733686 0.8570 0.8570 0.8570 0.8570 0.8570
3144.486537 0.8570 0.8570 0.8570 0.8570 0.8570
3149.239388 0.8570 0.8570 0.8570 0.8570 0.8570
3153.992238 0.8570 0.8570 0.8570 0.8570 0.8570
3158.745089 0.8570 0.8570 0.8570 0.8570 0.8570
3163.497940 0.8570 0.8570 0.8570 0.8570 0.8570
3168.250790 0.8570 0.8570 0.8570 0.8570 0.8570
3173.003641 0.8570 0.8570 0.8570 0.8570 0.8570
3177.756491 0.8570 0.8570 0.8570 0.8570 0.8570
3182.509342 0.8570 0.8567 0.8562 0.8560 0.8560
3187.262193 0.8560 0.8560 0.8557 0.8552 0.8550
3192.015043 0.8550 0.8550 0.8550 0.8550 0.8550
3196.767894 0.8544 0.8534 0.8530 0.8530 0.8533
3201.520745 0.8538 0.8537 0.8532 0.8530 0.8530
3206.273595 0.8524 0.8514 0.8510 0.8510 0.8510
3211.026446 0.8510 0.8510 0.8510 0.8510 0.8510
3215.779297 0.8510 0.8510 0.8516 0.8526 0.8530
3220.532147 0.8530 0.8533 0.8538 0.8543 0.8548
3225.284998 0.8550 0.8550 0.8553 0.8558 0.8569
3230.037849 0.8584 0.8593 0.8598 0.8600 0.8600
3234.790699 0.8603 0.8608 0.8610 0.8610 0.8613
3239.543550 0.8618 0.8620 0.8620 0.8620 0.8620
3244.296401 0.8620 0.8620 0.8620 0.8620 0.8620
3249.049251 0.8620 0.8620 0.8620 0.8620 0.8620
3253.802102 0.8623 0.8628 0.8630 0.8630 0.8630
3258.554952 0.8630 0.8630 0.8630 0.8630 0.8630
3263.307803 0.8630 0.8630 0.8630 0.8630 0.8630
3268.060654 0.8630 0.8630 0.8630 0.8630 0.8630
3272.813504 0.8630 0.8630 0.8633 0.8638 0.8640
3277.566355 0.8640 0.8640 0.8640 0.8640 0.8640
3282.319206 0.8640 0.8640 0.8647 0.8657 0.8660
3287.072056 0.8660 0.8660 0.8660 0.8660 0.8660
3291.824907 0.8653 0.8643 0.8640 0.8640 0.8640
3296.577758 0.8640 0.8640 0.8640 0.8636 0.8631
3301.330608 0.8634 0.8639 0.8640 0.8640 0.8640
3306.083459 0.8640 0.8640 0.8640 0.8636 0.8631
3310.836310 0.8630 0.8630 0.8630 0.8630 0.8630
3315.589160 0.8630 0.8630 0.8630 0.8630 0.8630
3320.342011 0.8630 0.8630 0.8630 0.8630 0.8630
3325.094861 0.8630 0.8630 0.8630 0.8630 0.8630
3329.847712 0.8630 0.8630 0.8630 0.8630 0.8630
3334.600563 0.8630 0.8630 0.8630 0.8630 0.8630
3339.353413 0.8630 0.8630 0.8630 0.8630 0.8630
3344.106264 0.8630 0.8630 0.8630 0.8626 0.8621
3348.859115 0.8620 0.8620 0.8620 0.8620 0.8620
3353.611965 0.8620 0.8620 0.8620 0.8620 0.8620
3358.364816 0.8620 0.8620 0.8620 0.8620 0.8620
3363.117667 0.8620 0.8620 0.8620 0.8620 0.8620
3367.870517 0.8620 0.8620 0.8620 0.8620 0.8620
3372.623368 0.8620 0.8620 0.8620 0.8620 0.8620
3377.376219 0.8624 0.8629 0.8630 0.8630 0.8634
3382.129069 0.8639 0.8640 0.8640 0.8640 0.8640
3386.881920 0.8640 0.8640 0.8640 0.8640 0.8640
3391.634771 0.8640 0.8640 0.8640 0.8640 0.8640
3396.387621 0.8649 0.8659 0.8660 0.8660 0.8660
3401.140472 0.8660 0.8660 0.8660 0.8660 0.8660
3405.893322 0.8660 0.8660 0.8660 0.8660 0.8660
3410.646173 0.8660 0.8660 0.8660 0.8660 0.8660
3415.399024 0.8660 0.8660 0.8651 0.8641 0.8640
3420.151874 0.8640 0.8640 0.8640 0.8640 0.8640
3424.904725 0.8640 0.8640 0.8640 0.8640 0.8640
3429.657576 0.8640 0.8640 0.8640 0.8640 0.8640
3434.410426 0.8640 0.8640 0.8640 0.8640 0.8640
3439.163277 0.8640 0.8640 0.8640 0.8640 0.8640
3443.916128 0.8640 0.8640 0.8640 0.8640 0.8640
3448.668978 0.8640 0.8640 0.8640 0.8640 0.8640
3453.421829 0.8640 0.8640 0.8640 0.8640 0.8640
3458.174680 0.8640 0.8640 0.8640 0.8640 0.8640
3462.927530 0.8640 0.8640 0.8640 0.8640 0.8640
3467.680381 0.8640 0.8640 0.8640 0.8640 0.8640
3472.433232 0.8640 0.8640 0.8640 0.8640 0.8640
3477.186082 0.8640 0.8650 0.8660 0.8660 0.8660
3481.938933 0.8660 0.8660 0.8660 0.8660 0.8660
3486.691783 0.8660 0.8660 0.8660 0.8660 0.8660
3491.444634 0.8660 0.8660 0.8660 0.8660 0.8660
3496.197485 0.8660 0.8660 0.8660 0.8660 0.8660
3500.950335 0.8660 0.8660 0.8660 0.8660 0.8660
3505.703186 0.8660 0.8660 0.8660 0.8660 0.8660
3510.456037 0.8660 0.8660 0.8660 0.8660 0.8660
3515.208887 0.8660 0.8660 0.8660 0.8660 0.8660
3519.961738 0.8660 0.8660 0.8660 0.8660 0.8660
3524.714589 0.8660 0.8660 0.8660 0.8660 0.8660
3529.467439 0.8660 0.8660 0.8660 0.8660 0.8660
3534.220290 0.8660 0.8660 0.8660 0.8660 0.8660
3538.973141 0.8660 0.8660 0.8660 0.8660 0.8660
3543.725991 0.8660 0.8660 0.8660 0.8660 0.8660
3548.478842 0.8660 0.8660 0.8660 0.8660 0.8660
3553.231693 0.8660 0.8660 0.8660 0.8660 0.8660
3557.984543 0.8660 0.8660 0.8660 0.8659 0.8649
3562.737394 0.8640 0.8640 0.8640 0.8640 0.8640
3567.490244 0.8640 0.8640 0.8640 0.8640 0.8640
3572.243095 0.8640 0.8640 0.8640 0.8640 0.8640
3576.995946 0.8640 0.8640 0.8640 0.8640 0.8640
3581.748796 0.8639 0.8634 0.8630 0.8630 0.8630
3586.501647 0.8630 0.8630 0.8630 0.8630 0.8630
3591.254498 0.8630 0.8630 0.8630 0.8630 0.8631
3596.007348 0.8636 0.8640 0.8640 0.8640 0.8640
3600.760199 0.8639 0.8634 0.8630 0.8630 0.8630
3605.513050 0.8630 0.8630 0.8630 0.8630 0.8630
3610.265900 0.8630 0.8630 0.8630 0.8630 0.8630
3615.018751 0.8630 0.8630 0.8630 0.8630 0.8630
3619.771602 0.8630 0.8630 0.8630 0.8630 0.8629
3624.524452 0.8624 0.8620 0.8620 0.8620 0.8620
3629.277303 0.8620 0.8620 0.8620 0.8620 0.8620
3634.030153 0.8620 0.8620 0.8620 0.8619 0.8614
3638.783004 0.8610 0.8610 0.8610 0.8610 0.8610
3643.535855 0.8610 0.8610 0.8610 0.8610 0.8610
3648.288705 0.8610 0.8610 0.8610 0.8610 0.8610
3653.041556 0.8610 0.8610 0.8610 0.8610 0.8610
3657.794407 0.8610 0.8610 0.8610 0.8610 0.8610
3662.547257 0.8610 0.8609 0.8604 0.8599 0.8594
3667.300108 0.8586 0.8566 0.8546 0.8526 0.8508
3672.052959 0.8498 0.8490 0.8490 0.8490 0.8490
3676.805809 0.8490 0.8490 0.8489 0.8484 0.8479
3681.558660 0.8474 0.8470 0.8470 0.8467 0.8452
3686.311511 0.8433 0.8403 0.8373 0.8343 0.8319
3691.064361 0.8314 0.8310 0.8310 0.8311 0.8316
3695.817212 0.8325 0.8345 0.8361 0.8366 0.8371
3700.570063 0.8376 0.8384 0.8399 0.8413 0.8423
3705.322913 0.8436 0.8461 0.8483 0.8493 0.8504
3710.075764 0.8519 0.8531 0.8536 0.8541 0.8546
3714.828614 0.8551 0.8556 0.8560 0.8560 0.8560
3719.581465 0.8560 0.8560 0.8560 0.8560 0.8560
3724.334316 0.8560 0.8560 0.8560 0.8560 0.8560
3729.087166 0.8560 0.8560 0.8560 0.8560 0.8560
3733.840017 0.8560 0.8560 0.8560 0.8560 0.8560
3738.592868 0.8560 0.8560 0.8560 0.8560 0.8560
3743.345718 0.8560 0.8560 0.8560 0.8560 0.8560
3748.098569 0.8560 0.8560 0.8560 0.8560 0.8560
3752.851420 0.8562 0.8567 0.8570 0.8570 0.8570
3757.604270 0.8570 0.8573 0.8583 0.8592 0.8597
3762.357121 0.8600 0.8600 0.8600 0.8600 0.8600
3767.109972 0.8600 0.8600 0.8600 0.8600 0.8600
3771.862822 0.8600 0.8600 0.8600 0.8600 0.8600
3776.615673 0.8600 0.8600 0.8600 0.8602 0.8607
3781.368524 0.8610 0.8610 0.8610 0.8610 0.8610
3786.121374 0.8610 0.8610 0.8610 0.8608 0.8603
3790.874225 0.8600 0.8600 0.8600 0.8600 0.8598
3795.627075 0.8593 0.8592 0.8597 0.8602 0.8607
3800.379926 0.8610 0.8610 0.8610 0.8610 0.8610
3805.132777 0.8610 0.8610 0.8610 0.8610 0.8610
3809.885627 0.8610 0.8610 0.8610 0.8610 0.8610
3814.638478 0.8610 0.8610 0.8610 0.8610 0.8610
3819.391329 0.8610 0.8610 0.8610 0.8610 0.8610
3824.144179 0.8610 0.8610 0.8610 0.8610 0.8610
3828.897030 0.8608 0.8603 0.8600 0.8600 0.8600
3833.649881 0.8600 0.8600 0.8600 0.8600 0.8600
3838.402731 0.8600 0.8600 0.8602 0.8607 0.8610
3843.155582 0.8610 0.8610 0.8610 0.8610 0.8610
3847.908433 0.8610 0.8610 0.8608 0.8603 0.8600
3852.661283 0.8600 0.8600 0.8600 0.8600 0.8600
3857.414134 0.8600 0.8600 0.8600 0.8600 0.8600
3862.166984 0.8600 0.8600 0.8600 0.8600 0.8600
3866.919835 0.8600 0.8600 0.8600 0.8600 0.8600
3871.672686 0.8600 0.8600 0.8600 0.8600 0.8600
3876.425536 0.8600 0.8600 0.8598 0.8593 0.8590
3881.178387 0.8590 0.8593 0.8598 0.8597 0.8592
3885.931238 0.8590 0.8590 0.8593 0.8598 0.8597
3890.684088 0.8592 0.8590 0.8590 0.8590 0.8590
##END=
