##TITLE=CYANOACETIC ACID
##JCAMP-DX=4.24
##DATA TYPE=INFRARED SPECTRUM
##CLASS=COBLENTZ
##ORIGIN=WYANDOTTE CHEMICALS CORP., WYANDOTTE, MICHIGAN, USA
##OWNER=COBLENTZ SOCIETY
Collection (C) 2018 copyright by the U.S. Secretary of Commerce
on behalf of the United States of America. All rights reserved.
##DATE=Not specified, most likely prior to 1970
##CAS REGISTRY NO=372-09-8
##MOLFORM=C3 H3 N O2
##BP=89-90 C
##SOURCE REFERENCE=COBLENTZ NO. 3796
##$NIST SOURCE=COBLENTZ
##$NIST IMAGE=cob3796
##SPECTROMETER/DATA SYSTEM=Not specified, most likely a prism, grating, or hybrid spectrometer.
##STATE=SOLID (MINERAL OIL MULL)
##PATH LENGTH=
$$SPECTRAL CONTAMINATION DUE TO OIL AROUND 2900 CM^-^1
##SAMPLING PROCEDURE=TRANSMISSION
##RESOLUTION=4
##DATA PROCESSING=DIGITIZED BY NIST FROM HARD COPY
##XUNITS=MICROMETERS
##YUNITS=TRANSMITTANCE
##XFACTOR=1.000000
##YFACTOR=1
##DELTAX=000.006181
##FIRSTX=2.025
##LASTX=16.0064
##FIRSTY=0.927
##MAXX=16.0064
##MINX=2.025
##MAXY=0.937
##MINY=0.013
##NPOINTS=2263
##XYDATA=(X++(Y..Y))
2.025000 0.9270 0.9270 0.9270 0.9270 0.9270
2.055919 0.9280 0.9280 0.9300 0.9310 0.9310
2.087000 0.9300 0.9220 0.9170 0.9140 0.9110
2.117919 0.9100 0.9100 0.9060 0.9060 0.9050
2.148000 0.9020 0.8990 0.8960 0.8880 0.8820
2.178919 0.8770 0.8660 0.8510 0.8230 0.8030
2.210000 0.7900 0.7790 0.7750 0.7730 0.7750
2.240919 0.7780 0.7820 0.7870 0.7920 0.8010
2.272000 0.8040 0.8040 0.8030 0.8000 0.7960
2.302919 0.7930 0.7920 0.7930 0.7950 0.8000
2.334000 0.8010 0.8030 0.8070 0.8100 0.8170
2.364919 0.8230 0.8260 0.8270 0.8310 0.8340
2.396000 0.8400 0.8440 0.8490 0.8540 0.8570
2.426919 0.8630 0.8710 0.8770 0.8830 0.8850
2.457000 0.8860 0.8880 0.8880 0.8890 0.8910
2.487919 0.8910 0.8890 0.8890 0.8890 0.8930
2.519000 0.8940 0.8970 0.9050 0.9110 0.9170
2.549919 0.9200 0.9220 0.9250 0.9280 0.9280
2.581000 0.9270 0.9270 0.9240 0.9220 0.9200
2.611919 0.9220 0.9270 0.9330 0.9360 0.9360
2.643000 0.9370 0.9340 0.9310 0.9280 0.9220
2.673919 0.9160 0.9080 0.9030 0.8940 0.8830
2.705000 0.8690 0.8550 0.8410 0.8290 0.8170
2.735919 0.8040 0.7950 0.7810 0.7620 0.7550
2.766000 0.7470 0.7440 0.7440 0.7390 0.7340
2.796919 0.7270 0.7190 0.7110 0.7020 0.6910
2.828000 0.6820 0.6740 0.6650 0.6570 0.6510
2.858919 0.6410 0.6270 0.6150 0.6010 0.5870
2.890000 0.5780 0.5720 0.5680 0.5590 0.5580
2.920919 0.5510 0.5470 0.5410 0.5310 0.5220
2.952000 0.5100 0.4960 0.4820 0.4680 0.4540
2.982919 0.4400 0.4260 0.4100 0.3900 0.3750
3.014000 0.3580 0.3410 0.3270 0.3130 0.2990
3.044919 0.2890 0.2820 0.2750 0.2690 0.2620
3.075000 0.2550 0.2510 0.2440 0.2380 0.2320
3.105919 0.2240 0.2150 0.2060 0.2030 0.2010
3.137000 0.2000 0.1950 0.1920 0.1860 0.1820
3.167919 0.1810 0.1810 0.1820 0.1820 0.1840
3.199000 0.1840 0.1860 0.1860 0.1860 0.1860
3.229919 0.1860 0.1840 0.1840 0.1840 0.1820
3.261000 0.1810 0.1750 0.1670 0.1590 0.1480
3.291919 0.1370 0.1240 0.1060 0.0880 0.0720
3.323000 0.0580 0.0460 0.0200 0.0180 0.0150
3.353919 0.0150 0.0150 0.0130 0.0130 0.0130
3.385000 0.0130 0.0130 0.0130 0.0130 0.0130
3.415919 0.0130 0.0130 0.0130 0.0130 0.0130
3.446000 0.0130 0.0130 0.0130 0.0130 0.0130
3.476919 0.0130 0.0130 0.0130 0.0130 0.0150
3.508000 0.0150 0.0170 0.0180 0.0210 0.0270
3.538919 0.0350 0.0480 0.0620 0.0770 0.0970
3.570000 0.1190 0.1420 0.1470 0.1620 0.1820
3.600919 0.1930 0.2030 0.2070 0.2130 0.2210
3.632000 0.2260 0.2290 0.2310 0.2310 0.2270
3.662919 0.2260 0.2240 0.2240 0.2240 0.2260
3.694000 0.2270 0.2320 0.2370 0.2370 0.2380
3.724919 0.2380 0.2370 0.2370 0.2400 0.2440
3.755000 0.2460 0.2490 0.2540 0.2570 0.2600
3.785919 0.2620 0.2630 0.2650 0.2650 0.2660
3.817000 0.2660 0.2680 0.2690 0.2690 0.2710
3.847919 0.2720 0.2750 0.2790 0.2830 0.2860
3.879000 0.2890 0.2910 0.2930 0.2970 0.2990
3.909919 0.3020 0.3030 0.3080 0.3110 0.3140
3.941000 0.3220 0.3250 0.3250 0.3270 0.3270
3.971919 0.3280 0.3310 0.3390 0.3420 0.3440
4.003000 0.3480 0.3500 0.3530 0.3550 0.3560
4.033919 0.3580 0.3610 0.3620 0.3650 0.3700
4.064000 0.3750 0.3790 0.3870 0.3980 0.4030
4.094919 0.4060 0.4120 0.4150 0.4170 0.4170
4.126000 0.4180 0.4180 0.4200 0.4210 0.4260
4.156919 0.4340 0.4430 0.4490 0.4520 0.4570
4.188000 0.4620 0.4680 0.4710 0.4720 0.4740
4.218919 0.4750 0.4770 0.4750 0.4660 0.4620
4.250000 0.4600 0.4620 0.4630 0.4650 0.4690
4.280919 0.4690 0.4720 0.4770 0.4830 0.4860
4.312000 0.4890 0.4890 0.4930 0.4970 0.4990
4.342919 0.5000 0.5020 0.5050 0.5100 0.5130
4.374000 0.5220 0.5280 0.5300 0.5300 0.5020
4.404919 0.4460 0.3870 0.3450 0.2910 0.2830
4.435000 0.2830 0.2880 0.3020 0.3060 0.3170
4.465919 0.3220 0.3360 0.3610 0.3810 0.4270
4.497000 0.4680 0.5000 0.5190 0.5300 0.5340
4.527919 0.5370 0.5410 0.5420 0.5500 0.5510
4.559000 0.5530 0.5550 0.5590 0.5610 0.5620
4.589919 0.5620 0.5640 0.5650 0.5680 0.5720
4.621000 0.5730 0.5730 0.5720 0.5700 0.5680
4.651919 0.5670 0.5670 0.5650 0.5650 0.5680
4.683000 0.5730 0.5810 0.5840 0.5860 0.5890
4.713919 0.5900 0.5920 0.5930 0.5950 0.5960
4.744000 0.5980 0.5980 0.6000 0.6000 0.5980
4.774919 0.5960 0.5950 0.5950 0.5950 0.5950
4.806000 0.5960 0.5960 0.5960 0.5950 0.5920
4.836919 0.5870 0.5860 0.5810 0.5790 0.5810
4.868000 0.5860 0.5890 0.5900 0.5920 0.5930
4.898919 0.5930 0.5930 0.5890 0.5900 0.5920
4.930000 0.5960 0.6010 0.6030 0.6040 0.6040
4.960919 0.6060 0.6070 0.6070 0.6070 0.6090
4.992000 0.6100 0.6100 0.6070 0.6070 0.6060
5.022919 0.6060 0.6040 0.6040 0.6010 0.6010
5.053000 0.6000 0.5980 0.5960 0.5950 0.5930
5.083919 0.5900 0.5860 0.5810 0.5780 0.5760
5.115000 0.5760 0.5750 0.5750 0.5730 0.5720
5.145919 0.5620 0.5580 0.5550 0.5550 0.5510
5.177000 0.5500 0.5480 0.5470 0.5470 0.5450
5.207919 0.5450 0.5450 0.5450 0.5420 0.5420
5.239000 0.5410 0.5370 0.5330 0.5270 0.5200
5.269919 0.5160 0.5110 0.5080 0.5050 0.5030
5.301000 0.5020 0.5000 0.4990 0.4910 0.4860
5.331919 0.4770 0.4720 0.4620 0.4520 0.4460
5.362000 0.4400 0.4340 0.4260 0.4200 0.4150
5.392919 0.4060 0.4010 0.3950 0.3900 0.3840
5.424000 0.3820 0.3820 0.3820 0.3840 0.3860
5.454919 0.3870 0.3890 0.3890 0.3870 0.3840
5.486000 0.3790 0.3760 0.3700 0.3640 0.3550
5.516919 0.3470 0.3370 0.3310 0.3220 0.3190
5.548000 0.3110 0.3000 0.2990 0.2930 0.2890
5.578919 0.2860 0.2800 0.2710 0.2570 0.2490
5.610000 0.2400 0.2320 0.2290 0.2200 0.2100
5.640919 0.2030 0.1960 0.1870 0.1790 0.1750
5.672000 0.1620 0.1560 0.1470 0.1420 0.1410
5.702919 0.1440 0.1450 0.1450 0.1420 0.1410
5.733000 0.1330 0.1240 0.1220 0.1190 0.1170
5.763919 0.1130 0.1080 0.1060 0.1030 0.1050
5.795000 0.1140 0.1190 0.1240 0.1250 0.1270
5.825919 0.1310 0.1360 0.1410 0.1440 0.1500
5.857000 0.1560 0.1610 0.1620 0.1670 0.1730
5.887919 0.1860 0.2010 0.2040 0.2130 0.2210
5.919000 0.2270 0.2320 0.2380 0.2460 0.2550
5.949919 0.2600 0.2660 0.2740 0.2830 0.2960
5.981000 0.3000 0.3030 0.3050 0.3080 0.3220
6.011919 0.3360 0.3410 0.3440 0.3480 0.3510
6.042000 0.3580 0.3720 0.3790 0.3890 0.3930
6.072919 0.3960 0.4000 0.4030 0.4100 0.4170
6.104000 0.4310 0.4340 0.4380 0.4400 0.4460
6.134919 0.4490 0.4510 0.4550 0.4600 0.4740
6.166000 0.4850 0.4880 0.4910 0.4990 0.5060
6.196919 0.5170 0.5300 0.5360 0.5360 0.5410
6.228000 0.5440 0.5560 0.5650 0.5700 0.5720
6.258919 0.5730 0.5780 0.5810 0.5840 0.5860
6.290000 0.5870 0.5920 0.6000 0.6010 0.6030
6.320919 0.6040 0.6060 0.6180 0.6200 0.6260
6.351000 0.6350 0.6400 0.6490 0.6660 0.6820
6.381919 0.6960 0.7050 0.7160 0.7190 0.7280
6.413000 0.7280 0.7270 0.7250 0.7250 0.7240
6.443919 0.7250 0.7300 0.7360 0.7410 0.7480
6.475000 0.7500 0.7610 0.7610 0.7580 0.7580
6.505919 0.7500 0.7500 0.7510 0.7510 0.7510
6.537000 0.7550 0.7580 0.7580 0.7550 0.7510
6.567919 0.7480 0.7420 0.7340 0.7270 0.7220
6.599000 0.7140 0.7100 0.7030 0.6960 0.6770
6.629919 0.6630 0.6580 0.6490 0.6400 0.6290
6.660000 0.6170 0.6030 0.5810 0.5590 0.5470
6.690919 0.5190 0.4830 0.4460 0.4200 0.3820
6.722000 0.3450 0.3000 0.2690 0.2370 0.1980
6.752919 0.1470 0.1060 0.0720 0.0460 0.0310
6.784000 0.0260 0.0240 0.0240 0.0240 0.0260
6.814919 0.0260 0.0260 0.0270 0.0270 0.0270
6.846000 0.0260 0.0240 0.0240 0.0230 0.0230
6.876919 0.0240 0.0260 0.0260 0.0290 0.0310
6.908000 0.0340 0.0400 0.0430 0.0490 0.0540
6.938919 0.0600 0.0660 0.0740 0.0830 0.0960
6.970000 0.0990 0.1110 0.1270 0.1410 0.1450
7.000919 0.1530 0.1580 0.1620 0.1620 0.1620
7.031000 0.1610 0.1530 0.1500 0.1480 0.1470
7.061919 0.1480 0.1470 0.1440 0.1440 0.1410
7.093000 0.1360 0.1310 0.1240 0.1240 0.1190
7.123919 0.1130 0.1030 0.1000 0.0990 0.0930
7.155000 0.0890 0.0800 0.0720 0.0660 0.0620
7.185919 0.0490 0.0400 0.0310 0.0290 0.0210
7.217000 0.0200 0.0200 0.0180 0.0170 0.0170
7.247919 0.0170 0.0170 0.0180 0.0230 0.0310
7.279000 0.0400 0.0510 0.0520 0.0540 0.0600
7.309919 0.0710 0.0790 0.0970 0.1200 0.1470
7.340000 0.1650 0.1810 0.1950 0.2030 0.2090
7.370919 0.2130 0.2210 0.2270 0.2380 0.2490
7.402000 0.2540 0.2620 0.2690 0.2710 0.2720
7.432919 0.2720 0.2720 0.2740 0.2750 0.2790
7.464000 0.2790 0.2790 0.2750 0.2710 0.2680
7.494919 0.2620 0.2600 0.2580 0.2510 0.2410
7.526000 0.2350 0.2270 0.2180 0.2120 0.2070
7.556919 0.2030 0.2010 0.2010 0.2010 0.2010
7.588000 0.2010 0.2010 0.2000 0.2000 0.1980
7.618919 0.1930 0.1900 0.1900 0.1860 0.1790
7.649000 0.1790 0.1810 0.1870 0.1870 0.1900
7.679919 0.1890 0.1860 0.1840 0.1820 0.1810
7.711000 0.1810 0.1790 0.1780 0.1720 0.1700
7.741919 0.1700 0.1700 0.1720 0.1750 0.1790
7.773000 0.1870 0.1960 0.2070 0.2180 0.2320
7.803919 0.2460 0.2620 0.2750 0.2830 0.2930
7.835000 0.3140 0.3300 0.3410 0.3500 0.3530
7.865919 0.3610 0.3680 0.3750 0.3870 0.3890
7.897000 0.3920 0.3920 0.3900 0.3890 0.3820
7.927919 0.3810 0.3780 0.3720 0.3680 0.3580
7.958000 0.3450 0.3360 0.3280 0.3220 0.3130
7.988919 0.3020 0.2830 0.2720 0.2550 0.2490
8.020000 0.2430 0.2290 0.2200 0.2040 0.2000
8.050919 0.1870 0.1780 0.1680 0.1620 0.1510
8.082000 0.1420 0.1390 0.1280 0.1200 0.1140
8.112919 0.1130 0.1140 0.1160 0.1170 0.1190
8.144000 0.1250 0.1310 0.1330 0.1340 0.1390
8.174919 0.1470 0.1500 0.1550 0.1590 0.1590
8.206000 0.1580 0.1550 0.1470 0.1390 0.1280
8.236919 0.1240 0.1220 0.1200 0.1170 0.1160
8.268000 0.1130 0.1110 0.1130 0.1220 0.1310
8.298919 0.1390 0.1390 0.1370 0.1280 0.1220
8.329000 0.1200 0.1200 0.1220 0.1300 0.1300
8.359919 0.1280 0.1220 0.1200 0.1200 0.1190
8.391000 0.1170 0.1160 0.1160 0.1140 0.1140
8.421919 0.1110 0.1080 0.1030 0.1000 0.0990
8.453000 0.0930 0.0890 0.0880 0.0890 0.0930
8.483919 0.0930 0.0970 0.0990 0.1000 0.1000
8.515000 0.1020 0.1030 0.1030 0.0970 0.0970
8.545919 0.1000 0.1030 0.1030 0.1050 0.1050
8.577000 0.1080 0.1110 0.1130 0.1170 0.1200
8.607919 0.1280 0.1310 0.1340 0.1340 0.1330
8.638000 0.1300 0.1310 0.1310 0.1360 0.1370
8.668919 0.1370 0.1420 0.1470 0.1530 0.1530
8.700000 0.1580 0.1580 0.1580 0.1640 0.1700
8.730919 0.1720 0.1790 0.1820 0.1840 0.1860
8.762000 0.1890 0.1900 0.1930 0.1950 0.1960
8.792919 0.2010 0.2040 0.2090 0.2100 0.2100
8.824000 0.2120 0.2130 0.2130 0.2180 0.2180
8.854919 0.2200 0.2230 0.2260 0.2270 0.2270
8.886000 0.2290 0.2310 0.2320 0.2340 0.2430
8.916919 0.2440 0.2490 0.2520 0.2520 0.2480
8.947000 0.2480 0.2480 0.2490 0.2520 0.2580
8.977919 0.2620 0.2630 0.2650 0.2690 0.2710
9.009000 0.2690 0.2710 0.2710 0.2720 0.2740
9.039919 0.2740 0.2740 0.2750 0.2770 0.2800
9.071000 0.2850 0.2910 0.2940 0.2940 0.2930
9.101919 0.2930 0.2910 0.2930 0.2930 0.2960
9.133000 0.2970 0.2990 0.2990 0.2990 0.2990
9.163919 0.3000 0.3000 0.3000 0.3000 0.3020
9.195000 0.3030 0.3050 0.3050 0.3080 0.3080
9.225919 0.3110 0.3140 0.3110 0.3140 0.3160
9.257000 0.3190 0.3130 0.3130 0.3130 0.3130
9.287919 0.3130 0.3140 0.3190 0.3220 0.3240
9.318000 0.3280 0.3300 0.3300 0.3300 0.3270
9.348919 0.3270 0.3280 0.3300 0.3340 0.3390
9.380000 0.3360 0.3330 0.3360 0.3370 0.3390
9.410919 0.3420 0.3440 0.3440 0.3420 0.3450
9.442000 0.3500 0.3470 0.3440 0.3470 0.3470
9.472919 0.3480 0.3480 0.3500 0.3510 0.3500
9.504000 0.3510 0.3510 0.3530 0.3530 0.3550
9.534919 0.3550 0.3560 0.3560 0.3560 0.3560
9.566000 0.3550 0.3550 0.3530 0.3530 0.3530
9.596919 0.3550 0.3550 0.3560 0.3560 0.3560
9.627000 0.3580 0.3580 0.3580 0.3580 0.3590
9.657919 0.3590 0.3590 0.3580 0.3590 0.3620
9.689000 0.3670 0.3670 0.3620 0.3620 0.3620
9.719919 0.3620 0.3620 0.3620 0.3650 0.3680
9.751000 0.3680 0.3700 0.3700 0.3720 0.3730
9.781919 0.3730 0.3750 0.3760 0.3760 0.3720
9.813000 0.3720 0.3720 0.3720 0.3730 0.3780
9.843919 0.3790 0.3790 0.3780 0.3790 0.3790
9.875000 0.3810 0.3820 0.3860 0.3860 0.3860
9.905919 0.3860 0.3860 0.3860 0.3840 0.3820
9.936000 0.3820 0.3810 0.3820 0.3840 0.3870
9.966919 0.3890 0.3890 0.3890 0.3870 0.3870
9.998000 0.3870 0.3870 0.3870 0.3860 0.3860
10.028919 0.3870 0.3870 0.3860 0.3860 0.3860
10.060000 0.3840 0.3840 0.3820 0.3810 0.3790
10.090919 0.3760 0.3750 0.3700 0.3640 0.3620
10.122000 0.3590 0.3530 0.3420 0.3340 0.3300
10.152919 0.3270 0.3190 0.3140 0.3050 0.2970
10.184000 0.2890 0.2750 0.2620 0.2570 0.2460
10.214919 0.2400 0.2370 0.2320 0.2260 0.2170
10.245000 0.2010 0.1920 0.1790 0.1730 0.1700
10.275919 0.1610 0.1530 0.1510 0.1510 0.1510
10.307000 0.1530 0.1550 0.1580 0.1610 0.1700
10.337919 0.1760 0.1900 0.2010 0.2030 0.2040
10.369000 0.2060 0.2070 0.2090 0.2130 0.2230
10.399919 0.2320 0.2400 0.2400 0.2370 0.2340
10.431000 0.2320 0.2340 0.2400 0.2400 0.2430
10.461919 0.2460 0.2490 0.2520 0.2520 0.2510
10.493000 0.2430 0.2430 0.2490 0.2490 0.2490
10.523919 0.2490 0.2480 0.2460 0.2460 0.2430
10.555000 0.2430 0.2460 0.2480 0.2510 0.2510
10.585919 0.2510 0.2430 0.2350 0.2320 0.2310
10.616000 0.2230 0.2130 0.2120 0.2040 0.2000
10.646919 0.1920 0.1810 0.1730 0.1620 0.1500
10.678000 0.1410 0.1300 0.1240 0.1190 0.1190
10.708919 0.1220 0.1250 0.1300 0.1360 0.1440
10.740000 0.1590 0.1680 0.1810 0.1900 0.2000
10.770919 0.2060 0.2130 0.2150 0.2200 0.2240
10.802000 0.2320 0.2400 0.2410 0.2430 0.2460
10.832919 0.2460 0.2460 0.2490 0.2570 0.2630
10.864000 0.2660 0.2660 0.2620 0.2620 0.2620
10.894919 0.2620 0.2600 0.2600 0.2600 0.2620
10.925000 0.2620 0.2620 0.2600 0.2520 0.2520
10.955919 0.2550 0.2620 0.2650 0.2680 0.2690
10.987000 0.2710 0.2710 0.2710 0.2690 0.2690
11.017919 0.2690 0.2690 0.2690 0.2680 0.2680
11.049000 0.2660 0.2650 0.2620 0.2600 0.2580
11.079919 0.2580 0.2570 0.2570 0.2550 0.2550
11.111000 0.2540 0.2540 0.2540 0.2540 0.2520
11.141919 0.2520 0.2510 0.2490 0.2460 0.2430
11.173000 0.2350 0.2320 0.2310 0.2240 0.2200
11.203919 0.2130 0.2100 0.2040 0.2030 0.2010
11.234000 0.2000 0.1980 0.1980 0.1980 0.1980
11.264919 0.1980 0.2000 0.2000 0.2010 0.2010
11.296000 0.2000 0.1980 0.1960 0.1920 0.1900
11.326919 0.1820 0.1760 0.1640 0.1590 0.1510
11.358000 0.1450 0.1410 0.1370 0.1340 0.1330
11.388919 0.1330 0.1310 0.1280 0.1240 0.1220
11.420000 0.1240 0.1250 0.1280 0.1300 0.1300
11.450919 0.1310 0.1340 0.1390 0.1410 0.1440
11.482000 0.1500 0.1500 0.1530 0.1550 0.1560
11.512919 0.1590 0.1620 0.1650 0.1680 0.1700
11.543000 0.1730 0.1790 0.1840 0.1900 0.1930
11.573919 0.1950 0.1960 0.1960 0.1950 0.1930
11.605000 0.1950 0.1960 0.1980 0.2000 0.2010
11.635919 0.2090 0.2120 0.2130 0.2170 0.2170
11.667000 0.2150 0.2120 0.2170 0.2180 0.2200
11.697919 0.2170 0.2170 0.2170 0.2170 0.2170
11.729000 0.2180 0.2200 0.2240 0.2240 0.2290
11.759919 0.2260 0.2240 0.2210 0.2210 0.2240
11.791000 0.2260 0.2290 0.2340 0.2350 0.2350
11.821919 0.2340 0.2340 0.2320 0.2320 0.2340
11.853000 0.2340 0.2350 0.2350 0.2350 0.2370
11.883919 0.2400 0.2410 0.2440 0.2490 0.2490
11.914000 0.2510 0.2520 0.2510 0.2490 0.2490
11.944919 0.2480 0.2480 0.2480 0.2480 0.2490
11.976000 0.2490 0.2490 0.2510 0.2520 0.2550
12.006919 0.2580 0.2580 0.2550 0.2540 0.2540
12.038000 0.2520 0.2520 0.2520 0.2520 0.2540
12.068919 0.2540 0.2540 0.2520 0.2510 0.2480
12.100000 0.2480 0.2480 0.2480 0.2480 0.2460
12.130919 0.2460 0.2490 0.2490 0.2490 0.2490
12.162000 0.2490 0.2490 0.2490 0.2490 0.2490
12.192919 0.2490 0.2460 0.2460 0.2440 0.2430
12.223000 0.2430 0.2400 0.2340 0.2340 0.2370
12.253919 0.2370 0.2380 0.2380 0.2400 0.2380
12.285000 0.2380 0.2340 0.2290 0.2290 0.2270
12.315919 0.2260 0.2230 0.2210 0.2200 0.2150
12.347000 0.2130 0.2130 0.2130 0.2120 0.2100
12.377919 0.2100 0.2100 0.2090 0.2090 0.2090
12.409000 0.2090 0.2070 0.2060 0.2030 0.1980
12.439919 0.1960 0.1950 0.1930 0.1920 0.1920
12.471000 0.1920 0.1920 0.1920 0.1900 0.1900
12.501919 0.1900 0.1920 0.1920 0.1900 0.1900
12.532000 0.1900 0.1890 0.1890 0.1890 0.1890
12.562919 0.1890 0.1890 0.1870 0.1860 0.1840
12.594000 0.1840 0.1840 0.1840 0.1820 0.1820
12.624919 0.1820 0.1840 0.1840 0.1870 0.1890
12.656000 0.1900 0.1900 0.1890 0.1860 0.1820
12.686919 0.1820 0.1820 0.1840 0.1860 0.1900
12.718000 0.1920 0.1920 0.1900 0.1900 0.1890
12.748919 0.1890 0.1900 0.1920 0.1920 0.1930
12.780000 0.1930 0.1930 0.1960 0.1960 0.2010
12.810919 0.2030 0.2040 0.2040 0.2060 0.2060
12.842000 0.2070 0.2070 0.2100 0.2100 0.2070
12.872919 0.2070 0.2060 0.2060 0.2070 0.2090
12.903000 0.2100 0.2120 0.2130 0.2150 0.2150
12.933919 0.2170 0.2170 0.2170 0.2170 0.2180
12.965000 0.2180 0.2200 0.2210 0.2230 0.2290
12.995919 0.2350 0.2380 0.2430 0.2430 0.2380
13.027000 0.2380 0.2400 0.2460 0.2510 0.2520
13.057919 0.2540 0.2540 0.2540 0.2520 0.2540
13.089000 0.2540 0.2580 0.2620 0.2630 0.2650
13.119919 0.2650 0.2660 0.2680 0.2690 0.2710
13.151000 0.2710 0.2720 0.2740 0.2750 0.2770
13.181919 0.2770 0.2790 0.2790 0.2790 0.2800
13.212000 0.2800 0.2800 0.2820 0.2880 0.2910
13.242919 0.2940 0.2990 0.2990 0.2940 0.2890
13.274000 0.2850 0.2850 0.2910 0.2930 0.2970
13.304919 0.2990 0.3000 0.3030 0.3050 0.3080
13.336000 0.3080 0.3100 0.3100 0.3100 0.3110
13.366919 0.3110 0.3110 0.3130 0.3140 0.3170
13.398000 0.3200 0.3240 0.3240 0.3240 0.3240
13.428919 0.3220 0.3200 0.3190 0.3190 0.3200
13.460000 0.3220 0.3240 0.3220 0.3200 0.3200
13.490919 0.3200 0.3280 0.3280 0.3220 0.3190
13.521000 0.3200 0.3240 0.3240 0.3250 0.3240
13.551919 0.3200 0.3200 0.3190 0.3200 0.3250
13.583000 0.3250 0.3220 0.3220 0.3220 0.3220
13.613919 0.3250 0.3270 0.3270 0.3300 0.3300
13.645000 0.3300 0.3270 0.3270 0.3270 0.3270
13.675919 0.3270 0.3270 0.3270 0.3280 0.3280
13.707000 0.3300 0.3310 0.3330 0.3360 0.3370
13.737919 0.3390 0.3390 0.3410 0.3420 0.3440
13.769000 0.3450 0.3470 0.3480 0.3510 0.3530
13.799919 0.3580 0.3580 0.3550 0.3500 0.3420
13.830000 0.3420 0.3450 0.3480 0.3510 0.3580
13.860919 0.3670 0.3670 0.3610 0.3640 0.3650
13.892000 0.3680 0.3670 0.3650 0.3670 0.3680
13.922919 0.3700 0.3750 0.3810 0.3870 0.3900
13.954000 0.3960 0.4000 0.4010 0.4030 0.4120
13.984919 0.4180 0.4230 0.4260 0.4290 0.4310
14.016000 0.4320 0.4320 0.4350 0.4400 0.4490
14.046919 0.4520 0.4520 0.4540 0.4570 0.4570
14.078000 0.4580 0.4620 0.4680 0.4710 0.4720
14.108919 0.4720 0.4740 0.4740 0.4750 0.4770
14.140000 0.4770 0.4770 0.4770 0.4790 0.4790
14.170919 0.4790 0.4790 0.4770 0.4770 0.4770
14.201000 0.4770 0.4750 0.4720 0.4720 0.4710
14.231919 0.4690 0.4680 0.4680 0.4660 0.4630
14.263000 0.4580 0.4550 0.4520 0.4510 0.4480
14.293919 0.4460 0.4380 0.4350 0.4320 0.4320
14.325000 0.4310 0.4290 0.4290 0.4270 0.4240
14.355919 0.4180 0.4100 0.4070 0.4010 0.4010
14.387000 0.4000 0.3980 0.3950 0.3870 0.3820
14.417919 0.3790 0.3730 0.3720 0.3680 0.3670
14.449000 0.3610 0.3560 0.3530 0.3510 0.3500
14.479919 0.3480 0.3450 0.3420 0.3410 0.3390
14.510000 0.3390 0.3370 0.3360 0.3360 0.3340
14.540919 0.3330 0.3300 0.3250 0.3250 0.3300
14.572000 0.3310 0.3310 0.3330 0.3330 0.3340
14.602919 0.3330 0.3310 0.3310 0.3310 0.3310
14.634000 0.3310 0.3360 0.3390 0.3390 0.3410
14.664919 0.3410 0.3410 0.3410 0.3420 0.3420
14.696000 0.3420 0.3440 0.3450 0.3480 0.3480
14.726919 0.3480 0.3480 0.3500 0.3510 0.3530
14.758000 0.3550 0.3550 0.3560 0.3590 0.3580
14.788919 0.3560 0.3550 0.3530 0.3510 0.3530
14.819000 0.3530 0.3530 0.3530 0.3530 0.3510
14.849919 0.3500 0.3500 0.3480 0.3440 0.3420
14.881000 0.3390 0.3340 0.3300 0.3280 0.3270
14.911919 0.3200 0.3190 0.3200 0.3240 0.3240
14.943000 0.3270 0.3270 0.3240 0.3220 0.3220
14.973919 0.3200 0.3200 0.3200 0.3200 0.3200
15.005000 0.3220 0.3220 0.3240 0.3250 0.3250
15.035919 0.3280 0.3310 0.3370 0.3390 0.3410
15.067000 0.3440 0.3450 0.3470 0.3450 0.3440
15.097919 0.3420 0.3390 0.3330 0.3330 0.3300
15.128000 0.3280 0.3220 0.3190 0.3140 0.3110
15.158919 0.3100 0.3110 0.3140 0.3140 0.3170
15.190000 0.3190 0.3190 0.3200 0.3220 0.3250
15.220919 0.3300 0.3310 0.3360 0.3410 0.3420
15.252000 0.3480 0.3530 0.3560 0.3580 0.3580
15.282919 0.3590 0.3610 0.3610 0.3620 0.3670
15.314000 0.3700 0.3750 0.3780 0.3820 0.3890
15.344919 0.3900 0.3900 0.3920 0.3920 0.3930
15.376000 0.3960 0.4000 0.4010 0.4040 0.4070
15.406919 0.4100 0.4130 0.4170 0.4210 0.4240
15.438000 0.4270 0.4270 0.4290 0.4290 0.4310
15.468919 0.4320 0.4340 0.4370 0.4380 0.4400
15.499000 0.4400 0.4430 0.4480 0.4490 0.4520
15.529919 0.4550 0.4570 0.4580 0.4600 0.4600
15.561000 0.4580 0.4550 0.4550 0.4580 0.4630
15.591919 0.4660 0.4690 0.4720 0.4740 0.4750
15.623000 0.4790 0.4820 0.4830 0.4860 0.4820
15.653919 0.4770 0.4770 0.4800 0.4830 0.4850
15.685000 0.4880 0.4890 0.4940 0.4970 0.4960
15.715919 0.4930 0.4910 0.4910 0.4930 0.4930
15.747000 0.4940 0.4930 0.4910 0.4910 0.4930
15.777919 0.4960 0.4990 0.5020 0.5030 0.5020
15.808000 0.5000 0.5000 0.4990 0.4990 0.5000
15.838919 0.5020 0.5030 0.5030 0.5030 0.5060
15.870000 0.5080 0.5130 0.5130 0.5130 0.5130
15.900919 0.5110 0.5110 0.5110 0.5110 0.5110
15.932000 0.5130 0.5140 0.5160 0.5160 0.5170
15.962919 0.5170 0.5170 0.5170 0.5170 0.5170
15.994000 0.5190 0.5200 0.5200
##END=
