##TITLE=PROPADIENE
##JCAMP-DX=4.24
##DATA TYPE=INFRARED SPECTRUM
##CLASS=COBLENTZ
##ORIGIN=DOW CHEMICAL COMPANY
##OWNER=COBLENTZ SOCIETY
Collection (C) 2018 copyright by the U.S. Secretary of Commerce
on behalf of the United States of America. All rights reserved.
##DATE=1964/10/08
##NAMES=allene
##CAS REGISTRY NO=463-49-0
##MOLFORM=C3 H4
##SOURCE REFERENCE=COBLENTZ NO. 10487
##$NIST SOURCE=COBLENTZ
##$NIST IMAGE=cob10487
##SPECTROMETER/DATA SYSTEM=DOW KBr FOREPRISM-GRATING
##INSTRUMENT PARAMETERS=BLAZED AT 3.5, 12.0, 20.0 MICRON, CHANGED AT 5.0, 7.5, 14.9 MICRON
##STATE=GAS (75 mmHg DILUTED TO A TOTAL PRESSURE OF 600 mmHg WITH N2)
##PATH LENGTH=5 CM CELL
$$ POSSIBLE SPECTRAL CONTAMINATION DUE TO A TRACE OF CH3CCH AROUND 635 CM^-^1
##SAMPLING PROCEDURE=TRANSMISSION
##RESOLUTION=4
##DATA PROCESSING=DIGITIZED BY NIST FROM HARD COPY (FROM TWO SEGMENTS)
##XUNITS=1/CM
##YUNITS=TRANSMITTANCE
##XFACTOR=1.000000
##YFACTOR=1
##DELTAX=0.876011
##FIRSTX=388.14
##LASTX=3797.57
##FIRSTY=0.931
##MAXX=3797.57
##MINX=388.14
##MAXY=1.008
##MINY=0.10944
##NPOINTS=3893
##XYDATA=(X++(Y..Y))
388.140000 0.9310 0.9320 0.9320 0.9320 0.9320
392.520054 0.9310 0.9310 0.9310 0.9310 0.9310
396.900109 0.9310 0.9310 0.9310 0.9290 0.9290
401.280163 0.9280 0.9270 0.9270 0.9270 0.9270
405.660217 0.9250 0.9250 0.9250 0.9250 0.9250
410.040272 0.9240 0.9240 0.9230 0.9210 0.9210
414.420326 0.9210 0.9210 0.9210 0.9200 0.9200
418.800380 0.9200 0.9180 0.9180 0.9180 0.9180
423.180435 0.9180 0.9180 0.9180 0.9180 0.9170
427.560489 0.9170 0.9170 0.9170 0.9170 0.9160
431.940543 0.9160 0.9160 0.9160 0.9160 0.9140
436.320598 0.9140 0.9140 0.9140 0.9140 0.9140
440.700652 0.9140 0.9140 0.9140 0.9140 0.9140
445.080707 0.9160 0.9160 0.9160 0.9160 0.9170
449.460761 0.9170 0.9170 0.9180 0.9180 0.9180
453.840815 0.9180 0.9180 0.9180 0.9180 0.9180
458.220870 0.9180 0.9200 0.9200 0.9200 0.9200
462.600924 0.9210 0.9230 0.9230 0.9240 0.9240
466.980978 0.9240 0.9250 0.9250 0.9270 0.9280
471.361033 0.9280 0.9290 0.9290 0.9310 0.9310
475.741087 0.9310 0.9310 0.9310 0.9310 0.9320
480.121141 0.9320 0.9320 0.9320 0.9320 0.9320
484.501196 0.9320 0.9320 0.9320 0.9320 0.9340
488.881250 0.9340 0.9340 0.9340 0.9320 0.9320
493.261304 0.9320 0.9320 0.9310 0.9310 0.9310
497.641359 0.9310 0.9310 0.9310 0.9290 0.9290
502.021413 0.9290 0.9290 0.9290 0.9290 0.9280
506.401467 0.9280 0.9280 0.9280 0.9280 0.9270
510.781522 0.9270 0.9250 0.9240 0.9240 0.9230
515.161576 0.9230 0.9210 0.9210 0.9200 0.9200
519.541630 0.9200 0.9180 0.9180 0.9180 0.9180
523.921685 0.9180 0.9180 0.9180 0.9180 0.9180
528.301739 0.9180 0.9170 0.9170 0.9170 0.9160
532.681793 0.9160 0.9160 0.9140 0.9140 0.9130
537.061848 0.9130 0.9130 0.9130 0.9130 0.9130
541.441902 0.9130 0.9130 0.9130 0.9130 0.9130
545.821957 0.9130 0.9130 0.9130 0.9130 0.9130
550.202011 0.9130 0.9130 0.9130 0.9130 0.9130
554.582065 0.9130 0.9130 0.9120 0.9120 0.9120
558.962120 0.9120 0.9120 0.9120 0.9120 0.9120
563.342174 0.9120 0.9120 0.9120 0.9120 0.9120
567.722228 0.9100 0.9100 0.9100 0.9100 0.9100
572.102283 0.9100 0.9100 0.9090 0.9090 0.9090
576.482337 0.9070 0.9070 0.9070 0.9070 0.9070
580.862391 0.9090 0.9120 0.9130 0.9130 0.9130
585.242446 0.9130 0.9130 0.9130 0.9130 0.9130
589.622500 0.9130 0.9130 0.9130 0.9130 0.9130
594.002554 0.9130 0.9130 0.9130 0.9130 0.9130
598.382609 0.9130 0.9130 0.9130 0.9130 0.9130
602.762663 0.9130 0.9140 0.9160 0.9170 0.9170
607.142717 0.9180 0.9180 0.9180 0.9180 0.9180
611.522772 0.9200 0.9200 0.9210 0.9230 0.9230
615.902826 0.9230 0.9230 0.9230 0.9230 0.9230
620.282880 0.9230 0.9230 0.9240 0.9270 0.9270
624.662935 0.9280 0.9280 0.9280 0.9270 0.9270
629.042989 0.9270 0.9270 0.9250 0.9230 0.9170
633.423043 0.9160 0.9130 0.9120 0.9120 0.9130
637.803098 0.9140 0.9180 0.9230 0.9280 0.9310
642.183152 0.9340 0.9350 0.9380 0.9380 0.9390
646.563207 0.9400 0.9420 0.9420 0.9430 0.9450
650.943261 0.9450 0.9460 0.9460 0.9460 0.9470
655.323315 0.9470 0.9460 0.9450 0.9400 0.9400
659.703370 0.9390 0.9390 0.9390 0.9390 0.9400
664.083424 0.9400 0.9400 0.9420 0.9420 0.9420
668.463478 0.9420 0.9420 0.9430 0.9450 0.9460
672.843533 0.9470 0.9470 0.9470 0.9470 0.9470
677.223587 0.9470 0.9470 0.9490 0.9510 0.9540
681.603641 0.9540 0.9540 0.9530 0.9530 0.9530
685.983696 0.9510 0.9500 0.9460 0.9450 0.9430
690.363750 0.9420 0.9460 0.9470 0.9470 0.9490
694.743804 0.9490 0.9490 0.9490 0.9490 0.9470
699.123859 0.9460 0.9390 0.9380 0.9280 0.9360
703.503913 0.9420 0.9430 0.9430 0.9430 0.9430
707.883967 0.9400 0.9400 0.9390 0.9380 0.9350
712.264022 0.9320 0.9100 0.9120 0.9210 0.9210
716.644076 0.9240 0.9270 0.9280 0.9290 0.9290
721.024130 0.9290 0.9280 0.9270 0.9270 0.9210
725.404185 0.8961 0.8432 0.9028 0.8911 0.8880
729.784239 0.8900 0.8960 0.8990 0.9020 0.9020
734.164293 0.9020 0.9010 0.8980 0.8651 0.8202
738.544348 0.8650 0.8660 0.8680 0.8700 0.8750
742.924402 0.8830 0.8910 0.8940 0.8940 0.8920
747.304457 0.8920 0.8910 0.8421 0.6864 0.8416
751.684511 0.8789 0.8760 0.8680 0.8580 0.8530
756.064565 0.8500 0.8460 0.8430 0.7821 0.6623
760.444620 0.6620 0.7806 0.7800 0.7740 0.7690
764.824674 0.7770 0.7810 0.8060 0.8060 0.7821
769.204728 0.7212 0.6572 0.5375 0.6564 0.6600
773.584783 0.7450 0.7110 0.7080 0.7100 0.7120
777.964837 0.7120 0.7140 0.7220 0.7220 0.5200
782.344891 0.6620 0.6550 0.6450 0.6350 0.6250
786.724946 0.6230 0.6260 0.6330 0.6400 0.6808
791.105000 0.3760 0.5079 0.5100 0.6258 0.6140
795.485054 0.6000 0.5870 0.5850 0.5920 0.6049
799.865109 0.6070 0.5600 0.3292 0.5527 0.5530
804.245163 0.5520 0.4972 0.4970 0.5000 0.5100
808.625217 0.5240 0.5610 0.4951 0.2224 0.3877
813.005272 0.3900 0.5116 0.5299 0.5131 0.5100
817.385326 0.4890 0.4760 0.4750 0.2183 0.2180
821.765380 0.4245 0.4280 0.4290 0.4320 0.4360
826.145435 0.4650 0.4650 0.4580 0.2654 0.1094
830.525489 0.2685 0.4244 0.4270 0.4429 0.4430
834.905543 0.4320 0.4280 0.4290 0.3392 0.3350
839.285598 0.2483 0.1813 0.3533 0.4266 0.4280
843.665652 0.4280 0.4010 0.3810 0.2582 0.1892
848.045707 0.1671 0.1889 0.2547 0.3207 0.4155
852.425761 0.4060 0.4020 0.3720 0.1594 0.1590
856.805815 0.3793 0.4029 0.4249 0.4240 0.3583
861.185870 0.3350 0.3130 0.1971 0.1521 0.1969
865.565924 0.2927 0.3797 0.4139 0.4160 0.4140
869.945978 0.3920 0.2391 0.1891 0.3757 0.3989
874.326033 0.4279 0.4290 0.4290 0.3075 0.1707
878.706087 0.2620 0.3590 0.4159 0.4250 0.4350
883.086141 0.4360 0.4360 0.2238 0.2230 0.4340
887.466196 0.4600 0.4610 0.4650 0.4670 0.4670
891.846250 0.2505 0.3956 0.4687 0.5158 0.5160
896.226304 0.4839 0.3370 0.3370 0.4888 0.4930
900.606359 0.5349 0.5370 0.5370 0.3557 0.4884
904.986413 0.5230 0.5530 0.5889 0.6109 0.5831
909.366467 0.4674 0.4670 0.6074 0.6299 0.5853
913.746522 0.4751 0.5829 0.6219 0.6619 0.6819
918.126576 0.6900 0.6920 0.6462 0.6898 0.6999
922.506630 0.7250 0.7250 0.6781 0.7259 0.7499
926.886685 0.7630 0.7740 0.7760 0.7770 0.7840
931.266739 0.7990 0.8020 0.8030 0.8040 0.8100
935.646793 0.8180 0.8310 0.8330 0.8350 0.8370
940.026848 0.8430 0.8510 0.8540 0.8590 0.8590
944.406902 0.8610 0.8680 0.8700 0.8720 0.8730
948.786957 0.8760 0.8770 0.8790 0.8810 0.8830
953.167011 0.8840 0.8840 0.8840 0.8840 0.8840
957.547065 0.8840 0.8840 0.8840 0.8840 0.8840
961.927120 0.8850 0.8910 0.8910 0.8900 0.8850
966.307174 0.8840 0.8800 0.8800 0.8840 0.8850
970.687228 0.8840 0.8800 0.8730 0.8680 0.8590
975.067283 0.8590 0.8700 0.8720 0.8730 0.8730
979.447337 0.8730 0.8720 0.8501 0.8699 0.8700
983.827391 0.8700 0.8690 0.8690 0.8660 0.8291
988.207446 0.7852 0.8288 0.8499 0.8510 0.8500
992.587500 0.8460 0.8440 0.7931 0.7930 0.8389
996.967554 0.8430 0.8440 0.8500 0.8500 0.8460
1001.347609 0.8420 0.7061 0.7060 0.8128 0.8220
1005.727663 0.8330 0.8350 0.8360 0.8360 0.8350
1010.107717 0.8310 0.7890 0.7231 0.8138 0.8170
1014.487772 0.8220 0.8320 0.8320 0.8280 0.8131
1018.867826 0.7950 0.7730 0.6571 0.7947 0.8000
1023.247880 0.8150 0.8200 0.8220 0.8220 0.8111
1027.627935 0.8020 0.7770 0.7041 0.7040 0.8098
1032.007989 0.8110 0.8220 0.8240 0.8240 0.8220
1036.388043 0.8130 0.7910 0.7500 0.7470 0.6702
1040.768098 0.7518 0.8018 0.8130 0.8130 0.8110
1045.148152 0.8060 0.8030 0.8020 0.7930 0.7740
1049.528207 0.7122 0.7539 0.7978 0.8000 0.7950
1053.908261 0.8000 0.8020 0.8070 0.8070 0.7990
1058.288315 0.7960 0.7930 0.7013 0.7986 0.8030
1062.668370 0.8070 0.8110 0.8130 0.8110 0.8090
1067.048424 0.8060 0.8020 0.7950 0.7920 0.7691
1071.428478 0.7690 0.8209 0.8250 0.8260 0.8260
1075.808533 0.8250 0.8240 0.8210 0.8180 0.8150
1080.188587 0.8110 0.7730 0.8139 0.8250 0.8350
1084.568641 0.8360 0.8420 0.8420 0.8390 0.8370
1088.948696 0.8350 0.8330 0.8320 0.8280 0.8210
1093.328750 0.8210 0.8349 0.8420 0.8500 0.8510
1097.708804 0.8530 0.8530 0.8540 0.8530 0.8510
1102.088859 0.8470 0.8321 0.8320 0.8479 0.8510
1106.468913 0.8620 0.8650 0.8690 0.8660 0.8650
1110.848967 0.8620 0.8590 0.8580 0.8570 0.8530
1115.229022 0.8530 0.8580 0.8650 0.8660 0.8690
1119.609076 0.8700 0.8720 0.8720 0.8700 0.8700
1123.989130 0.8690 0.8690 0.8690 0.8680 0.8690
1128.369185 0.8730 0.8800 0.8810 0.8810 0.8790
1132.749239 0.8790 0.8790 0.8770 0.8760 0.8760
1137.129293 0.8750 0.8750 0.8730 0.8730 0.8730
1141.509348 0.8730 0.8750 0.8750 0.8750 0.8770
1145.889402 0.8770 0.8770 0.8760 0.8730 0.8730
1150.269457 0.8730 0.8750 0.8750 0.8770 0.8770
1154.649511 0.8790 0.8790 0.8790 0.8790 0.8770
1159.029565 0.8770 0.8770 0.8760 0.8760 0.8760
1163.409620 0.8750 0.8750 0.8750 0.8730 0.8730
1167.789674 0.8730 0.8730 0.8730 0.8730 0.8750
1172.169728 0.8750 0.8750 0.8760 0.8760 0.8770
1176.549783 0.8770 0.8770 0.8770 0.8770 0.8770
1180.929837 0.8770 0.8770 0.8760 0.8760 0.8760
1185.309891 0.8750 0.8750 0.8750 0.8750 0.8750
1189.689946 0.8750 0.8750 0.8750 0.8750 0.8750
1194.070000 0.8750 0.8750 0.8750 0.8750 0.8750
1198.450054 0.8750 0.8750 0.8760 0.8760 0.8760
1202.830109 0.8760 0.8770 0.8770 0.8770 0.8790
1207.210163 0.8790 0.8800 0.8800 0.8800 0.8800
1211.590217 0.8800 0.8800 0.8800 0.8800 0.8790
1215.970272 0.8790 0.8790 0.8790 0.8790 0.8790
1220.350326 0.8790 0.8770 0.8770 0.8790 0.8790
1224.730380 0.8790 0.8790 0.8790 0.8770 0.8770
1229.110435 0.8770 0.8770 0.8790 0.8790 0.8790
1233.490489 0.8790 0.8770 0.8770 0.8790 0.8790
1237.870543 0.8790 0.8800 0.8800 0.8800 0.8800
1242.250598 0.8800 0.8800 0.8800 0.8790 0.8790
1246.630652 0.8790 0.8790 0.8790 0.8790 0.8770
1251.010707 0.8770 0.8770 0.8770 0.8760 0.8760
1255.390761 0.8750 0.8750 0.8730 0.8730 0.8730
1259.770815 0.8730 0.8730 0.8730 0.8730 0.8730
1264.150870 0.8730 0.8730 0.8730 0.8730 0.8730
1268.530924 0.8730 0.8730 0.8730 0.8720 0.8720
1272.910978 0.8720 0.8720 0.8720 0.8720 0.8720
1277.291033 0.8720 0.8720 0.8720 0.8720 0.8720
1281.671087 0.8700 0.8700 0.8700 0.8700 0.8700
1286.051141 0.8700 0.8700 0.8700 0.8690 0.8690
1290.431196 0.8690 0.8690 0.8680 0.8660 0.8660
1294.811250 0.8660 0.8660 0.8680 0.8680 0.8680
1299.191304 0.8680 0.8660 0.8650 0.8640 0.8640
1303.571359 0.8620 0.8610 0.8610 0.8610 0.8610
1307.951413 0.8610 0.8590 0.8590 0.8590 0.8570
1312.331467 0.8540 0.8540 0.8540 0.8540 0.8540
1316.711522 0.8540 0.8540 0.8530 0.8530 0.8510
1321.091576 0.8510 0.8510 0.8500 0.8500 0.8500
1325.471630 0.8480 0.8470 0.8460 0.8440 0.8440
1329.851685 0.8440 0.8440 0.8430 0.8430 0.8430
1334.231739 0.8420 0.8400 0.8400 0.8390 0.8390
1338.611793 0.8390 0.8370 0.8360 0.8350 0.8350
1342.991848 0.8330 0.8330 0.8330 0.8330 0.8320
1347.371902 0.8320 0.8320 0.8320 0.8320 0.8320
1351.751957 0.8320 0.8310 0.8310 0.8280 0.8250
1356.132011 0.8220 0.8200 0.8180 0.8150 0.8140
1360.512065 0.8140 0.8130 0.8110 0.8100 0.8070
1364.892120 0.8060 0.8000 0.7950 0.7850 0.7770
1369.272174 0.7670 0.7650 0.7440 0.7390 0.7280
1373.652228 0.7250 0.7210 0.7140 0.7070 0.6921
1378.032283 0.6860 0.6850 0.6840 0.6840 0.6850
1382.412337 0.6880 0.6880 0.6920 0.6930 0.6950
1386.792391 0.6990 0.7010 0.7070 0.7070 0.7080
1391.172446 0.7140 0.7290 0.7758 0.7760 0.7700
1395.552500 0.7620 0.7440 0.7330 0.7250 0.7250
1399.932554 0.7260 0.7300 0.7320 0.7330 0.7330
1404.312609 0.7330 0.7320 0.7300 0.7250 0.7210
1408.692663 0.7170 0.7150 0.7140 0.7140 0.7180
1413.072717 0.7370 0.7400 0.7450 0.7540 0.7590
1417.452772 0.7710 0.7760 0.7840 0.7930 0.7950
1421.832826 0.8030 0.8140 0.8260 0.8310 0.8320
1426.212880 0.8330 0.8390 0.8400 0.8430 0.8460
1430.592935 0.8470 0.8500 0.8510 0.8550 0.8570
1434.972989 0.8590 0.8610 0.8610 0.8610 0.8590
1439.353043 0.8590 0.8590 0.8590 0.8590 0.8590
1443.733098 0.8590 0.8590 0.8610 0.8620 0.8640
1448.113152 0.8640 0.8640 0.8640 0.8620 0.8620
1452.493207 0.8620 0.8640 0.8650 0.8650 0.8660
1456.873261 0.8690 0.8680 0.8660 0.8660 0.8660
1461.253315 0.8690 0.8720 0.8750 0.8750 0.8760
1465.633370 0.8760 0.8750 0.8730 0.8750 0.8760
1470.013424 0.8760 0.8750 0.8730 0.8720 0.8720
1474.393478 0.8700 0.8700 0.8700 0.8700 0.8700
1478.773533 0.8700 0.8700 0.8720 0.8750 0.8750
1483.153587 0.8760 0.8770 0.8770 0.8770 0.8770
1487.533641 0.8760 0.8760 0.8760 0.8770 0.8770
1491.913696 0.8770 0.8790 0.8800 0.8800 0.8800
1496.293750 0.8800 0.8790 0.8790 0.8800 0.8800
1500.673804 0.8800 0.8800 0.8800 0.8800 0.8800
1505.053859 0.8800 0.8790 0.8790 0.8770 0.8770
1509.433913 0.8760 0.8770 0.8770 0.8790 0.8800
1513.813967 0.8800 0.8800 0.8810 0.8810 0.8810
1518.194022 0.8810 0.8800 0.8800 0.8800 0.8810
1522.574076 0.8800 0.8800 0.8810 0.8830 0.8830
1526.954130 0.8830 0.8840 0.8840 0.8850 0.8850
1531.334185 0.8850 0.8850 0.8840 0.8840 0.8840
1535.714239 0.8840 0.8840 0.8840 0.8810 0.8800
1540.094293 0.8790 0.8770 0.8770 0.8790 0.8800
1544.474348 0.8810 0.8810 0.8830 0.8830 0.8840
1548.854402 0.8840 0.8840 0.8840 0.8840 0.8830
1553.234457 0.8830 0.8830 0.8830 0.8810 0.8800
1557.614511 0.8800 0.8790 0.8770 0.8760 0.8730
1561.994565 0.8730 0.8800 0.8870 0.8900 0.8900
1566.374620 0.8900 0.8910 0.8910 0.8920 0.8920
1570.754674 0.8940 0.8940 0.8950 0.8960 0.8960
1575.134728 0.8960 0.8960 0.8960 0.8980 0.9010
1579.514783 0.9020 0.9070 0.9070 0.9120 0.9140
1583.894837 0.9140 0.9180 0.9230 0.9270 0.9310
1588.274891 0.9340 0.9350 0.9350 0.9380 0.9400
1592.654946 0.9420 0.9450 0.9460 0.9470 0.9470
1597.035000 0.9460 0.9460 0.9460 0.9460 0.9450
1601.415054 0.9430 0.9420 0.9390 0.9390 0.9350
1605.795109 0.9340 0.9340 0.9320 0.9310 0.9290
1610.175163 0.9280 0.9270 0.9240 0.9230 0.9200
1614.555217 0.9180 0.9140 0.9130 0.9120 0.9060
1618.935272 0.9050 0.9030 0.9030 0.9020 0.9010
1623.315326 0.9010 0.8990 0.8940 0.8910 0.8900
1627.695380 0.8870 0.8830 0.8810 0.8810 0.8800
1632.075435 0.8800 0.8790 0.8770 0.8730 0.8700
1636.455489 0.8680 0.8650 0.8620 0.8610 0.8610
1640.835543 0.8610 0.8590 0.8580 0.8540 0.8510
1645.215598 0.8500 0.8390 0.8320 0.8310 0.8250
1649.595652 0.8240 0.8200 0.8070 0.8030 0.7960
1653.975707 0.7930 0.7920 0.7890 0.7870 0.7780
1658.355761 0.7760 0.7650 0.7600 0.7400 0.7280
1662.735815 0.7250 0.7180 0.7080 0.7000 0.6950
1667.115870 0.6920 0.6900 0.6810 0.6740 0.6670
1671.495924 0.6600 0.6560 0.6550 0.6560 0.6570
1675.875978 0.6590 0.6590 0.6600 0.6670 0.6730
1680.256033 0.6770 0.6840 0.6989 0.7109 0.7140
1684.636087 0.7190 0.7250 0.7360 0.7360 0.7300
1689.016141 0.7280 0.7260 0.7230 0.6951 0.6811
1693.396196 0.6730 0.6620 0.6590 0.6520 0.6520
1697.776250 0.6590 0.6600 0.6620 0.6630 0.6710
1702.156304 0.6810 0.6900 0.6990 0.7030 0.7100
1706.536359 0.7290 0.7450 0.7590 0.7739 0.7800
1710.916413 0.7930 0.7990 0.8130 0.8210 0.8250
1715.296467 0.8320 0.8350 0.8430 0.8440 0.8460
1719.676522 0.8500 0.8510 0.8610 0.8690 0.8720
1724.056576 0.8720 0.8730 0.8730 0.8730 0.8730
1728.436630 0.8770 0.8770 0.8770 0.8770 0.8770
1732.816685 0.8760 0.8770 0.8770 0.8790 0.8840
1737.196739 0.8840 0.8840 0.8840 0.8840 0.8850
1741.576793 0.8840 0.8830 0.8830 0.8830 0.8830
1745.956848 0.8840 0.8840 0.8840 0.8840 0.8840
1750.336902 0.8830 0.8830 0.8840 0.8840 0.8850
1754.716957 0.8850 0.8850 0.8870 0.8870 0.8870
1759.097011 0.8850 0.8850 0.8850 0.8850 0.8870
1763.477065 0.8880 0.8900 0.8900 0.8900 0.8880
1767.857120 0.8880 0.8870 0.8870 0.8840 0.8830
1772.237174 0.8830 0.8870 0.8900 0.8900 0.8900
1776.617228 0.8900 0.8900 0.8880 0.8870 0.8870
1780.997283 0.8870 0.8910 0.8910 0.8880 0.8870
1785.377337 0.8870 0.8870 0.8880 0.8880 0.8880
1789.757391 0.8870 0.8870 0.8900 0.8900 0.8900
1794.137446 0.8880 0.8880 0.8880 0.8880 0.8900
1798.517500 0.8900 0.8900 0.8900 0.8910 0.8910
1802.897554 0.8900 0.8880 0.8880 0.8870 0.8870
1807.277609 0.8870 0.8870 0.8870 0.8870 0.8870
1811.657663 0.8870 0.8870 0.8870 0.8870 0.8870
1816.037717 0.8870 0.8870 0.8880 0.8880 0.8870
1820.417772 0.8870 0.8870 0.8870 0.8870 0.8870
1824.797826 0.8870 0.8870 0.8870 0.8870 0.8870
1829.177880 0.8870 0.8870 0.8870 0.8870 0.8870
1833.557935 0.8870 0.8870 0.8870 0.8870 0.8870
1837.937989 0.8870 0.8870 0.8850 0.8850 0.8840
1842.318043 0.8830 0.8830 0.8830 0.8840 0.8850
1846.698098 0.8870 0.8870 0.8900 0.8900 0.8900
1851.078152 0.8900 0.8900 0.8900 0.8880 0.8870
1855.458207 0.8870 0.8870 0.8870 0.8870 0.8870
1859.838261 0.8870 0.8870 0.8870 0.8850 0.8850
1864.218315 0.8850 0.8850 0.8850 0.8850 0.8840
1868.598370 0.8840 0.8840 0.8840 0.8840 0.8850
1872.978424 0.8850 0.8850 0.8850 0.8850 0.8850
1877.358478 0.8850 0.8850 0.8850 0.8840 0.8840
1881.738533 0.8840 0.8840 0.8840 0.8840 0.8830
1886.118587 0.8810 0.8800 0.8770 0.8770 0.8760
1890.498641 0.8760 0.8760 0.8760 0.8760 0.8760
1894.878696 0.8720 0.8700 0.8700 0.8700 0.8700
1899.258750 0.8690 0.8690 0.8690 0.8680 0.8660
1903.638804 0.8650 0.8640 0.8620 0.8610 0.8590
1908.018859 0.8580 0.8540 0.8510 0.8500 0.8440
1912.398913 0.8400 0.8350 0.8310 0.8200 0.8060
1916.778967 0.7980 0.7870 0.7671 0.7580 0.7560
1921.159022 0.7400 0.7230 0.6840 0.6680 0.6490
1925.539076 0.6350 0.6161 0.6011 0.5681 0.5491
1929.919130 0.5370 0.4890 0.4610 0.4290 0.4070
1934.299185 0.3811 0.3641 0.3291 0.3041 0.2871
1938.679239 0.2690 0.2590 0.2370 0.2170 0.2010
1943.059293 0.1880 0.1860 0.1850 0.1850 0.1850
1947.439348 0.1860 0.1860 0.1880 0.1890 0.1920
1951.819402 0.2010 0.2070 0.2289 0.2579 0.2540
1956.199457 0.2450 0.2410 0.2370 0.2330 0.2330
1960.579511 0.3617 0.3620 0.2504 0.1892 0.1741
1964.959565 0.1640 0.1590 0.1560 0.1550 0.1490
1969.339620 0.1440 0.1370 0.1340 0.1340 0.1350
1973.719674 0.1370 0.1410 0.1420 0.1480 0.1570
1978.099728 0.1680 0.1810 0.2029 0.2319 0.2668
1982.479783 0.3420 0.3610 0.3870 0.4279 0.4789
1986.859837 0.5239 0.5529 0.5928 0.6308 0.6658
1991.239891 0.7230 0.7580 0.7760 0.7990 0.8040
1995.619946 0.8100 0.8110 0.8110 0.8100 0.8040
2000.000000 0.8040 0.8075 0.8110 0.8160 0.8210
2004.380054 0.8250 0.8290 0.8300 0.8310 0.8300
2008.760109 0.8290 0.8290 0.8290 0.8265 0.8240
2013.140163 0.8225 0.8210 0.8195 0.8180 0.8175
2017.520217 0.8170 0.8170 0.8170 0.8175 0.8180
2021.900272 0.8190 0.8200 0.8205 0.8212 0.8272
2026.280326 0.8330 0.8340 0.8351 0.8371 0.8391
2030.660380 0.8411 0.8431 0.8456 0.8481 0.8512
2035.040435 0.8543 0.8593 0.8640 0.8640 0.8642
2039.420489 0.8667 0.8691 0.8706 0.8721 0.8736
2043.800543 0.8751 0.8771 0.8791 0.8811 0.8830
2048.180598 0.8835 0.8840 0.8845 0.8850 0.8850
2052.560652 0.8851 0.8861 0.8870 0.8870 0.8870
2056.940707 0.8870 0.8870 0.8870 0.8870 0.8870
2061.320761 0.8872 0.8887 0.8900 0.8900 0.8900
2065.700815 0.8900 0.8900 0.8900 0.8900 0.8900
2070.080870 0.8900 0.8900 0.8900 0.8900 0.8900
2074.460924 0.8900 0.8900 0.8900 0.8900 0.8900
2078.840978 0.8901 0.8906 0.8910 0.8910 0.8910
2083.221033 0.8910 0.8910 0.8910 0.8910 0.8910
2087.601087 0.8909 0.8904 0.8900 0.8900 0.8898
2091.981141 0.8888 0.8880 0.8880 0.8882 0.8892
2096.361196 0.8900 0.8900 0.8900 0.8900 0.8900
2100.741250 0.8900 0.8898 0.8888 0.8880 0.8880
2105.121304 0.8880 0.8880 0.8880 0.8880 0.8880
2109.501359 0.8880 0.8880 0.8880 0.8882 0.8892
2113.881413 0.8901 0.8906 0.8910 0.8910 0.8910
2118.261467 0.8910 0.8911 0.8916 0.8920 0.8920
2122.641522 0.8920 0.8920 0.8920 0.8920 0.8920
2127.021576 0.8920 0.8920 0.8920 0.8920 0.8920
2131.401630 0.8920 0.8920 0.8920 0.8920 0.8922
2135.781685 0.8932 0.8940 0.8940 0.8940 0.8940
2140.161739 0.8940 0.8940 0.8936 0.8921 0.8910
2144.541793 0.8910 0.8911 0.8916 0.8920 0.8920
2148.921848 0.8920 0.8920 0.8920 0.8920 0.8920
2153.301902 0.8920 0.8919 0.8914 0.8910 0.8910
2157.681957 0.8910 0.8910 0.8910 0.8910 0.8910
2162.062011 0.8910 0.8910 0.8910 0.8910 0.8910
2166.442065 0.8911 0.8916 0.8920 0.8920 0.8920
2170.822120 0.8920 0.8919 0.8914 0.8910 0.8910
2175.202174 0.8912 0.8917 0.8920 0.8920 0.8920
2179.582228 0.8920 0.8923 0.8933 0.8940 0.8940
2183.962283 0.8942 0.8947 0.8950 0.8950 0.8950
2188.342337 0.8950 0.8950 0.8950 0.8950 0.8950
2192.722391 0.8950 0.8950 0.8952 0.8957 0.8963
2197.102446 0.8973 0.8980 0.8980 0.8980 0.8980
2201.482500 0.8976 0.8966 0.8958 0.8953 0.8948
2205.862554 0.8943 0.8940 0.8940 0.8936 0.8926
2210.242609 0.8920 0.8920 0.8920 0.8920 0.8920
2214.622663 0.8920 0.8920 0.8920 0.8920 0.8920
2219.002717 0.8920 0.8920 0.8920 0.8920 0.8920
2223.382772 0.8920 0.8920 0.8920 0.8920 0.8920
2227.762826 0.8920 0.8920 0.8920 0.8920 0.8924
2232.142880 0.8934 0.8942 0.8947 0.8956 0.8971
2236.522935 0.8980 0.8980 0.8980 0.8980 0.8980
2240.902989 0.8980 0.8976 0.8966 0.8960 0.8960
2245.283043 0.8964 0.8974 0.8980 0.8980 0.8982
2249.663098 0.8987 0.8990 0.8990 0.8994 0.9004
2254.043152 0.9010 0.9010 0.9010 0.9010 0.9010
2258.423207 0.9010 0.9010 0.9010 0.9010 0.9010
2262.803261 0.9010 0.9010 0.9010 0.9010 0.9010
2267.183315 0.9010 0.9010 0.9010 0.9010 0.9010
2271.563370 0.9010 0.9010 0.9003 0.8988 0.8980
2275.943424 0.8980 0.8980 0.8980 0.8980 0.8980
2280.323478 0.8975 0.8965 0.8960 0.8960 0.8965
2284.703533 0.8975 0.8983 0.8988 0.8990 0.8990
2289.083587 0.8990 0.8990 0.8990 0.8990 0.8987
2293.463641 0.8982 0.8980 0.8980 0.8980 0.8980
2297.843696 0.8980 0.8980 0.8980 0.8980 0.8980
2302.223750 0.8980 0.8980 0.8980 0.8983 0.8988
2306.603804 0.8990 0.8990 0.8990 0.8990 0.8990
2310.983859 0.8990 0.8990 0.8990 0.8990 0.8990
2315.363913 0.8990 0.8990 0.8990 0.8990 0.8990
2319.743967 0.8990 0.8990 0.8990 0.8990 0.8990
2324.124022 0.8990 0.8990 0.8990 0.8990 0.8990
2328.504076 0.8990 0.8990 0.8990 0.8990 0.8990
2332.884130 0.8987 0.8982 0.8980 0.8980 0.8974
2337.264185 0.8964 0.8960 0.8960 0.8960 0.8960
2341.644239 0.8960 0.8960 0.8960 0.8960 0.8960
2346.024293 0.8960 0.8960 0.8960 0.8960 0.8960
2350.404348 0.8960 0.8960 0.8960 0.8960 0.8960
2354.784402 0.8960 0.8966 0.8976 0.8980 0.8980
2359.164457 0.8980 0.8980 0.8980 0.8980 0.8980
2363.544511 0.8980 0.8980 0.8980 0.8983 0.8988
2367.924565 0.8990 0.8990 0.8987 0.8982 0.8980
2372.304620 0.8980 0.8980 0.8980 0.8980 0.8980
2376.684674 0.8983 0.8988 0.8990 0.8990 0.8990
2381.064728 0.8990 0.8990 0.8990 0.8997 0.9007
2385.444783 0.9013 0.9018 0.9020 0.9020 0.9023
2389.824837 0.9028 0.9027 0.9022 0.9020 0.9020
2394.204891 0.9020 0.9020 0.9020 0.9020 0.9020
2398.584946 0.9020 0.9020 0.9020 0.9020 0.9020
2402.965000 0.9020 0.9020 0.9020 0.9020 0.9020
2407.345054 0.9020 0.9020 0.9020 0.9020 0.9020
2411.725109 0.9016 0.9011 0.9003 0.8993 0.8986
2416.105163 0.8981 0.8980 0.8980 0.8980 0.8980
2420.485217 0.8984 0.8989 0.8998 0.9008 0.9010
2424.865272 0.9010 0.9010 0.9010 0.9002 0.8992
2429.245326 0.8990 0.8990 0.8990 0.8990 0.8998
2433.625380 0.9008 0.9018 0.9028 0.9030 0.9030
2438.005435 0.9030 0.9030 0.9030 0.9030 0.9030
2442.385489 0.9030 0.9030 0.9030 0.9030 0.9030
2446.765543 0.9038 0.9048 0.9054 0.9059 0.9060
2451.145598 0.9060 0.9072 0.9087 0.9090 0.9090
2455.525652 0.9078 0.9063 0.9060 0.9060 0.9060
2459.905707 0.9060 0.9060 0.9060 0.9064 0.9069
2464.285761 0.9078 0.9088 0.9094 0.9099 0.9100
2468.665815 0.9100 0.9096 0.9091 0.9090 0.9090
2473.045870 0.9094 0.9099 0.9087 0.9072 0.9070
2477.425924 0.9070 0.9070 0.9070 0.9070 0.9070
2481.805978 0.9083 0.9098 0.9100 0.9100 0.9100
2486.186033 0.9100 0.9100 0.9100 0.9096 0.9091
2490.566087 0.9090 0.9090 0.9090 0.9090 0.9090
2494.946141 0.9090 0.9090 0.9090 0.9090 0.9090
2499.326196 0.9090 0.9090 0.9090 0.9090 0.9094
2503.706250 0.9099 0.9109 0.9119 0.9120 0.9120
2508.086304 0.9125 0.9130 0.9130 0.9130 0.9125
2512.466359 0.9120 0.9120 0.9120 0.9125 0.9130
2516.846413 0.9130 0.9130 0.9130 0.9130 0.9130
2521.226467 0.9130 0.9130 0.9130 0.9135 0.9140
2525.606522 0.9149 0.9159 0.9165 0.9170 0.9170
2529.986576 0.9170 0.9170 0.9170 0.9170 0.9170
2534.366630 0.9170 0.9170 0.9170 0.9170 0.9170
2538.746685 0.9170 0.9170 0.9170 0.9170 0.9170
2543.126739 0.9170 0.9170 0.9170 0.9170 0.9170
2547.506793 0.9170 0.9170 0.9170 0.9165 0.9160
2551.886848 0.9150 0.9140 0.9140 0.9140 0.9135
2556.266902 0.9130 0.9130 0.9130 0.9130 0.9130
2560.646957 0.9130 0.9130 0.9130 0.9130 0.9130
2565.027011 0.9130 0.9135 0.9140 0.9150 0.9160
2569.407065 0.9160 0.9160 0.9160 0.9160 0.9165
2573.787120 0.9170 0.9170 0.9170 0.9170 0.9170
2578.167174 0.9170 0.9170 0.9170 0.9170 0.9170
2582.547228 0.9170 0.9170 0.9170 0.9170 0.9170
2586.927283 0.9175 0.9180 0.9190 0.9200 0.9200
2591.307337 0.9200 0.9200 0.9200 0.9200 0.9200
2595.687391 0.9200 0.9200 0.9200 0.9200 0.9200
2600.067446 0.9200 0.9200 0.9200 0.9200 0.9200
2604.447500 0.9205 0.9210 0.9210 0.9210 0.9210
2608.827554 0.9211 0.9221 0.9230 0.9230 0.9230
2613.207609 0.9230 0.9230 0.9230 0.9229 0.9219
2617.587663 0.9210 0.9210 0.9209 0.9204 0.9200
2621.967717 0.9200 0.9200 0.9200 0.9200 0.9200
2626.347772 0.9200 0.9200 0.9201 0.9206 0.9210
2630.727826 0.9210 0.9210 0.9210 0.9210 0.9210
2635.107880 0.9210 0.9210 0.9210 0.9210 0.9210
2639.487935 0.9210 0.9210 0.9210 0.9210 0.9210
2643.867989 0.9210 0.9210 0.9209 0.9204 0.9200
2648.248043 0.9200 0.9201 0.9206 0.9212 0.9222
2652.628098 0.9230 0.9230 0.9230 0.9230 0.9230
2657.008152 0.9230 0.9230 0.9230 0.9230 0.9230
2661.388207 0.9230 0.9230 0.9230 0.9230 0.9230
2665.768261 0.9230 0.9230 0.9230 0.9230 0.9230
2670.148315 0.9230 0.9230 0.9230 0.9230 0.9232
2674.528370 0.9242 0.9250 0.9250 0.9250 0.9250
2678.908424 0.9250 0.9250 0.9249 0.9244 0.9240
2683.288478 0.9240 0.9240 0.9240 0.9240 0.9240
2687.668533 0.9240 0.9240 0.9240 0.9240 0.9240
2692.048587 0.9240 0.9240 0.9240 0.9240 0.9240
2696.428641 0.9240 0.9240 0.9240 0.9240 0.9240
2700.808696 0.9240 0.9240 0.9240 0.9240 0.9240
2705.188750 0.9239 0.9234 0.9227 0.9217 0.9210
2709.568804 0.9210 0.9210 0.9210 0.9210 0.9210
2713.948859 0.9210 0.9210 0.9210 0.9210 0.9210
2718.328913 0.9210 0.9210 0.9210 0.9210 0.9210
2722.708967 0.9210 0.9210 0.9210 0.9210 0.9213
2727.089022 0.9223 0.9227 0.9217 0.9210 0.9210
2731.469076 0.9210 0.9210 0.9210 0.9210 0.9210
2735.849130 0.9210 0.9210 0.9210 0.9213 0.9223
2740.229185 0.9230 0.9230 0.9230 0.9230 0.9230
2744.609239 0.9230 0.9232 0.9237 0.9240 0.9240
2748.989293 0.9240 0.9240 0.9240 0.9240 0.9240
2753.369348 0.9240 0.9240 0.9240 0.9240 0.9240
2757.749402 0.9240 0.9240 0.9240 0.9240 0.9240
2762.129457 0.9240 0.9238 0.9233 0.9230 0.9230
2766.509511 0.9230 0.9230 0.9230 0.9230 0.9226
2770.889565 0.9216 0.9210 0.9210 0.9210 0.9210
2775.269620 0.9208 0.9203 0.9200 0.9200 0.9200
2779.649674 0.9200 0.9196 0.9186 0.9178 0.9173
2784.029728 0.9168 0.9163 0.9156 0.9146 0.9138
2788.409783 0.9133 0.9130 0.9130 0.9128 0.9123
2792.789837 0.9116 0.9106 0.9100 0.9100 0.9098
2797.169891 0.9093 0.9086 0.9076 0.9068 0.9063
2801.549946 0.9049 0.9024 0.9006 0.8996 0.8988
2805.930000 0.8983 0.8976 0.8966 0.8958 0.8953
2810.310054 0.8950 0.8950 0.8952 0.8957 0.8965
2814.690109 0.8975 0.8980 0.8980 0.8982 0.8987
2819.070163 0.8995 0.9005 0.9010 0.9010 0.9012
2823.450217 0.9017 0.9020 0.9020 0.9020 0.9020
2827.830272 0.9018 0.9013 0.9010 0.9010 0.9010
2832.210326 0.9010 0.9005 0.8995 0.8990 0.8990
2836.590380 0.8990 0.8990 0.8990 0.8990 0.8990
2840.970435 0.8990 0.8995 0.9005 0.9013 0.9018
2845.350489 0.9023 0.9028 0.9035 0.9045 0.9050
2849.730543 0.9050 0.9053 0.9058 0.9060 0.9060
2854.110598 0.9063 0.9068 0.9075 0.9085 0.9093
2858.490652 0.9098 0.9100 0.9100 0.9100 0.9100
2862.870707 0.9105 0.9115 0.9120 0.9120 0.9123
2867.250761 0.9128 0.9130 0.9130 0.9130 0.9130
2871.630815 0.9130 0.9130 0.9130 0.9130 0.9130
2876.010870 0.9130 0.9130 0.9130 0.9130 0.9130
2880.390924 0.9130 0.9130 0.9133 0.9138 0.9140
2884.770978 0.9140 0.9140 0.9140 0.9140 0.9140
2889.151033 0.9140 0.9140 0.9140 0.9140 0.9140
2893.531087 0.9140 0.9140 0.9140 0.9140 0.9140
2897.911141 0.9140 0.9140 0.9140 0.9140 0.9140
2902.291196 0.9140 0.9140 0.9140 0.9140 0.9140
2906.671250 0.9137 0.9132 0.9130 0.9130 0.9127
2911.051304 0.9122 0.9110 0.9095 0.9080 0.9065
2915.431359 0.9057 0.9052 0.9050 0.9050 0.9044
2919.811413 0.9034 0.9030 0.9030 0.9036 0.9046
2924.191467 0.9050 0.9050 0.9050 0.9050 0.9050
2928.571522 0.9050 0.9053 0.9058 0.9060 0.9060
2932.951576 0.9050 0.9035 0.9030 0.9030 0.9030
2937.331630 0.9030 0.9030 0.9030 0.9030 0.9030
2941.711685 0.9027 0.9022 0.9017 0.9012 0.9010
2946.091739 0.9010 0.9010 0.9010 0.9010 0.9010
2950.471793 0.9003 0.8993 0.8990 0.8990 0.8986
2954.851848 0.8981 0.8973 0.8963 0.8967 0.8977
2959.231902 0.8984 0.8989 0.8990 0.8990 0.8997
2963.611957 0.9007 0.9014 0.9019 0.9020 0.9020
2967.992011 0.9020 0.9020 0.9009 0.8994 0.8979
2972.372065 0.8964 0.8953 0.8943 0.8918 0.8888
2976.752120 0.8876 0.8871 0.8863 0.8852 0.8801
2981.132174 0.8736 0.8671 0.8606 0.8556 0.8511
2985.512228 0.8447 0.8377 0.8341 0.8316 0.8272
2989.892283 0.8222 0.8095 0.7945 0.7814 0.7689
2994.272337 0.7629 0.7589 0.7580 0.7580 0.7600
2998.652391 0.7625 0.7670 0.7720 0.7774 0.7829
3003.032446 0.7876 0.7921 0.7966 0.8011 0.8020
3007.412500 0.8020 0.7916 0.7786 0.7896 0.8066
3011.792554 0.8264 0.8469 0.8518 0.8528 0.8320
3016.172609 0.8065 0.7872 0.7692 0.7483 0.7268
3020.552663 0.7222 0.7212 0.7214 0.7219 0.7266
3024.932717 0.7321 0.7388 0.7458 0.7524 0.7589
3029.312772 0.7737 0.7902 0.8035 0.8161 0.8402
3033.692826 0.8662 0.8709 0.8719 0.8733 0.8748
3038.072880 0.8754 0.8759 0.8764 0.8769 0.8834
3042.452935 0.8909 0.8967 0.9022 0.9039 0.9049
3046.832989 0.9050 0.9050 0.9067 0.9088 0.9103
3051.213043 0.9118 0.9120 0.9120 0.9111 0.9101
3055.593098 0.9064 0.9024 0.9016 0.9011 0.9014
3059.973152 0.9019 0.9065 0.9115 0.9111 0.9101
3064.353207 0.9064 0.9024 0.9006 0.8991 0.8999
3068.733261 0.9009 0.9047 0.9087 0.9095 0.9100
3073.113315 0.9036 0.8966 0.8905 0.8845 0.8840
3077.493370 0.8840 0.8955 0.9081 0.9081 0.9071
3081.873424 0.9061 0.9051 0.9008 0.8962 0.8917
3086.253478 0.8872 0.8955 0.9045 0.9069 0.9089
3090.633533 0.9080 0.9070 0.8980 0.8884 0.8737
3095.013587 0.8587 0.8580 0.8580 0.8814 0.9059
3099.393641 0.9070 0.9070 0.8881 0.8684 0.8861
3103.773696 0.9046 0.9021 0.8991 0.8956 0.8921
3108.153750 0.8974 0.9029 0.9030 0.9030 0.9045
3112.533804 0.9060 0.8863 0.8663 0.8818 0.8978
3116.913859 0.9024 0.9069 0.9080 0.9089 0.8994
3121.293913 0.8900 0.8900 0.8901 0.9011 0.9119
3125.673967 0.9054 0.8989 0.8944 0.8900 0.8900
3130.054022 0.8901 0.8946 0.8991 0.9061 0.9130
3134.434076 0.9150 0.9170 0.9170 0.9169 0.9149
3138.814130 0.9130 0.9135 0.9141 0.9156 0.9170
3143.194185 0.9175 0.9180 0.9190 0.9199 0.9179
3147.574239 0.9160 0.9160 0.9161 0.9186 0.9212
3151.954293 0.9242 0.9270 0.9275 0.9279 0.9264
3156.334348 0.9249 0.9239 0.9230 0.9235 0.9245
3160.714402 0.9305 0.9360 0.9360 0.9361 0.9371
3165.094457 0.9380 0.9385 0.9390 0.9390 0.9390
3169.474511 0.9390 0.9390 0.9390 0.9391 0.9396
3173.854565 0.9400 0.9400 0.9400 0.9400 0.9400
3178.234620 0.9400 0.9400 0.9400 0.9401 0.9411
3182.614674 0.9421 0.9426 0.9432 0.9447 0.9460
3186.994728 0.9460 0.9460 0.9460 0.9460 0.9460
3191.374783 0.9461 0.9466 0.9470 0.9470 0.9470
3195.754837 0.9470 0.9470 0.9470 0.9470 0.9470
3200.134891 0.9471 0.9481 0.9491 0.9496 0.9501
3204.514946 0.9506 0.9511 0.9522 0.9530 0.9530
3208.895000 0.9530 0.9530 0.9531 0.9536 0.9540
3213.275054 0.9540 0.9540 0.9540 0.9540 0.9540
3217.655109 0.9540 0.9540 0.9542 0.9552 0.9560
3222.035163 0.9560 0.9562 0.9572 0.9582 0.9592
3226.415217 0.9600 0.9600 0.9601 0.9606 0.9611
3230.795272 0.9616 0.9622 0.9632 0.9640 0.9640
3235.175326 0.9640 0.9640 0.9640 0.9640 0.9638
3239.555380 0.9628 0.9620 0.9620 0.9620 0.9620
3243.935435 0.9620 0.9620 0.9622 0.9632 0.9640
3248.315489 0.9640 0.9641 0.9646 0.9650 0.9650
3252.695543 0.9650 0.9650 0.9649 0.9644 0.9640
3257.075598 0.9640 0.9640 0.9640 0.9641 0.9646
3261.455652 0.9653 0.9663 0.9671 0.9676 0.9681
3265.835707 0.9686 0.9690 0.9690 0.9690 0.9690
3270.215761 0.9690 0.9690 0.9690 0.9690 0.9690
3274.595815 0.9690 0.9693 0.9703 0.9710 0.9710
3278.975870 0.9710 0.9710 0.9713 0.9723 0.9733
3283.355924 0.9743 0.9750 0.9750 0.9750 0.9750
3287.735978 0.9751 0.9757 0.9760 0.9760 0.9763
3292.116033 0.9773 0.9782 0.9787 0.9790 0.9790
3296.496087 0.9792 0.9797 0.9800 0.9800 0.9800
3300.876141 0.9800 0.9800 0.9800 0.9798 0.9793
3305.256196 0.9790 0.9790 0.9788 0.9783 0.9780
3309.636250 0.9780 0.9780 0.9780 0.9780 0.9780
3314.016304 0.9776 0.9766 0.9760 0.9760 0.9760
3318.396359 0.9760 0.9758 0.9753 0.9750 0.9750
3322.776413 0.9750 0.9750 0.9750 0.9750 0.9750
3327.156467 0.9750 0.9746 0.9736 0.9730 0.9730
3331.536522 0.9730 0.9730 0.9730 0.9730 0.9730
3335.916576 0.9730 0.9730 0.9730 0.9730 0.9730
3340.296630 0.9730 0.9730 0.9734 0.9744 0.9750
3344.676685 0.9750 0.9750 0.9750 0.9750 0.9750
3349.056739 0.9750 0.9750 0.9752 0.9757 0.9760
3353.436793 0.9760 0.9760 0.9760 0.9764 0.9774
3357.816848 0.9780 0.9780 0.9780 0.9780 0.9782
3362.196902 0.9787 0.9790 0.9790 0.9790 0.9790
3366.576957 0.9792 0.9797 0.9800 0.9800 0.9805
3370.957011 0.9815 0.9820 0.9820 0.9820 0.9820
3375.337065 0.9820 0.9820 0.9820 0.9820 0.9822
3379.717120 0.9827 0.9830 0.9830 0.9832 0.9837
3384.097174 0.9840 0.9840 0.9838 0.9833 0.9830
3388.477228 0.9830 0.9828 0.9823 0.9820 0.9820
3392.857283 0.9820 0.9820 0.9815 0.9805 0.9800
3397.237337 0.9800 0.9798 0.9792 0.9790 0.9790
3401.617391 0.9787 0.9782 0.9780 0.9780 0.9780
3405.997446 0.9780 0.9780 0.9780 0.9775 0.9765
3410.377500 0.9760 0.9760 0.9760 0.9760 0.9760
3414.757554 0.9760 0.9765 0.9775 0.9780 0.9780
3419.137609 0.9783 0.9788 0.9790 0.9790 0.9793
3423.517663 0.9798 0.9800 0.9800 0.9805 0.9815
3427.897717 0.9823 0.9828 0.9830 0.9830 0.9833
3432.277772 0.9838 0.9840 0.9840 0.9840 0.9840
3436.657826 0.9840 0.9840 0.9840 0.9840 0.9837
3441.037880 0.9832 0.9830 0.9830 0.9830 0.9830
3445.417935 0.9830 0.9830 0.9830 0.9830 0.9830
3449.797989 0.9830 0.9830 0.9830 0.9830 0.9830
3454.178043 0.9830 0.9830 0.9830 0.9830 0.9830
3458.558098 0.9830 0.9830 0.9830 0.9830 0.9830
3462.938152 0.9830 0.9830 0.9830 0.9830 0.9830
3467.318207 0.9830 0.9830 0.9830 0.9830 0.9830
3471.698261 0.9830 0.9830 0.9830 0.9830 0.9830
3476.078315 0.9830 0.9833 0.9838 0.9840 0.9840
3480.458370 0.9840 0.9840 0.9840 0.9840 0.9840
3484.838424 0.9840 0.9840 0.9840 0.9847 0.9857
3489.218478 0.9860 0.9860 0.9863 0.9868 0.9870
3493.598533 0.9870 0.9870 0.9870 0.9877 0.9887
3497.978587 0.9890 0.9890 0.9890 0.9890 0.9893
3502.358641 0.9898 0.9900 0.9900 0.9900 0.9900
3506.738696 0.9900 0.9900 0.9904 0.9909 0.9910
3511.118750 0.9910 0.9910 0.9910 0.9910 0.9910
3515.498804 0.9910 0.9910 0.9910 0.9910 0.9906
3519.878859 0.9901 0.9900 0.9900 0.9900 0.9900
3524.258913 0.9900 0.9900 0.9900 0.9900 0.9900
3528.638967 0.9900 0.9900 0.9900 0.9900 0.9900
3533.019022 0.9900 0.9900 0.9896 0.9891 0.9890
3537.399076 0.9890 0.9890 0.9890 0.9890 0.9890
3541.779130 0.9890 0.9890 0.9890 0.9890 0.9890
3546.159185 0.9890 0.9890 0.9890 0.9890 0.9890
3550.539239 0.9890 0.9890 0.9890 0.9890 0.9890
3554.919293 0.9890 0.9890 0.9890 0.9894 0.9899
3559.299348 0.9900 0.9900 0.9900 0.9900 0.9900
3563.679402 0.9900 0.9904 0.9909 0.9910 0.9910
3568.059457 0.9918 0.9928 0.9930 0.9930 0.9934
3572.439511 0.9939 0.9944 0.9949 0.9950 0.9950
3576.819565 0.9958 0.9968 0.9970 0.9970 0.9970
3581.199620 0.9970 0.9962 0.9952 0.9946 0.9941
3585.579674 0.9940 0.9940 0.9940 0.9940 0.9944
3589.959728 0.9949 0.9958 0.9969 0.9970 0.9970
3594.339783 0.9961 0.9951 0.9950 0.9950 0.9946
3598.719837 0.9941 0.9936 0.9931 0.9921 0.9911
3603.099891 0.9906 0.9901 0.9896 0.9891 0.9890
3607.479946 0.9890 0.9881 0.9871 0.9870 0.9870
3611.860000 0.9866 0.9861 0.9860 0.9860 0.9851
3616.240054 0.9841 0.9840 0.9840 0.9840 0.9840
3620.620109 0.9849 0.9859 0.9860 0.9860 0.9860
3625.000163 0.9860 0.9865 0.9870 0.9870 0.9870
3629.380217 0.9879 0.9889 0.9890 0.9890 0.9890
3633.760272 0.9890 0.9895 0.9900 0.9900 0.9900
3638.140326 0.9900 0.9900 0.9905 0.9910 0.9910
3642.520380 0.9910 0.9919 0.9930 0.9930 0.9930
3646.900435 0.9935 0.9940 0.9940 0.9940 0.9940
3651.280489 0.9940 0.9945 0.9950 0.9950 0.9950
3655.660543 0.9960 0.9970 0.9970 0.9970 0.9975
3660.040598 0.9980 0.9980 0.9980 0.9980 0.9980
3664.420652 0.9975 0.9970 0.9970 0.9970 0.9960
3668.800707 0.9950 0.9945 0.9940 0.9935 0.9930
3673.180761 0.9920 0.9910 0.9910 0.9910 0.9910
3677.560815 0.9910 0.9920 0.9930 0.9935 0.9940
3681.940870 0.9945 0.9950 0.9960 0.9970 0.9970
3686.320924 0.9970 0.9975 0.9980 0.9980 0.9980
3690.700978 0.9980 0.9980 0.9980 0.9980 0.9990
3695.081033 1.0000 1.0000 1.0000 1.0000 1.0000
3699.461087 1.0005 1.0010 1.0010 1.0010 1.0010
3703.841141 1.0010 1.0010 1.0010 1.0010 1.0010
3708.221196 1.0010 1.0010 1.0010 1.0010 1.0010
3712.601250 1.0010 1.0010 1.0010 1.0010 1.0010
3716.981304 1.0010 1.0010 1.0010 1.0010 1.0010
3721.361359 1.0010 1.0010 1.0010 1.0010 1.0010
3725.741413 1.0010 1.0010 1.0005 1.0000 1.0000
3730.121467 1.0000 1.0000 1.0000 1.0000 1.0000
3734.501522 1.0000 1.0000 1.0000 1.0000 1.0000
3738.881576 0.9998 0.9983 0.9970 0.9970 0.9970
3743.261630 0.9970 0.9970 0.9970 0.9970 0.9970
3747.641685 0.9970 0.9970 0.9971 0.9976 0.9980
3752.021739 0.9980 0.9980 0.9980 0.9981 0.9991
3756.401793 1.0001 1.0006 1.0010 1.0010 1.0011
3760.781848 1.0016 1.0020 1.0020 1.0020 1.0020
3765.161902 1.0022 1.0032 1.0040 1.0040 1.0040
3769.541957 1.0040 1.0041 1.0046 1.0050 1.0050
3773.922011 1.0050 1.0050 1.0051 1.0056 1.0060
3778.302065 1.0060 1.0062 1.0072 1.0080 1.0080
3782.682120 1.0080 1.0080 1.0077 1.0062 1.0047
3787.062174 1.0032 1.0019 1.0014 1.0010 1.0010
3791.442228 1.0009 1.0004 1.0000 1.0000 1.0000
3795.822283 1.0000 0.9998 0.9988
##END=
