##TITLE=1,3-Propanediol
##JCAMP-DX=4.24
$$ By DXEDIT 1.05 (RS McDonald)
##DATA TYPE=INFRARED SPECTRUM
##CLASS=COBLENTZ III
##ORIGIN=DOW CHEMICAL COMPANY
##OWNER=COPYRIGHT (C) 1988 by COBLENTZ SOCIETY INC.
Collection (C) 2018 copyright by the U.S. Secretary of Commerce
on behalf of the United States of America. All rights reserved.
##DATE=1963/11/27
##CAS REGISTRY NO=504-63-2
##MOLFORM=C3 H8 O2
##BP=210-212 C
##SOURCE REFERENCE=COBLENTZ NO. 06323
##$NIST SOURCE=COBLENTZ
##$NIST IMAGE=cob6323
##SPECTROMETER/DATA SYSTEM=BECKMAN IR-9 (GRATING)
##INSTRUMENT PARAMETERS=ORDER CHANGES: 670, 1200, 2000 CM^-^1
##STATE=LIQUID (NEAT)
##PATH LENGTH=CAPILLARY
$$SPECTRAL CONTAMINATION DUE TO H2O AROUND 1660 CM^-^1
##SAMPLING PROCEDURE=TRANSMISSION
##RESOLUTION=2
##DATA PROCESSING=DIGITIZED BY COBLENTZ SOCIETY (BATCH I) FROM HARD COPY
##XUNITS=1/CM
##YUNITS=TRANSMITTANCE
##XFACTOR=1
##YFACTOR=1
##DELTAX=1
##FIRSTX=3812
##LASTX=400
##FIRSTY=0.8481
##MAXX=3812
##MINX=400
##MAXY=0.8778
##MINY=0.03
##NPOINTS=3413
##XYDATA=(X++(Y..Y))
3812.000000 0.8481 0.8480 0.8478 0.8478 0.8477
3807.000000 0.8475 0.8475 0.8473 0.8471 0.8471
3802.000000 0.8470 0.8468 0.8468 0.8466 0.8465
3797.000000 0.8464 0.8463 0.8462 0.8461 0.8460
3792.000000 0.8459 0.8457 0.8456 0.8455 0.8454
3787.000000 0.8453 0.8452 0.8450 0.8449 0.8448
3782.000000 0.8447 0.8445 0.8444 0.8442 0.8441
3777.000000 0.8440 0.8439 0.8438 0.8437 0.8436
3772.000000 0.8435 0.8434 0.8433 0.8432 0.8431
3767.000000 0.8430 0.8428 0.8428 0.8427 0.8425
3762.000000 0.8424 0.8421 0.8421 0.8418 0.8418
3757.000000 0.8416 0.8415 0.8413 0.8412 0.8410
3752.000000 0.8409 0.8407 0.8406 0.8404 0.8403
3747.000000 0.8401 0.8400 0.8398 0.8397 0.8396
3742.000000 0.8395 0.8393 0.8392 0.8390 0.8389
3737.000000 0.8387 0.8386 0.8383 0.8381 0.8378
3732.000000 0.8377 0.8374 0.8371 0.8370 0.8368
3727.000000 0.8365 0.8363 0.8361 0.8359 0.8355
3722.000000 0.8352 0.8347 0.8343 0.8339 0.8335
3717.000000 0.8330 0.8325 0.8316 0.8307 0.8297
3712.000000 0.8288 0.8278 0.8268 0.8256 0.8243
3707.000000 0.8228 0.8214 0.8200 0.8186 0.8171
3702.000000 0.8158 0.8143 0.8128 0.8114 0.8100
3697.000000 0.8085 0.8071 0.8056 0.8042 0.8026
3692.000000 0.8012 0.7998 0.7983 0.7968 0.7953
3687.000000 0.7937 0.7921 0.7905 0.7890 0.7874
3682.000000 0.7858 0.7842 0.7825 0.7810 0.7795
3677.000000 0.7776 0.7760 0.7740 0.7719 0.7699
3672.000000 0.7678 0.7651 0.7624 0.7597 0.7569
3667.000000 0.7543 0.7515 0.7489 0.7461 0.7435
3662.000000 0.7408 0.7389 0.7371 0.7351 0.7334
3657.000000 0.7315 0.7298 0.7280 0.7261 0.7244
3652.000000 0.7225 0.7208 0.7190 0.7171 0.7154
3647.000000 0.7132 0.7110 0.7078 0.7046 0.7012
3642.000000 0.6981 0.6949 0.6917 0.6883 0.6850
3637.000000 0.6815 0.6782 0.6748 0.6714 0.6680
3632.000000 0.6647 0.6612 0.6578 0.6545 0.6511
3627.000000 0.6476 0.6443 0.6411 0.6379 0.6353
3622.000000 0.6327 0.6301 0.6276 0.6250 0.6225
3617.000000 0.6199 0.6174 0.6148 0.6122 0.6096
3612.000000 0.6071 0.6045 0.6020 0.5971 0.5922
3607.000000 0.5864 0.5807 0.5749 0.5692 0.5634
3602.000000 0.5577 0.5531 0.5486 0.5444 0.5402
3597.000000 0.5360 0.5318 0.5276 0.5235 0.5193
3592.000000 0.5151 0.5108 0.5065 0.5021 0.4977
3587.000000 0.4933 0.4889 0.4845 0.4802 0.4758
3582.000000 0.4714 0.4671 0.4628 0.4585 0.4542
3577.000000 0.4499 0.4456 0.4412 0.4369 0.4326
3572.000000 0.4283 0.4225 0.4168 0.4106 0.4045
3567.000000 0.3984 0.3923 0.3871 0.3820 0.3772
3562.000000 0.3724 0.3684 0.3646 0.3608 0.3570
3557.000000 0.3530 0.3493 0.3455 0.3418 0.3382
3552.000000 0.3347 0.3312 0.3277 0.3242 0.3207
3547.000000 0.3171 0.3135 0.3101 0.3066 0.3030
3542.000000 0.2994 0.2946 0.2899 0.2851 0.2804
3537.000000 0.2756 0.2709 0.2660 0.2612 0.2563
3532.000000 0.2515 0.2466 0.2417 0.2366 0.2316
3527.000000 0.2265 0.2215 0.2182 0.2149 0.2124
3522.000000 0.2100 0.2075 0.2051 0.2026 0.2002
3517.000000 0.1978 0.1954 0.1929 0.1906 0.1879
3512.000000 0.1852 0.1824 0.1795 0.1768 0.1741
3507.000000 0.1713 0.1684 0.1645 0.1607 0.1568
3502.000000 0.1529 0.1498 0.1467 0.1444 0.1422
3497.000000 0.1399 0.1376 0.1353 0.1330 0.1308
3492.000000 0.1286 0.1263 0.1241 0.1218 0.1196
3487.000000 0.1174 0.1152 0.1130 0.1109 0.1090
3482.000000 0.1072 0.1053 0.1035 0.1016 0.0997
3477.000000 0.0979 0.0961 0.0942 0.0924 0.0906
3472.000000 0.0888 0.0869 0.0851 0.0832 0.0814
3467.000000 0.0798 0.0782 0.0770 0.0758 0.0746
3462.000000 0.0735 0.0723 0.0711 0.0699 0.0687
3457.000000 0.0675 0.0663 0.0651 0.0640 0.0633
3452.000000 0.0626 0.0619 0.0612 0.0604 0.0597
3447.000000 0.0590 0.0583 0.0575 0.0568 0.0561
3442.000000 0.0554 0.0546 0.0539 0.0532 0.0525
3437.000000 0.0517 0.0510 0.0504 0.0498 0.0492
3432.000000 0.0486 0.0480 0.0473 0.0467 0.0462
3427.000000 0.0456 0.0451 0.0446 0.0442 0.0437
3422.000000 0.0433 0.0427 0.0423 0.0419 0.0414
3417.000000 0.0409 0.0405 0.0401 0.0397 0.0392
3412.000000 0.0388 0.0384 0.0380 0.0376 0.0372
3407.000000 0.0366 0.0363 0.0359 0.0355 0.0351
3402.000000 0.0347 0.0344 0.0341 0.0338 0.0336
3397.000000 0.0333 0.0330 0.0327 0.0325 0.0322
3392.000000 0.0320 0.0316 0.0315 0.0312 0.0310
3387.000000 0.0308 0.0306 0.0305 0.0305 0.0304
3382.000000 0.0304 0.0303 0.0303 0.0303 0.0303
3377.000000 0.0302 0.0301 0.0301 0.0301 0.0300
3372.000000 0.0300 0.0301 0.0303 0.0304 0.0306
3367.000000 0.0307 0.0309 0.0310 0.0312 0.0314
3362.000000 0.0316 0.0316 0.0318 0.0320 0.0322
3357.000000 0.0323 0.0325 0.0326 0.0328 0.0329
3352.000000 0.0331 0.0333 0.0335 0.0337 0.0340
3347.000000 0.0342 0.0345 0.0348 0.0351 0.0353
3342.000000 0.0356 0.0359 0.0362 0.0364 0.0366
3337.000000 0.0368 0.0372 0.0375 0.0378 0.0380
3332.000000 0.0383 0.0385 0.0388 0.0391 0.0395
3327.000000 0.0398 0.0401 0.0404 0.0408 0.0411
3322.000000 0.0414 0.0417 0.0419 0.0423 0.0427
3317.000000 0.0430 0.0433 0.0436 0.0439 0.0442
3312.000000 0.0446 0.0449 0.0452 0.0455 0.0458
3307.000000 0.0461 0.0465 0.0467 0.0471 0.0473
3302.000000 0.0477 0.0481 0.0484 0.0488 0.0493
3297.000000 0.0499 0.0505 0.0511 0.0517 0.0523
3292.000000 0.0529 0.0535 0.0541 0.0547 0.0553
3287.000000 0.0559 0.0566 0.0572 0.0578 0.0584
3282.000000 0.0590 0.0596 0.0602 0.0608 0.0614
3277.000000 0.0620 0.0626 0.0632 0.0639 0.0646
3272.000000 0.0653 0.0660 0.0667 0.0673 0.0680
3267.000000 0.0687 0.0694 0.0701 0.0708 0.0714
3262.000000 0.0721 0.0728 0.0735 0.0741 0.0748
3257.000000 0.0755 0.0762 0.0769 0.0776 0.0785
3252.000000 0.0794 0.0804 0.0814 0.0824 0.0834
3247.000000 0.0843 0.0854 0.0864 0.0874 0.0884
3242.000000 0.0893 0.0903 0.0913 0.0922 0.0933
3237.000000 0.0942 0.0953 0.0967 0.0981 0.0996
3232.000000 0.1013 0.1029 0.1046 0.1062 0.1078
3227.000000 0.1094 0.1110 0.1128 0.1146 0.1170
3222.000000 0.1194 0.1218 0.1242 0.1266 0.1290
3217.000000 0.1314 0.1338 0.1359 0.1380 0.1400
3212.000000 0.1420 0.1440 0.1460 0.1480 0.1500
3207.000000 0.1520 0.1540 0.1560 0.1580 0.1600
3202.000000 0.1620 0.1640 0.1660 0.1679 0.1701
3197.000000 0.1721 0.1741 0.1761 0.1782 0.1802
3192.000000 0.1822 0.1842 0.1862 0.1882 0.1903
3187.000000 0.1921 0.1940 0.1958 0.1977 0.1994
3182.000000 0.2014 0.2032 0.2051 0.2070 0.2089
3177.000000 0.2107 0.2126 0.2144 0.2163 0.2185
3172.000000 0.2209 0.2234 0.2260 0.2284 0.2311
3167.000000 0.2335 0.2362 0.2387 0.2413 0.2438
3162.000000 0.2464 0.2489 0.2514 0.2539 0.2565
3157.000000 0.2590 0.2615 0.2640 0.2666 0.2696
3152.000000 0.2726 0.2759 0.2793 0.2826 0.2860
3147.000000 0.2889 0.2918 0.2945 0.2972 0.2999
3142.000000 0.3026 0.3053 0.3080 0.3107 0.3134
3137.000000 0.3161 0.3189 0.3220 0.3252 0.3282
3132.000000 0.3314 0.3345 0.3377 0.3408 0.3440
3127.000000 0.3471 0.3502 0.3530 0.3559 0.3589
3122.000000 0.3618 0.3647 0.3676 0.3704 0.3732
3117.000000 0.3762 0.3794 0.3826 0.3859 0.3891
3112.000000 0.3924 0.3956 0.3989 0.4023 0.4057
3107.000000 0.4099 0.4142 0.4184 0.4227 0.4267
3102.000000 0.4307 0.4334 0.4360 0.4388 0.4416
3097.000000 0.4443 0.4471 0.4512 0.4555 0.4582
3092.000000 0.4610 0.4634 0.4659 0.4684 0.4709
3087.000000 0.4734 0.4759 0.4778 0.4798 0.4812
3082.000000 0.4827 0.4851 0.4876 0.4901 0.4926
3077.000000 0.4948 0.4971 0.4993 0.5016 0.5038
3072.000000 0.5060 0.5082 0.5104 0.5123 0.5143
3067.000000 0.5162 0.5183 0.5203 0.5223 0.5242
3062.000000 0.5260 0.5276 0.5291 0.5306 0.5321
3057.000000 0.5335 0.5350 0.5365 0.5380 0.5405
3052.000000 0.5430 0.5457 0.5485 0.5509 0.5533
3047.000000 0.5548 0.5562 0.5578 0.5594 0.5609
3042.000000 0.5624 0.5639 0.5655 0.5670 0.5685
3037.000000 0.5697 0.5710 0.5722 0.5735 0.5746
3032.000000 0.5758 0.5767 0.5777 0.5785 0.5794
3027.000000 0.5802 0.5810 0.5822 0.5835 0.5836
3022.000000 0.5838 0.5840 0.5842 0.5843 0.5840
3017.000000 0.5846 0.5848 0.5849 0.5850 0.5845
3012.000000 0.5840 0.5830 0.5820 0.5810 0.5801
3007.000000 0.5788 0.5776 0.5753 0.5730 0.5707
3002.000000 0.5684 0.5644 0.5604 0.5547 0.5490
2997.000000 0.5444 0.5398 0.5343 0.5288 0.5177
2992.000000 0.5066 0.4986 0.4907 0.4819 0.4732
2987.000000 0.4645 0.4559 0.4479 0.4399 0.4319
2982.000000 0.4239 0.4160 0.4080 0.4002 0.3923
2977.000000 0.3800 0.3677 0.3337 0.2997 0.2865
2972.000000 0.2733 0.2620 0.2508 0.2448 0.2389
2967.000000 0.2351 0.2313 0.2270 0.2227 0.2155
2962.000000 0.2083 0.2028 0.1974 0.1961 0.1948
2957.000000 0.1943 0.1934 0.1937 0.1936 0.1941
2952.000000 0.1945 0.1971 0.1996 0.2023 0.2049
2947.000000 0.2075 0.2101 0.2127 0.2153 0.2195
2942.000000 0.2237 0.2317 0.2397 0.2484 0.2571
2937.000000 0.2643 0.2716 0.2764 0.2812 0.2847
2932.000000 0.2882 0.2900 0.2918 0.2930 0.2942
2927.000000 0.2949 0.2956 0.2961 0.2967 0.2972
2922.000000 0.2978 0.2981 0.2984 0.2984 0.2984
2917.000000 0.2984 0.2983 0.2980 0.2978 0.2961
2912.000000 0.2945 0.2899 0.2854 0.2806 0.2758
2907.000000 0.2711 0.2664 0.2614 0.2565 0.2509
2902.000000 0.2453 0.2410 0.2367 0.2349 0.2332
2897.000000 0.2331 0.2331 0.2331 0.2331 0.2342
2892.000000 0.2354 0.2371 0.2389 0.2425 0.2461
2887.000000 0.2515 0.2569 0.2657 0.2746 0.2795
2882.000000 0.2844 0.2893 0.2943 0.2991 0.3040
2877.000000 0.3085 0.3132 0.3178 0.3225 0.3271
2872.000000 0.3316 0.3366 0.3416 0.3464 0.3514
2867.000000 0.3564 0.3614 0.3673 0.3732 0.3792
2862.000000 0.3852 0.3906 0.3960 0.4012 0.4064
2857.000000 0.4116 0.4168 0.4217 0.4266 0.4312
2852.000000 0.4359 0.4406 0.4453 0.4499 0.4546
2847.000000 0.4583 0.4621 0.4658 0.4695 0.4732
2842.000000 0.4770 0.4807 0.4844 0.4902 0.4960
2837.000000 0.5020 0.5081 0.5128 0.5176 0.5217
2832.000000 0.5259 0.5296 0.5333 0.5362 0.5392
2827.000000 0.5421 0.5451 0.5480 0.5510 0.5539
2822.000000 0.5569 0.5601 0.5633 0.5688 0.5744
2817.000000 0.5772 0.5800 0.5827 0.5855 0.5875
2812.000000 0.5896 0.5914 0.5933 0.5951 0.5970
2807.000000 0.5988 0.6006 0.6024 0.6043 0.6060
2802.000000 0.6080 0.6098 0.6117 0.6135 0.6154
2797.000000 0.6172 0.6191 0.6209 0.6227 0.6241
2792.000000 0.6256 0.6271 0.6286 0.6300 0.6315
2787.000000 0.6330 0.6345 0.6359 0.6374 0.6389
2782.000000 0.6404 0.6417 0.6431 0.6442 0.6453
2777.000000 0.6464 0.6475 0.6487 0.6499 0.6510
2772.000000 0.6521 0.6533 0.6544 0.6555 0.6567
2767.000000 0.6575 0.6584 0.6591 0.6599 0.6606
2762.000000 0.6614 0.6621 0.6628 0.6635 0.6643
2757.000000 0.6649 0.6656 0.6661 0.6667 0.6671
2752.000000 0.6678 0.6684 0.6690 0.6703 0.6717
2747.000000 0.6730 0.6744 0.6757 0.6771 0.6784
2742.000000 0.6798 0.6811 0.6825 0.6839 0.6853
2737.000000 0.6865 0.6880 0.6893 0.6907 0.6919
2732.000000 0.6934 0.6946 0.6958 0.6968 0.6978
2727.000000 0.6988 0.6998 0.7007 0.7017 0.7026
2722.000000 0.7037 0.7046 0.7056 0.7065 0.7075
2717.000000 0.7085 0.7095 0.7105 0.7115 0.7124
2712.000000 0.7134 0.7143 0.7153 0.7161 0.7171
2707.000000 0.7181 0.7191 0.7200 0.7210 0.7218
2702.000000 0.7228 0.7238 0.7248 0.7257 0.7267
2697.000000 0.7275 0.7286 0.7297 0.7308 0.7321
2692.000000 0.7336 0.7349 0.7362 0.7376 0.7391
2687.000000 0.7398 0.7405 0.7408 0.7411 0.7415
2682.000000 0.7419 0.7424 0.7428 0.7431 0.7435
2677.000000 0.7439 0.7443 0.7447 0.7451 0.7454
2672.000000 0.7458 0.7461 0.7465 0.7468 0.7472
2667.000000 0.7476 0.7481 0.7485 0.7489 0.7492
2662.000000 0.7496 0.7500 0.7504 0.7507 0.7511
2657.000000 0.7515 0.7518 0.7521 0.7525 0.7530
2652.000000 0.7534 0.7539 0.7544 0.7549 0.7554
2647.000000 0.7558 0.7565 0.7569 0.7575 0.7580
2642.000000 0.7585 0.7590 0.7596 0.7601 0.7606
2637.000000 0.7611 0.7617 0.7622 0.7628 0.7634
2632.000000 0.7640 0.7645 0.7651 0.7657 0.7662
2627.000000 0.7668 0.7674 0.7678 0.7685 0.7691
2622.000000 0.7697 0.7701 0.7708 0.7712 0.7718
2617.000000 0.7725 0.7731 0.7736 0.7742 0.7748
2612.000000 0.7754 0.7761 0.7768 0.7775 0.7783
2607.000000 0.7790 0.7798 0.7805 0.7812 0.7818
2602.000000 0.7825 0.7831 0.7836 0.7841 0.7846
2597.000000 0.7850 0.7855 0.7860 0.7865 0.7869
2592.000000 0.7875 0.7880 0.7885 0.7889 0.7894
2587.000000 0.7899 0.7904 0.7908 0.7914 0.7918
2582.000000 0.7922 0.7926 0.7932 0.7936 0.7941
2577.000000 0.7945 0.7950 0.7955 0.7960 0.7965
2572.000000 0.7969 0.7975 0.7980 0.7985 0.7990
2567.000000 0.7991 0.7992 0.7993 0.7995 0.7996
2562.000000 0.7997 0.7998 0.8000 0.8001 0.8001
2557.000000 0.8003 0.8005 0.8005 0.8006 0.8006
2552.000000 0.8006 0.8005 0.8005 0.8005 0.8005
2547.000000 0.8004 0.8004 0.8003 0.8001 0.8001
2542.000000 0.8000 0.7999 0.7999 0.7998 0.7997
2537.000000 0.7997 0.7997 0.7997 0.7997 0.7997
2532.000000 0.7997 0.7997 0.7997 0.7997 0.7998
2527.000000 0.7998 0.7998 0.8000 0.8003 0.8008
2522.000000 0.8012 0.8017 0.8021 0.8026 0.8032
2517.000000 0.8036 0.8041 0.8046 0.8051 0.8057
2512.000000 0.8064 0.8069 0.8076 0.8083 0.8089
2507.000000 0.8095 0.8101 0.8108 0.8115 0.8121
2502.000000 0.8128 0.8134 0.8141 0.8147 0.8153
2497.000000 0.8158 0.8164 0.8168 0.8175 0.8180
2492.000000 0.8186 0.8192 0.8198 0.8203 0.8209
2487.000000 0.8214 0.8220 0.8225 0.8231 0.8236
2482.000000 0.8241 0.8245 0.8250 0.8254 0.8259
2477.000000 0.8263 0.8267 0.8271 0.8275 0.8280
2472.000000 0.8285 0.8289 0.8294 0.8299 0.8305
2467.000000 0.8310 0.8315 0.8320 0.8325 0.8330
2462.000000 0.8336 0.8341 0.8346 0.8351 0.8356
2457.000000 0.8361 0.8367 0.8371 0.8377 0.8382
2452.000000 0.8387 0.8387 0.8387 0.8385 0.8383
2447.000000 0.8381 0.8378 0.8377 0.8375 0.8374
2442.000000 0.8373 0.8371 0.8371 0.8370 0.8368
2437.000000 0.8368 0.8368 0.8367 0.8366 0.8365
2432.000000 0.8364 0.8363 0.8363 0.8363 0.8364
2427.000000 0.8366 0.8368 0.8370 0.8371 0.8374
2422.000000 0.8375 0.8378 0.8380 0.8382 0.8384
2417.000000 0.8386 0.8388 0.8390 0.8393 0.8395
2412.000000 0.8398 0.8400 0.8403 0.8405 0.8408
2407.000000 0.8410 0.8413 0.8415 0.8418 0.8420
2402.000000 0.8421 0.8424 0.8427 0.8428 0.8432
2397.000000 0.8434 0.8437 0.8439 0.8442 0.8444
2392.000000 0.8447 0.8449 0.8451 0.8452 0.8454
2387.000000 0.8455 0.8457 0.8458 0.8459 0.8460
2382.000000 0.8462 0.8463 0.8465 0.8466 0.8468
2377.000000 0.8468 0.8471 0.8471 0.8473 0.8474
2372.000000 0.8475 0.8477 0.8478 0.8480 0.8482
2367.000000 0.8483 0.8485 0.8486 0.8487 0.8488
2362.000000 0.8490 0.8491 0.8493 0.8493 0.8494
2357.000000 0.8495 0.8496 0.8496 0.8497 0.8498
2352.000000 0.8499 0.8499 0.8500 0.8501 0.8502
2347.000000 0.8502 0.8503 0.8504 0.8505 0.8505
2342.000000 0.8506 0.8507 0.8508 0.8508 0.8509
2337.000000 0.8509 0.8510 0.8511 0.8512 0.8512
2332.000000 0.8513 0.8514 0.8515 0.8515 0.8516
2327.000000 0.8516 0.8516 0.8516 0.8516 0.8516
2322.000000 0.8516 0.8516 0.8516 0.8516 0.8516
2317.000000 0.8516 0.8516 0.8516 0.8516 0.8516
2312.000000 0.8516 0.8516 0.8516 0.8516 0.8516
2307.000000 0.8516 0.8516 0.8516 0.8516 0.8516
2302.000000 0.8516 0.8516 0.8516 0.8516 0.8516
2297.000000 0.8516 0.8516 0.8516 0.8516 0.8516
2292.000000 0.8516 0.8516 0.8516 0.8516 0.8517
2287.000000 0.8517 0.8517 0.8517 0.8518 0.8518
2282.000000 0.8518 0.8518 0.8518 0.8518 0.8518
2277.000000 0.8518 0.8518 0.8518 0.8520 0.8520
2272.000000 0.8520 0.8520 0.8520 0.8520 0.8521
2267.000000 0.8521 0.8521 0.8521 0.8521 0.8521
2262.000000 0.8521 0.8521 0.8521 0.8521 0.8523
2257.000000 0.8523 0.8523 0.8523 0.8523 0.8523
2252.000000 0.8524 0.8524 0.8524 0.8524 0.8524
2247.000000 0.8524 0.8525 0.8525 0.8525 0.8525
2242.000000 0.8525 0.8525 0.8525 0.8525 0.8525
2237.000000 0.8525 0.8525 0.8525 0.8527 0.8527
2232.000000 0.8527 0.8527 0.8527 0.8527 0.8527
2227.000000 0.8525 0.8525 0.8523 0.8521 0.8520
2222.000000 0.8518 0.8518 0.8517 0.8516 0.8515
2217.000000 0.8514 0.8514 0.8514 0.8514 0.8513
2212.000000 0.8513 0.8512 0.8512 0.8512 0.8512
2207.000000 0.8511 0.8511 0.8510 0.8510 0.8510
2202.000000 0.8510 0.8510 0.8510 0.8510 0.8511
2197.000000 0.8511 0.8512 0.8512 0.8512 0.8512
2192.000000 0.8513 0.8513 0.8513 0.8513 0.8514
2187.000000 0.8514 0.8514 0.8514 0.8514 0.8514
2182.000000 0.8514 0.8514 0.8514 0.8514 0.8514
2177.000000 0.8514 0.8514 0.8514 0.8514 0.8514
2172.000000 0.8514 0.8514 0.8514 0.8514 0.8514
2167.000000 0.8514 0.8514 0.8514 0.8514 0.8514
2162.000000 0.8514 0.8514 0.8514 0.8514 0.8514
2157.000000 0.8514 0.8514 0.8514 0.8514 0.8513
2152.000000 0.8513 0.8512 0.8512 0.8512 0.8512
2147.000000 0.8511 0.8511 0.8510 0.8510 0.8509
2142.000000 0.8509 0.8508 0.8508 0.8508 0.8508
2137.000000 0.8509 0.8510 0.8510 0.8511 0.8511
2132.000000 0.8512 0.8513 0.8514 0.8514 0.8515
2127.000000 0.8516 0.8517 0.8517 0.8518 0.8518
2122.000000 0.8520 0.8520 0.8521 0.8521 0.8523
2117.000000 0.8525 0.8527 0.8530 0.8533 0.8536
2112.000000 0.8539 0.8542 0.8545 0.8547 0.8550
2107.000000 0.8553 0.8556 0.8558 0.8561 0.8563
2102.000000 0.8566 0.8568 0.8570 0.8571 0.8571
2097.000000 0.8571 0.8573 0.8574 0.8575 0.8575
2092.000000 0.8575 0.8575 0.8577 0.8577 0.8578
2087.000000 0.8578 0.8580 0.8580 0.8581 0.8581
2082.000000 0.8582 0.8583 0.8585 0.8587 0.8589
2077.000000 0.8590 0.8592 0.8593 0.8595 0.8596
2072.000000 0.8597 0.8596 0.8594 0.8591 0.8588
2067.000000 0.8585 0.8582 0.8578 0.8575 0.8573
2062.000000 0.8570 0.8567 0.8564 0.8564 0.8565
2057.000000 0.8568 0.8571 0.8575 0.8578 0.8581
2052.000000 0.8585 0.8588 0.8592 0.8595 0.8599
2047.000000 0.8602 0.8606 0.8610 0.8614 0.8618
2042.000000 0.8621 0.8625 0.8630 0.8634 0.8639
2037.000000 0.8643 0.8647 0.8650 0.8653 0.8655
2032.000000 0.8658 0.8660 0.8662 0.8664 0.8666
2027.000000 0.8668 0.8671 0.8673 0.8675 0.8677
2022.000000 0.8678 0.8680 0.8681 0.8681 0.8681
2017.000000 0.8681 0.8681 0.8681 0.8681 0.8681
2012.000000 0.8682 0.8682 0.8683 0.8683 0.8684
2007.000000 0.8684 0.8685 0.8685 0.8686 0.8686
2002.000000 0.8687 0.8687 0.8688 0.8689 0.8690
1997.000000 0.8691 0.8692 0.8693 0.8694 0.8694
1992.000000 0.8694 0.8694 0.8694 0.8693 0.8693
1987.000000 0.8693 0.8693 0.8694 0.8694 0.8694
1982.000000 0.8694 0.8695 0.8695 0.8695 0.8695
1977.000000 0.8695 0.8696 0.8696 0.8696 0.8697
1972.000000 0.8698 0.8700 0.8701 0.8702 0.8703
1967.000000 0.8705 0.8706 0.8712 0.8709 0.8710
1962.000000 0.8711 0.8712 0.8714 0.8715 0.8716
1957.000000 0.8716 0.8716 0.8716 0.8715 0.8715
1952.000000 0.8714 0.8714 0.8713 0.8713 0.8712
1947.000000 0.8712 0.8712 0.8711 0.8711 0.8710
1942.000000 0.8710 0.8709 0.8709 0.8708 0.8708
1937.000000 0.8708 0.8707 0.8707 0.8707 0.8706
1932.000000 0.8706 0.8706 0.8706 0.8705 0.8705
1927.000000 0.8705 0.8704 0.8704 0.8704 0.8704
1922.000000 0.8703 0.8703 0.8703 0.8704 0.8709
1917.000000 0.8715 0.8721 0.8725 0.8732 0.8737
1912.000000 0.8743 0.8749 0.8754 0.8760 0.8764
1907.000000 0.8765 0.8766 0.8767 0.8768 0.8768
1902.000000 0.8770 0.8771 0.8771 0.8773 0.8774
1897.000000 0.8775 0.8775 0.8777 0.8778 0.8778
1892.000000 0.8778 0.8778 0.8778 0.8777 0.8775
1887.000000 0.8773 0.8771 0.8768 0.8766 0.8764
1882.000000 0.8762 0.8760 0.8758 0.8756 0.8754
1877.000000 0.8752 0.8750 0.8748 0.8746 0.8744
1872.000000 0.8742 0.8739 0.8737 0.8735 0.8733
1867.000000 0.8731 0.8730 0.8728 0.8727 0.8725
1862.000000 0.8724 0.8723 0.8721 0.8720 0.8718
1857.000000 0.8717 0.8716 0.8714 0.8713 0.8712
1852.000000 0.8710 0.8709 0.8708 0.8707 0.8707
1847.000000 0.8706 0.8706 0.8705 0.8704 0.8704
1842.000000 0.8703 0.8703 0.8702 0.8702 0.8701
1837.000000 0.8701 0.8701 0.8700 0.8700 0.8700
1832.000000 0.8700 0.8699 0.8699 0.8699 0.8698
1827.000000 0.8698 0.8698 0.8698 0.8697 0.8697
1822.000000 0.8697 0.8696 0.8696 0.8696 0.8696
1817.000000 0.8695 0.8695 0.8694 0.8693 0.8692
1812.000000 0.8691 0.8691 0.8690 0.8689 0.8688
1807.000000 0.8687 0.8686 0.8685 0.8681 0.8678
1802.000000 0.8674 0.8671 0.8668 0.8664 0.8661
1797.000000 0.8657 0.8654 0.8650 0.8649 0.8649
1792.000000 0.8649 0.8649 0.8648 0.8648 0.8648
1787.000000 0.8645 0.8640 0.8636 0.8631 0.8625
1782.000000 0.8621 0.8617 0.8612 0.8607 0.8603
1777.000000 0.8598 0.8595 0.8592 0.8589 0.8586
1772.000000 0.8583 0.8580 0.8577 0.8574 0.8571
1767.000000 0.8568 0.8565 0.8562 0.8558 0.8554
1762.000000 0.8550 0.8546 0.8542 0.8538 0.8535
1757.000000 0.8531 0.8527 0.8524 0.8520 0.8516
1752.000000 0.8513 0.8509 0.8505 0.8501 0.8497
1747.000000 0.8493 0.8489 0.8486 0.8482 0.8478
1742.000000 0.8474 0.8470 0.8466 0.8462 0.8458
1737.000000 0.8453 0.8448 0.8442 0.8437 0.8432
1732.000000 0.8425 0.8413 0.8400 0.8387 0.8375
1727.000000 0.8362 0.8350 0.8336 0.8323 0.8310
1722.000000 0.8297 0.8283 0.8270 0.8257 0.8243
1717.000000 0.8230 0.8215 0.8200 0.8185 0.8169
1712.000000 0.8155 0.8140 0.8125 0.8107 0.8086
1707.000000 0.8065 0.8044 0.8022 0.8001 0.7981
1702.000000 0.7960 0.7938 0.7917 0.7895 0.7874
1697.000000 0.7851 0.7831 0.7808 0.7787 0.7765
1692.000000 0.7745 0.7722 0.7701 0.7681 0.7660
1687.000000 0.7639 0.7615 0.7591 0.7565 0.7542
1682.000000 0.7517 0.7492 0.7468 0.7443 0.7421
1677.000000 0.7401 0.7380 0.7358 0.7338 0.7317
1672.000000 0.7297 0.7278 0.7261 0.7244 0.7225
1667.000000 0.7208 0.7194 0.7185 0.7175 0.7168
1662.000000 0.7165 0.7161 0.7160 0.7157 0.7154
1657.000000 0.7151 0.7149 0.7158 0.7165 0.7175
1652.000000 0.7183 0.7191 0.7200 0.7208 0.7217
1647.000000 0.7225 0.7234 0.7244 0.7258 0.7272
1642.000000 0.7288 0.7303 0.7317 0.7331 0.7344
1637.000000 0.7357 0.7371 0.7384 0.7397 0.7411
1632.000000 0.7428 0.7446 0.7464 0.7481 0.7499
1627.000000 0.7517 0.7534 0.7551 0.7568 0.7585
1622.000000 0.7601 0.7618 0.7636 0.7653 0.7669
1617.000000 0.7687 0.7704 0.7714 0.7724 0.7734
1612.000000 0.7745 0.7755 0.7765 0.7775 0.7785
1607.000000 0.7795 0.7804 0.7811 0.7819 0.7826
1602.000000 0.7835 0.7843 0.7850 0.7856 0.7858
1597.000000 0.7862 0.7865 0.7868 0.7872 0.7875
1592.000000 0.7878 0.7878 0.7878 0.7880 0.7881
1587.000000 0.7881 0.7882 0.7883 0.7884 0.7886
1582.000000 0.7888 0.7890 0.7893 0.7895 0.7897
1577.000000 0.7897 0.7897 0.7895 0.7893 0.7891
1572.000000 0.7889 0.7888 0.7886 0.7884 0.7883
1567.000000 0.7881 0.7880 0.7878 0.7878 0.7875
1562.000000 0.7874 0.7871 0.7868 0.7867 0.7864
1557.000000 0.7861 0.7858 0.7857 0.7855 0.7851
1552.000000 0.7850 0.7848 0.7845 0.7843 0.7841
1547.000000 0.7838 0.7835 0.7828 0.7821 0.7815
1542.000000 0.7808 0.7801 0.7794 0.7788 0.7780
1537.000000 0.7771 0.7761 0.7751 0.7743 0.7734
1532.000000 0.7725 0.7715 0.7707 0.7697 0.7683
1527.000000 0.7667 0.7650 0.7634 0.7618 0.7601
1522.000000 0.7585 0.7568 0.7554 0.7539 0.7524
1517.000000 0.7508 0.7494 0.7478 0.7464 0.7449
1512.000000 0.7433 0.7415 0.7399 0.7382 0.7365
1507.000000 0.7348 0.7308 0.7268 0.7231 0.7201
1502.000000 0.7172 0.7144 0.7114 0.7085 0.7044
1497.000000 0.7001 0.6957 0.6912 0.6865 0.6818
1492.000000 0.6746 0.6646 0.6575 0.6508 0.6441
1487.000000 0.6372 0.6303 0.6098 0.5740 0.5612
1482.000000 0.5475 0.5338 0.5231 0.5167 0.5122
1477.000000 0.5104 0.5097 0.5082 0.5083 0.5101
1472.000000 0.5134 0.5162 0.5202 0.5228 0.5252
1467.000000 0.5269 0.5285 0.5301 0.5314 0.5321
1462.000000 0.5344 0.5330 0.5330 0.5323 0.5312
1457.000000 0.5277 0.5238 0.5187 0.5139 0.5102
1452.000000 0.5064 0.5017 0.4970 0.4923 0.4873
1447.000000 0.4822 0.4772 0.4721 0.4668 0.4614
1442.000000 0.4567 0.4532 0.4500 0.4467 0.4438
1437.000000 0.4438 0.4438 0.4442 0.4442 0.4442
1432.000000 0.4442 0.4424 0.4395 0.4348 0.4306
1427.000000 0.4258 0.4232 0.4221 0.4216 0.4207
1422.000000 0.4207 0.4212 0.4232 0.4253 0.4280
1417.000000 0.4309 0.4339 0.4372 0.4406 0.4439
1412.000000 0.4473 0.4507 0.4540 0.4574 0.4606
1407.000000 0.4636 0.4666 0.4699 0.4736 0.4773
1402.000000 0.4810 0.4852 0.4883 0.4910 0.4929
1397.000000 0.4945 0.4960 0.4972 0.4975 0.4975
1392.000000 0.4969 0.4962 0.4957 0.4953 0.4951
1387.000000 0.4949 0.4948 0.4946 0.4944 0.4942
1382.000000 0.4940 0.4939 0.4937 0.4934 0.4931
1377.000000 0.4928 0.4927 0.4938 0.4950 0.4968
1372.000000 0.4987 0.5006 0.5024 0.5038 0.5045
1367.000000 0.5049 0.5053 0.5058 0.5062 0.5062
1362.000000 0.5053 0.5048 0.5043 0.5038 0.5034
1357.000000 0.5029 0.5026 0.5027 0.5041 0.5055
1352.000000 0.5069 0.5083 0.5097 0.5110 0.5129
1347.000000 0.5148 0.5167 0.5182 0.5197 0.5212
1342.000000 0.5227 0.5243 0.5264 0.5284 0.5305
1337.000000 0.5325 0.5346 0.5365 0.5383 0.5400
1332.000000 0.5417 0.5434 0.5452 0.5469 0.5488
1327.000000 0.5516 0.5543 0.5570 0.5594 0.5618
1322.000000 0.5639 0.5650 0.5662 0.5673 0.5689
1317.000000 0.5709 0.5728 0.5748 0.5767 0.5794
1312.000000 0.5820 0.5847 0.5872 0.5896 0.5921
1307.000000 0.5946 0.5981 0.6012 0.6042 0.6066
1302.000000 0.6082 0.6087 0.6088 0.6090 0.6096
1297.000000 0.6103 0.6107 0.6110 0.6116 0.6120
1292.000000 0.6127 0.6141 0.6156 0.6170 0.6190
1287.000000 0.6254 0.6305 0.6355 0.6399 0.6443
1282.000000 0.6481 0.6517 0.6553 0.6589 0.6625
1277.000000 0.6661 0.6697 0.6733 0.6768 0.6801
1272.000000 0.6833 0.6862 0.6888 0.6899 0.6911
1267.000000 0.6921 0.6935 0.6948 0.6950 0.6951
1262.000000 0.6953 0.6953 0.6953 0.6950 0.6948
1257.000000 0.6945 0.6941 0.6925 0.6911 0.6897
1252.000000 0.6882 0.6867 0.6851 0.6837 0.6821
1247.000000 0.6800 0.6776 0.6753 0.6724 0.6690
1242.000000 0.6656 0.6626 0.6612 0.6601 0.6595
1237.000000 0.6589 0.6583 0.6576 0.6548 0.6571
1232.000000 0.6576 0.6590 0.6601 0.6615 0.6628
1227.000000 0.6642 0.6656 0.6669 0.6684 0.6695
1222.000000 0.6705 0.6715 0.6724 0.6734 0.6736
1217.000000 0.6738 0.6739 0.6741 0.6758 0.6737
1212.000000 0.6736 0.6734 0.6731 0.6724 0.6717
1207.000000 0.6710 0.6691 0.6661 0.6622 0.6585
1202.000000 0.6548 0.6521 0.6495 0.6468 0.6441
1197.000000 0.6415 0.6386 0.6354 0.6322 0.6300
1192.000000 0.6282 0.6265 0.6248 0.6231 0.6234
1187.000000 0.6212 0.6212 0.6224 0.6236 0.6249
1182.000000 0.6280 0.6322 0.6373 0.6414 0.6446
1177.000000 0.6478 0.6511 0.6540 0.6569 0.6600
1172.000000 0.6630 0.6675 0.6719 0.6765 0.6811
1167.000000 0.6862 0.6921 0.6953 0.6984 0.7015
1162.000000 0.7047 0.7078 0.7103 0.7125 0.7149
1157.000000 0.7171 0.7191 0.7211 0.7230 0.7250
1152.000000 0.7271 0.7286 0.7298 0.7308 0.7318
1147.000000 0.7319 0.7314 0.7324 0.7321 0.7318
1142.000000 0.7312 0.7308 0.7305 0.7299 0.7293
1137.000000 0.7288 0.7282 0.7274 0.7264 0.7251
1132.000000 0.7238 0.7224 0.7207 0.7187 0.7168
1127.000000 0.7149 0.7117 0.7085 0.7053 0.7019
1122.000000 0.6984 0.6947 0.6911 0.6872 0.6834
1117.000000 0.6794 0.6755 0.6715 0.6674 0.6633
1112.000000 0.6592 0.6551 0.6478 0.6395 0.6310
1107.000000 0.6210 0.6105 0.5969 0.5802 0.5691
1102.000000 0.5581 0.5469 0.5351 0.5233 0.5122
1097.000000 0.5032 0.4942 0.4852 0.4750 0.4646
1092.000000 0.4539 0.4412 0.4284 0.4115 0.3943
1087.000000 0.3720 0.3453 0.3214 0.2975 0.2735
1082.000000 0.2497 0.2258 0.2019 0.1167 0.1048
1077.000000 0.0957 0.0866 0.0797 0.0732 0.0692
1072.000000 0.0651 0.0603 0.0546 0.0534 0.0523
1067.000000 0.0517 0.0516 0.0511 0.0511 0.0511
1062.000000 0.0512 0.0519 0.0525 0.0549 0.0593
1057.000000 0.0658 0.0717 0.0778 0.0842 0.0907
1052.000000 0.0978 0.1171 0.1324 0.1430 0.1489
1047.000000 0.1548 0.1623 0.1701 0.1749 0.1779
1042.000000 0.1807 0.1834 0.1862 0.1890 0.1922
1037.000000 0.1954 0.1984 0.2012 0.2065 0.2126
1032.000000 0.2195 0.2304 0.2405 0.2492 0.2578
1027.000000 0.2951 0.3149 0.3255 0.3355 0.3450
1022.000000 0.3545 0.3680 0.4285 0.4422 0.4587
1017.000000 0.4752 0.4916 0.5081 0.5246 0.5410
1012.000000 0.5576 0.5741 0.5906 0.6129 0.6180
1007.000000 0.6252 0.6280 0.6308 0.6303 0.6288
1002.000000 0.6268 0.6243 0.6160 0.6048 0.5871
997.000000 0.5644 0.5405 0.5166 0.4927 0.4689
992.000000 0.4450 0.4210 0.3972 0.3734 0.3523
987.000000 0.3482 0.3504 0.3504 0.3504 0.3545
982.000000 0.3614 0.3691 0.3828 0.4028 0.4310
977.000000 0.4564 0.4817 0.5070 0.5323 0.5576
972.000000 0.5829 0.6082 0.6335 0.6618 0.6762
967.000000 0.6818 0.6861 0.6899 0.6938 0.6951
962.000000 0.7000 0.6975 0.6980 0.6967 0.6954
957.000000 0.6887 0.6817 0.6750 0.6682 0.6600
952.000000 0.6515 0.6380 0.6200 0.5888 0.5693
947.000000 0.5382 0.5072 0.4839 0.4723 0.4608
942.000000 0.4577 0.4597 0.4595 0.4602 0.4649
937.000000 0.4726 0.4770 0.4788 0.4826 0.4794
932.000000 0.4793 0.4787 0.4775 0.4710 0.4646
927.000000 0.4576 0.4501 0.4436 0.4421 0.4422
922.000000 0.4423 0.4467 0.4543 0.4617 0.4691
917.000000 0.4788 0.4945 0.5127 0.5309 0.5490
912.000000 0.5672 0.5854 0.6036 0.6218 0.6400
907.000000 0.6582 0.6745 0.6800 0.6856 0.6911
902.000000 0.6974 0.7038 0.7115 0.7175 0.7199
897.000000 0.7214 0.7218 0.7228 0.7221 0.7221
892.000000 0.7221 0.7221 0.7221 0.7218 0.7215
887.000000 0.7211 0.7208 0.7187 0.7161 0.7125
882.000000 0.7089 0.7053 0.7015 0.6965 0.6915
877.000000 0.6867 0.6808 0.6760 0.6732 0.6714
872.000000 0.6700 0.6688 0.6683 0.6697 0.6718
867.000000 0.6741 0.6761 0.6781 0.6798 0.6806
862.000000 0.6814 0.6821 0.6821 0.6815 0.6801
857.000000 0.6789 0.6775 0.6762 0.6750 0.6737
852.000000 0.6725 0.6714 0.6703 0.6692 0.6688
847.000000 0.6685 0.6682 0.6678 0.6675 0.6674
842.000000 0.6671 0.6669 0.6668 0.6658 0.6639
837.000000 0.6618 0.6589 0.6561 0.6532 0.6504
832.000000 0.6475 0.6446 0.6417 0.6386 0.6355
827.000000 0.6324 0.6294 0.6270 0.6249 0.6228
822.000000 0.6207 0.6185 0.6164 0.6142 0.6115
817.000000 0.6089 0.6062 0.6036 0.6009 0.5983
812.000000 0.5955 0.5926 0.5897 0.5868 0.5838
807.000000 0.5809 0.5780 0.5751 0.5717 0.5683
802.000000 0.5650 0.5616 0.5583 0.5549 0.5517
797.000000 0.5494 0.5471 0.5448 0.5425 0.5409
792.000000 0.5394 0.5379 0.5364 0.5349 0.5334
787.000000 0.5319 0.5304 0.5275 0.5257 0.5259
782.000000 0.5268 0.5278 0.5287 0.5296 0.5304
777.000000 0.5312 0.5321 0.5329 0.5338 0.5341
772.000000 0.5341 0.5341 0.5340 0.5340 0.5338
767.000000 0.5331 0.5325 0.5319 0.5312 0.5307
762.000000 0.5300 0.5288 0.5274 0.5259 0.5245
757.000000 0.5230 0.5216 0.5202 0.5187 0.5174
752.000000 0.5162 0.5149 0.5137 0.5124 0.5112
747.000000 0.5100 0.5087 0.5075 0.5062 0.5050
742.000000 0.5038 0.5025 0.5012 0.4999 0.4986
737.000000 0.4973 0.4960 0.4947 0.4934 0.4921
732.000000 0.4908 0.4895 0.4878 0.4862 0.4846
727.000000 0.4829 0.4812 0.4797 0.4781 0.4764
722.000000 0.4748 0.4732 0.4715 0.4700 0.4687
717.000000 0.4674 0.4660 0.4648 0.4634 0.4621
712.000000 0.4608 0.4595 0.4582 0.4569 0.4556
707.000000 0.4547 0.4538 0.4529 0.4519 0.4510
702.000000 0.4501 0.4492 0.4482 0.4473 0.4464
697.000000 0.4455 0.4448 0.4441 0.4434 0.4427
692.000000 0.4420 0.4412 0.4407 0.4402 0.4398
687.000000 0.4393 0.4389 0.4385 0.4381 0.4378
682.000000 0.4374 0.4370 0.4367 0.4359 0.4352
677.000000 0.4344 0.4336 0.4329 0.4321 0.4312
672.000000 0.4305 0.4301 0.4298 0.4295 0.4293
667.000000 0.4290 0.4287 0.4284 0.4319 0.4290
662.000000 0.4293 0.4296 0.4300 0.4303 0.4306
657.000000 0.4310 0.4312 0.4316 0.4319 0.4323
652.000000 0.4326 0.4330 0.4334 0.4337 0.4341
647.000000 0.4345 0.4348 0.4352 0.4356 0.4360
642.000000 0.4365 0.4369 0.4374 0.4378 0.4382
637.000000 0.4385 0.4387 0.4390 0.4393 0.4395
632.000000 0.4398 0.4402 0.4410 0.4419 0.4427
627.000000 0.4436 0.4444 0.4453 0.4462 0.4471
622.000000 0.4480 0.4489 0.4499 0.4508 0.4517
617.000000 0.4526 0.4535 0.4544 0.4553 0.4562
612.000000 0.4572 0.4581 0.4590 0.4599 0.4608
607.000000 0.4617 0.4627 0.4636 0.4648 0.4660
602.000000 0.4672 0.4684 0.4696 0.4708 0.4720
597.000000 0.4732 0.4744 0.4756 0.4764 0.4773
592.000000 0.4781 0.4789 0.4797 0.4805 0.4814
587.000000 0.4822 0.4831 0.4840 0.4849 0.4858
582.000000 0.4867 0.4876 0.4885 0.4894 0.4904
577.000000 0.4915 0.4927 0.4938 0.4949 0.4960
572.000000 0.4971 0.4984 0.4996 0.5008 0.5021
567.000000 0.5027 0.5034 0.5040 0.5046 0.5053
562.000000 0.5059 0.5064 0.5068 0.5072 0.5076
557.000000 0.5081 0.5085 0.5089 0.5129 0.5097
552.000000 0.5101 0.5103 0.5103 0.5102 0.5100
547.000000 0.5089 0.5077 0.5047 0.5018 0.4980
542.000000 0.4940 0.4888 0.4833 0.4782 0.4762
537.000000 0.4744 0.4719 0.4695 0.4678 0.4672
532.000000 0.4674 0.4674 0.4685 0.4697 0.4740
527.000000 0.4809 0.4878 0.4926 0.4974 0.5026
522.000000 0.5104 0.5182 0.5229 0.5270 0.5312
517.000000 0.5353 0.5392 0.5429 0.5465 0.5489
512.000000 0.5508 0.5526 0.5543 0.5551 0.5560
507.000000 0.5569 0.5578 0.5586 0.5593 0.5600
502.000000 0.5607 0.5614 0.5620 0.5626 0.5631
497.000000 0.5632 0.5632 0.5632 0.5631 0.5631
492.000000 0.5631 0.5632 0.5636 0.5640 0.5645
487.000000 0.5653 0.5660 0.5669 0.5678 0.5686
482.000000 0.5694 0.5704 0.5717 0.5729 0.5741
477.000000 0.5748 0.5753 0.5758 0.5760 0.5762
472.000000 0.5770 0.5760 0.5756 0.5751 0.5744
467.000000 0.5738 0.5731 0.5724 0.5715 0.5697
462.000000 0.5680 0.5662 0.5646 0.5629 0.5610
457.000000 0.5591 0.5571 0.5533 0.5490 0.5462
452.000000 0.5437 0.5408 0.5376 0.5348 0.5323
447.000000 0.5299 0.5274 0.5250 0.5229 0.5208
442.000000 0.5187 0.5166 0.5141 0.5115 0.5088
437.000000 0.5060 0.5035 0.5012 0.4989 0.4967
432.000000 0.4944 0.4921 0.4898 0.4873 0.4848
427.000000 0.4823 0.4797 0.4772 0.4741 0.4709
422.000000 0.4677 0.4645 0.4614 0.4581 0.4542
417.000000 0.4503 0.4472 0.4442 0.4416 0.4397
412.000000 0.4385 0.4377 0.4373 0.4370 0.4366
407.000000 0.4362 0.4359 0.4355 0.4352 0.4347
402.000000 0.4343 0.4342 0.4342
##END=
