##TITLE=m-Dioxane
##JCAMP-DX=4.24
##DATA TYPE=INFRARED SPECTRUM
##CLASS=COBLENTZ III
##ORIGIN=WESTERN REGIONAL RES. USDA
##OWNER=Copyright (C) 1987 by the Coblentz Society
Collection (C) 2018 copyright by the U.S. Secretary of Commerce
on behalf of the United States of America. All rights reserved.
##DATE=1967/12/17
##CAS REGISTRY NO=505-22-6
##MOLFORM=C4 H8 O2
##SOURCE REFERENCE=COBLENTZ NO. 7284
##$NIST SOURCE=COBLENTZ
##$NIST IMAGE=cob7284
##SPECTROMETER/DATA SYSTEM=CARY 90 (GRATING)
##INSTRUMENT PARAMETERS=GRATING CHANGES: 3000, 2000, 1200 CM^-^1
##STATE=SOLUTION (10% CCl4 FOR 4000-1330, 10% CS2 FOR 1330-450 CM^-^1) VS SOLVENT
##PATH LENGTH=0.010 CM, AND 0.010 CM
##SAMPLING PROCEDURE=TRANSMISSION
##RESOLUTION=2
##DATA PROCESSING=DIGITIZED BY COBLENTZ SOCIETY (BATCH II) FROM HARD COPY
##XUNITS=1/CM
##YUNITS=TRANSMITTANCE
##XFACTOR=1.0
##YFACTOR=1
##FIRSTX=528
##LASTX=4004
##FIRSTY=0.8613
##MAXX=4004
##MINX=528
##MAXY=0.9175
##MINY=0.002
##NPOINTS=3477
##XYDATA=(X++(Y..Y))
528.000000 0.8613 0.8624 0.8635 0.8646 0.8657
533.000000 0.8669 0.8680 0.8691 0.8702 0.8713
538.000000 0.8724 0.8735 0.8746 0.8757 0.8769
543.000000 0.8780 0.8791 0.8802 0.8814 0.8825
548.000000 0.8834 0.8841 0.8848 0.8855 0.8862
553.000000 0.8869 0.8876 0.8883 0.8890 0.8897
558.000000 0.8902 0.8905 0.8908 0.8911 0.8914
563.000000 0.8917 0.8920 0.8923 0.8925 0.8928
568.000000 0.8931 0.8934 0.8937 0.8940 0.8943
573.000000 0.8946 0.8949 0.8951 0.8954 0.8955
578.000000 0.8902 0.8956 0.8957 0.8958 0.8959
583.000000 0.8959 0.8960 0.8961 0.8962 0.8962
588.000000 0.8963 0.8964 0.8963 0.8961 0.8960
593.000000 0.8959 0.8958 0.8956 0.8955 0.8953
598.000000 0.8950 0.8947 0.8944 0.8942 0.8939
603.000000 0.8936 0.8933 0.8931 0.8928 0.8925
608.000000 0.8922 0.8920 0.8917 0.8914 0.8907
613.000000 0.8899 0.8891 0.8883 0.8875 0.8866
618.000000 0.8858 0.8850 0.8842 0.8834 0.8825
623.000000 0.8816 0.8803 0.8789 0.8775 0.8761
628.000000 0.8748 0.8734 0.8720 0.8707 0.8671
633.000000 0.8634 0.8598 0.8561 0.8429 0.7874
638.000000 0.7440 0.7006 0.6572 0.6138 0.5703
643.000000 0.5269 0.5186 0.5187 0.5159 0.5393
648.000000 0.5910 0.6427 0.6944 0.7462 0.7979
653.000000 0.8285 0.8393 0.8488 0.8568 0.8638
658.000000 0.8667 0.8696 0.8725 0.8752 0.8772
663.000000 0.8793 0.8813 0.8834 0.8854 0.8870
668.000000 0.8881 0.8892 0.8904 0.8915 0.8927
673.000000 0.8938 0.8944 0.8947 0.8950 0.8952
678.000000 0.8955 0.8958 0.8961 0.8964 0.8967
683.000000 0.8970 0.8973 0.8976 0.8979 0.8982
688.000000 0.8985 0.8988 0.8991 0.8994 0.8995
693.000000 0.8996 0.8997 0.8998 0.8998 0.8999
698.000000 0.9000 0.9001 0.9002 0.9003 0.9003
703.000000 0.9004 0.9005 0.9006 0.9007 0.9008
708.000000 0.9009 0.9007 0.9006 0.9005 0.9004
713.000000 0.9003 0.9002 0.9001 0.9000 0.8999
718.000000 0.8997 0.8996 0.8995 0.8994 0.8993
723.000000 0.8992 0.8991 0.8990 0.8989 0.8987
728.000000 0.9006 0.8985 0.8984 0.8982 0.8981
733.000000 0.8979 0.8978 0.8976 0.8974 0.8973
738.000000 0.8971 0.8970 0.8968 0.8967 0.8965
743.000000 0.8964 0.8962 0.8961 0.8959 0.8958
748.000000 0.8957 0.8956 0.8955 0.8954 0.8953
753.000000 0.8952 0.8951 0.8950 0.8949 0.8948
758.000000 0.8947 0.8946 0.8945 0.8944 0.8943
763.000000 0.8942 0.8941 0.8940 0.8939 0.8937
768.000000 0.8933 0.8929 0.8925 0.8921 0.8917
773.000000 0.8913 0.8909 0.8905 0.8902 0.8898
778.000000 0.8894 0.8890 0.8886 0.8882 0.8878
783.000000 0.8872 0.8862 0.8853 0.8844 0.8835
788.000000 0.8826 0.8817 0.8807 0.8798 0.8789
793.000000 0.8780 0.8768 0.8756 0.8744 0.8732
798.000000 0.8720 0.8708 0.8696 0.8684 0.8668
803.000000 0.8638 0.8608 0.8578 0.8548 0.8510
808.000000 0.8454 0.8398 0.8343 0.8287 0.8228
813.000000 0.8154 0.8080 0.8006 0.7919 0.7709
818.000000 0.7289 0.6821 0.6329 0.5744 0.5160
823.000000 0.4575 0.3990 0.3406 0.2821 0.2236
828.000000 0.1652 0.1067 0.0909 0.0890 0.0913
833.000000 0.1189 0.1886 0.2583 0.3279 0.3976
838.000000 0.4672 0.5369 0.6066 0.6762 0.7459
843.000000 0.7843 0.7949 0.7993 0.8037 0.8065
848.000000 0.8085 0.8104 0.8126 0.8121 0.8115
853.000000 0.8109 0.8096 0.8083 0.8063 0.8021
858.000000 0.7979 0.7923 0.7864 0.7805 0.7731
863.000000 0.7648 0.7563 0.7313 0.7201 0.7089
868.000000 0.6976 0.6814 0.6075 0.5654 0.5234
873.000000 0.4813 0.4393 0.3972 0.3552 0.3131
878.000000 0.2871 0.2918 0.2882 0.3381 0.3932
883.000000 0.4484 0.5035 0.5436 0.5416 0.5434
888.000000 0.5432 0.5431 0.5130 0.4587 0.4044
893.000000 0.3501 0.2958 0.2415 0.1871 0.1328
898.000000 0.0785 0.0242 0.0233 0.0232 0.0235
903.000000 0.0242 0.0244 0.0254 0.0739 0.2118
908.000000 0.3496 0.4726 0.4888 0.5020 0.5146
913.000000 0.5268 0.5390 0.5484 0.5579 0.5682
918.000000 0.5907 0.6120 0.6425 0.6773 0.6949
923.000000 0.7023 0.7098 0.7173 0.7224 0.7250
928.000000 0.7277 0.7303 0.7326 0.7334 0.7343
933.000000 0.7352 0.7360 0.7370 0.7385 0.7399
938.000000 0.7414 0.7429 0.7473 0.7522 0.7564
943.000000 0.7606 0.7645 0.7672 0.7699 0.7726
948.000000 0.7750 0.7755 0.7761 0.7767 0.7739
953.000000 0.7764 0.7758 0.7753 0.7747 0.7736
958.000000 0.7722 0.7674 0.7619 0.7550 0.7470
963.000000 0.7387 0.7294 0.7200 0.7085 0.6911
968.000000 0.6736 0.6560 0.6396 0.6242 0.6089
973.000000 0.5724 0.5123 0.4929 0.4570 0.4036
978.000000 0.3501 0.2966 0.2431 0.1897 0.1362
983.000000 0.0827 0.0293 0.0066 0.0051 0.0052
988.000000 0.0186 0.0466 0.0746 0.1026 0.1306
993.000000 0.1488 0.1445 0.1488 0.1486 0.1459
998.000000 0.1309 0.1160 0.1010 0.0861 0.0711
1003.000000 0.0562 0.0412 0.0263 0.0113 0.0082
1008.000000 0.0083 0.0085 0.0087 0.0065 0.0211
1013.000000 0.0591 0.0971 0.1351 0.1731 0.2111
1018.000000 0.2491 0.2872 0.3252 0.3632 0.4012
1023.000000 0.4392 0.4772 0.5125 0.5159 0.5157
1028.000000 0.5240 0.5139 0.5120 0.5084 0.4765
1033.000000 0.4419 0.4072 0.3726 0.3379 0.3032
1038.000000 0.2686 0.2339 0.1993 0.1646 0.1300
1043.000000 0.0953 0.0606 0.0372 0.0365 0.0361
1048.000000 0.0356 0.1120 0.1918 0.2715 0.3513
1053.000000 0.4311 0.5109 0.5890 0.6118 0.6278
1058.000000 0.6496 0.6555 0.6600 0.6605 0.6605
1063.000000 0.6603 0.6645 0.6598 0.6594 0.6591
1068.000000 0.6314 0.6099 0.5935 0.5701 0.5493
1073.000000 0.5251 0.4891 0.4530 0.4169 0.3807
1078.000000 0.3446 0.3085 0.2724 0.2362 0.2001
1083.000000 0.1640 0.1278 0.0917 0.0556 0.0221
1088.000000 0.0212 0.0200 0.0205 0.0305 0.0882
1093.000000 0.1458 0.2035 0.2611 0.3188 0.3765
1098.000000 0.4341 0.4918 0.5494 0.6004 0.6197
1103.000000 0.6411 0.6506 0.6580 0.6624 0.6646
1108.000000 0.6669 0.6691 0.6703 0.6703 0.6709
1113.000000 0.6685 0.6659 0.6601 0.6442 0.6267
1118.000000 0.6092 0.5917 0.5742 0.5567 0.5392
1123.000000 0.5217 0.4888 0.4722 0.4582 0.4375
1128.000000 0.3712 0.2975 0.2238 0.1501 0.1296
1133.000000 0.1294 0.1423 0.1551 0.1680 0.1809
1138.000000 0.1937 0.2000 0.2040 0.2039 0.1865
1143.000000 0.1683 0.1501 0.1319 0.1137 0.0956
1148.000000 0.0774 0.0592 0.0410 0.0228 0.0046
1153.000000 0.0037 0.0049 0.0037 0.0039 0.0371
1158.000000 0.0797 0.1222 0.1647 0.1976 0.2248
1163.000000 0.2408 0.2508 0.2589 0.2651 0.2713
1168.000000 0.2829 0.3015 0.3201 0.3387 0.3573
1173.000000 0.3684 0.3680 0.3678 0.3559 0.3206
1178.000000 0.2854 0.2502 0.2150 0.1797 0.1445
1183.000000 0.1093 0.0741 0.0388 0.0036 0.0026
1188.000000 0.0022 0.0051 0.0020 0.0428 0.0948
1193.000000 0.1467 0.1987 0.2506 0.3025 0.3545
1198.000000 0.4064 0.4584 0.5103 0.5606 0.5686
1203.000000 0.5760 0.5815 0.5851 0.5876 0.5945
1208.000000 0.5891 0.5883 0.5876 0.5812 0.5698
1213.000000 0.5626 0.5198 0.4683 0.4167 0.3652
1218.000000 0.3137 0.2621 0.2106 0.1591 0.1075
1223.000000 0.0560 0.0317 0.0295 0.0297 0.0288
1228.000000 0.0280 0.0730 0.1330 0.1930 0.2529
1233.000000 0.3129 0.3729 0.4329 0.4929 0.5528
1238.000000 0.6279 0.6820 0.6994 0.7135 0.7236
1243.000000 0.7330 0.7419 0.7508 0.7571 0.7614
1248.000000 0.7658 0.7702 0.7730 0.7756 0.7782
1253.000000 0.7808 0.7829 0.7848 0.7868 0.7886
1258.000000 0.7895 0.7903 0.7912 0.7918 0.7929
1263.000000 0.7918 0.7919 0.7908 0.7896 0.7884
1268.000000 0.7852 0.7808 0.7755 0.7707 0.7660
1273.000000 0.7596 0.7507 0.7405 0.7179 0.6822
1278.000000 0.6464 0.6107 0.5750 0.5393 0.5036
1283.000000 0.4679 0.4322 0.4203 0.4218 0.4317
1288.000000 0.4838 0.5359 0.5522 0.5589 0.5642
1293.000000 0.5693 0.5743 0.5793 0.5840 0.5887
1298.000000 0.5940 0.6005 0.6076 0.6160 0.6528
1303.000000 0.6770 0.6877 0.6979 0.7063 0.7125
1308.000000 0.7164 0.7204 0.7235 0.7259 0.7276
1313.000000 0.7290 0.7304 0.7315 0.7325 0.7334
1318.000000 0.7347 0.7363 0.7379 0.7466 0.7595
1323.000000 0.7721 0.7775 0.7799 0.7818 0.7830
1328.000000 0.7843 0.7844 0.7850 0.7847 0.7844
1333.000000 0.7836 0.7824 0.7791 0.7750 0.7708
1338.000000 0.7669 0.7631 0.7610 0.7596 0.7591
1343.000000 0.7586 0.7579 0.7571 0.7548 0.7391
1348.000000 0.7115 0.6839 0.6113 0.6287 0.6100
1353.000000 0.6101 0.6151 0.6564 0.6836 0.6878
1358.000000 0.6927 0.6978 0.7018 0.7055 0.7084
1363.000000 0.7109 0.7124 0.7142 0.7142 0.7140
1368.000000 0.7135 0.6913 0.6457 0.6001 0.5546
1373.000000 0.5090 0.4635 0.4179 0.3681 0.3690
1378.000000 0.4027 0.5260 0.6494 0.7096 0.7174
1383.000000 0.7215 0.7252 0.7268 0.7272 0.7267
1388.000000 0.7262 0.7251 0.7226 0.7197 0.7157
1393.000000 0.7112 0.7070 0.7027 0.6980 0.6933
1398.000000 0.6879 0.6203 0.5367 0.4530 0.3573
1403.000000 0.3552 0.4085 0.4819 0.5553 0.6287
1408.000000 0.7021 0.7303 0.7380 0.7427 0.7452
1413.000000 0.7473 0.7477 0.7487 0.7474 0.7462
1418.000000 0.7429 0.7371 0.7313 0.7115 0.6736
1423.000000 0.6357 0.5978 0.5599 0.5219 0.4840
1428.000000 0.4461 0.3913 0.3894 0.3906 0.4307
1433.000000 0.4990 0.5673 0.6356 0.7039 0.7409
1438.000000 0.7456 0.7493 0.7556 0.7507 0.7507
1443.000000 0.7499 0.7477 0.7445 0.7384 0.7328
1448.000000 0.6992 0.6652 0.6312 0.5971 0.5631
1453.000000 0.5291 0.4951 0.4610 0.4270 0.3930
1458.000000 0.3590 0.3572 0.3561 0.4052 0.4572
1463.000000 0.5092 0.5612 0.6132 0.6435 0.6435
1468.000000 0.6456 0.6234 0.5896 0.5558 0.5220
1473.000000 0.4882 0.4544 0.4206 0.3868 0.3848
1478.000000 0.3858 0.4053 0.5312 0.6880 0.7008
1483.000000 0.7149 0.7276 0.7357 0.7433 0.7535
1488.000000 0.7672 0.7747 0.7788 0.7818 0.7847
1493.000000 0.7865 0.7883 0.7900 0.7918 0.7936
1498.000000 0.7953 0.7967 0.7982 0.7997 0.8011
1503.000000 0.8026 0.8040 0.8055 0.8070 0.8085
1508.000000 0.8099 0.8114 0.8129 0.8144 0.8158
1513.000000 0.8174 0.8189 0.8205 0.8221 0.8236
1518.000000 0.8252 0.8267 0.8277 0.8287 0.8296
1523.000000 0.8306 0.8316 0.8326 0.8336 0.8345
1528.000000 0.8355 0.8365 0.8370 0.8374 0.8378
1533.000000 0.8383 0.8387 0.8392 0.8396 0.8400
1538.000000 0.8405 0.8409 0.8414 0.8418 0.8421
1543.000000 0.8421 0.8422 0.8422 0.8423 0.8424
1548.000000 0.8424 0.8425 0.8426 0.8426 0.8427
1553.000000 0.8427 0.8428 0.8429 0.8429 0.8430
1558.000000 0.8431 0.8431 0.8430 0.8429 0.8428
1563.000000 0.8427 0.8426 0.8425 0.8424 0.8423
1568.000000 0.8422 0.8421 0.8420 0.8419 0.8418
1573.000000 0.8417 0.8416 0.8413 0.8411 0.8408
1578.000000 0.8406 0.8403 0.8400 0.8398 0.8395
1583.000000 0.8393 0.8390 0.8388 0.8385 0.8383
1588.000000 0.8380 0.8378 0.8375 0.8372 0.8369
1593.000000 0.8366 0.8364 0.8361 0.8358 0.8355
1598.000000 0.8352 0.8350 0.8347 0.8344 0.8341
1603.000000 0.8339 0.8336 0.8333 0.8330 0.8327
1608.000000 0.8328 0.8328 0.8329 0.8329 0.8330
1613.000000 0.8330 0.8330 0.8331 0.8331 0.8332
1618.000000 0.8332 0.8333 0.8333 0.8333 0.8334
1623.000000 0.8334 0.8335 0.8338 0.8342 0.8345
1628.000000 0.8349 0.8352 0.8356 0.8359 0.8363
1633.000000 0.8366 0.8370 0.8373 0.8377 0.8380
1638.000000 0.8384 0.8387 0.8386 0.8386 0.8386
1643.000000 0.8386 0.8386 0.8385 0.8385 0.8382
1648.000000 0.8377 0.8372 0.8367 0.8362 0.8357
1653.000000 0.8352 0.8347 0.8342 0.8338 0.8337
1658.000000 0.8336 0.8335 0.8334 0.8333 0.8331
1663.000000 0.8330 0.8334 0.8342 0.8350 0.8359
1668.000000 0.8367 0.8375 0.8388 0.8405 0.8422
1673.000000 0.8440 0.8457 0.8474 0.8491 0.8507
1678.000000 0.8515 0.8517 0.8520 0.8521 0.8520
1683.000000 0.8519 0.8518 0.8517 0.8516 0.8518
1688.000000 0.8521 0.8525 0.8528 0.8531 0.8535
1693.000000 0.8538 0.8538 0.8537 0.8536 0.8536
1698.000000 0.8535 0.8535 0.8534 0.8534 0.8532
1703.000000 0.8529 0.8526 0.8523 0.8520 0.8517
1708.000000 0.8514 0.8511 0.8508 0.8505 0.8502
1713.000000 0.8500 0.8499 0.8498 0.8497 0.8496
1718.000000 0.8495 0.8488 0.8481 0.8474 0.8466
1723.000000 0.8456 0.8441 0.8425 0.8408 0.8390
1728.000000 0.8372 0.8354 0.8337 0.8319 0.8308
1733.000000 0.8305 0.8301 0.8300 0.8312 0.8324
1738.000000 0.8336 0.8349 0.8362 0.8379 0.8395
1743.000000 0.8410 0.8420 0.8430 0.8440 0.8449
1748.000000 0.8450 0.8445 0.8440 0.8435 0.8428
1753.000000 0.8415 0.8401 0.8387 0.8373 0.8360
1758.000000 0.8347 0.8340 0.8332 0.8333 0.8347
1763.000000 0.8361 0.8376 0.8390 0.8403 0.8412
1768.000000 0.8421 0.8430 0.8435 0.8436 0.8438
1773.000000 0.8431 0.8422 0.8413 0.8404 0.8395
1778.000000 0.8386 0.8379 0.8372 0.8365 0.8358
1783.000000 0.8358 0.8370 0.8381 0.8391 0.8400
1788.000000 0.8408 0.8417 0.8421 0.8420 0.8419
1793.000000 0.8418 0.8418 0.8417 0.8416 0.8415
1798.000000 0.8414 0.8414 0.8414 0.8420 0.8426
1803.000000 0.8432 0.8438 0.8444 0.8450 0.8456
1808.000000 0.8462 0.8468 0.8475 0.8482 0.8489
1813.000000 0.8496 0.8496 0.8497 0.8497 0.8497
1818.000000 0.8497 0.8498 0.8498 0.8498 0.8498
1823.000000 0.8497 0.8494 0.8492 0.8490 0.8488
1828.000000 0.8486 0.8484 0.8482 0.8480 0.8478
1833.000000 0.8475 0.8465 0.8456 0.8446 0.8437
1838.000000 0.8427 0.8421 0.8416 0.8411 0.8406
1843.000000 0.8407 0.8408 0.8412 0.8430 0.8447
1848.000000 0.8495 0.8520 0.8544 0.8565 0.8571
1853.000000 0.8572 0.8573 0.8575 0.8575 0.8571
1858.000000 0.8567 0.8563 0.8559 0.8554 0.8547
1863.000000 0.8540 0.8532 0.8525 0.8518 0.8511
1868.000000 0.8503 0.8496 0.8487 0.8478 0.8469
1873.000000 0.8460 0.8451 0.8442 0.8433 0.8421
1878.000000 0.8407 0.8394 0.8380 0.8366 0.8352
1883.000000 0.8337 0.8321 0.8305 0.8290 0.8274
1888.000000 0.8260 0.8249 0.8239 0.8229 0.8228
1893.000000 0.8244 0.8260 0.8277 0.8301 0.8325
1898.000000 0.8347 0.8357 0.8368 0.8379 0.8382
1903.000000 0.8383 0.8384 0.8372 0.8360 0.8348
1908.000000 0.8326 0.8304 0.8282 0.8259 0.8231
1913.000000 0.8203 0.8174 0.8141 0.8107 0.8074
1918.000000 0.8037 0.7992 0.7947 0.7901 0.7880
1923.000000 0.7860 0.7840 0.7829 0.7827 0.7816
1928.000000 0.7823 0.7824 0.7824 0.7836 0.7865
1933.000000 0.7907 0.7951 0.8002 0.8099 0.8175
1938.000000 0.8230 0.8257 0.8285 0.8304 0.8314
1943.000000 0.8322 0.8327 0.8332 0.8337 0.8343
1948.000000 0.8347 0.8350 0.8352 0.8355 0.8357
1953.000000 0.8360 0.8363 0.8367 0.8371 0.8366
1958.000000 0.8379 0.8383 0.8387 0.8390 0.8394
1963.000000 0.8397 0.8401 0.8401 0.8399 0.8398
1968.000000 0.8396 0.8395 0.8393 0.8387 0.8381
1973.000000 0.8371 0.8355 0.8338 0.8320 0.8291
1978.000000 0.8261 0.8232 0.8203 0.8173 0.8143
1983.000000 0.8112 0.8082 0.8053 0.8036 0.8019
1988.000000 0.8001 0.7984 0.7973 0.7965 0.7977
1993.000000 0.7986 0.8025 0.8065 0.8104 0.8143
1998.000000 0.8183 0.8222 0.8261 0.8300 0.8340
2003.000000 0.8359 0.8379 0.8399 0.8419 0.8438
2008.000000 0.8458 0.8476 0.8494 0.8488 0.8482
2013.000000 0.8476 0.8470 0.8465 0.8460 0.8454
2018.000000 0.8448 0.8436 0.8424 0.8412 0.8400
2023.000000 0.8391 0.8382 0.8375 0.8368 0.8361
2028.000000 0.8355 0.8356 0.8357 0.8362 0.8367
2033.000000 0.8375 0.8384 0.8394 0.8405 0.8419
2038.000000 0.8433 0.8444 0.8455 0.8463 0.8472
2043.000000 0.8480 0.8489 0.8487 0.8485 0.8481
2048.000000 0.8477 0.8473 0.8469 0.8465 0.8461
2053.000000 0.8461 0.8461 0.8463 0.8465 0.8472
2058.000000 0.8479 0.8486 0.8494 0.8501 0.8509
2063.000000 0.8515 0.8521 0.8524 0.8528 0.8532
2068.000000 0.8536 0.8539 0.8543 0.8546 0.8550
2073.000000 0.8553 0.8557 0.8556 0.8556 0.8554
2078.000000 0.8553 0.8551 0.8550 0.8547 0.8545
2083.000000 0.8542 0.8540 0.8537 0.8535 0.8532
2088.000000 0.8530 0.8527 0.8525 0.8522 0.8520
2093.000000 0.8518 0.8516 0.8522 0.8528 0.8534
2098.000000 0.8540 0.8546 0.8553 0.8559 0.8565
2103.000000 0.8571 0.8577 0.8582 0.8587 0.8591
2108.000000 0.8596 0.8600 0.8605 0.8609 0.8614
2113.000000 0.8611 0.8609 0.8606 0.8603 0.8600
2118.000000 0.8598 0.8595 0.8592 0.8589 0.8587
2123.000000 0.8584 0.8582 0.8579 0.8577 0.8576
2128.000000 0.8575 0.8574 0.8573 0.8571 0.8570
2133.000000 0.8569 0.8568 0.8567 0.8566 0.8562
2138.000000 0.8559 0.8554 0.8550 0.8546 0.8542
2143.000000 0.8537 0.8533 0.8528 0.8524 0.8516
2148.000000 0.8508 0.8498 0.8489 0.8479 0.8469
2153.000000 0.8458 0.8448 0.8436 0.8424 0.8412
2158.000000 0.8400 0.8392 0.8385 0.8394 0.8403
2163.000000 0.8421 0.8439 0.8458 0.8478 0.8500
2168.000000 0.8523 0.8547 0.8571 0.8585 0.8599
2173.000000 0.8607 0.8615 0.8620 0.8626 0.8631
2178.000000 0.8636 0.8640 0.8644 0.8646 0.8648
2183.000000 0.8650 0.8652 0.8653 0.8655 0.8657
2188.000000 0.8659 0.8661 0.8664 0.8666 0.8668
2193.000000 0.8670 0.8673 0.8675 0.8678 0.8680
2198.000000 0.8682 0.8683 0.8685 0.8686 0.8687
2203.000000 0.8688 0.8689 0.8690 0.8692 0.8693
2208.000000 0.8694 0.8694 0.8695 0.8694 0.8693
2213.000000 0.8692 0.8692 0.8691 0.8691 0.8690
2218.000000 0.8689 0.8688 0.8688 0.8687 0.8687
2223.000000 0.8684 0.8681 0.8678 0.8675 0.8671
2228.000000 0.8668 0.8665 0.8662 0.8658 0.8655
2233.000000 0.8651 0.8648 0.8643 0.8638 0.8633
2238.000000 0.8628 0.8623 0.8619 0.8621 0.8624
2243.000000 0.8627 0.8630 0.8633 0.8636 0.8639
2248.000000 0.8642 0.8645 0.8649 0.8653 0.8657
2253.000000 0.8661 0.8665 0.8669 0.8673 0.8673
2258.000000 0.8674 0.8674 0.8675 0.8675 0.8676
2263.000000 0.8676 0.8677 0.8676 0.8675 0.8674
2268.000000 0.8673 0.8671 0.8670 0.8668 0.8667
2273.000000 0.8665 0.8664 0.8662 0.8661 0.8658
2278.000000 0.8655 0.8652 0.8649 0.8646 0.8643
2283.000000 0.8640 0.8637 0.8634 0.8631 0.8628
2288.000000 0.8625 0.8622 0.8620 0.8617 0.8614
2293.000000 0.8611 0.8609 0.8606 0.8604 0.8604
2298.000000 0.8605 0.8605 0.8606 0.8606 0.8606
2303.000000 0.8606 0.8607 0.8607 0.8608 0.8608
2308.000000 0.8608 0.8608 0.8609 0.8611 0.8614
2313.000000 0.8617 0.8620 0.8623 0.8627 0.8628
2318.000000 0.8630 0.8631 0.8632 0.8633 0.8635
2323.000000 0.8636 0.8637 0.8633 0.8630 0.8621
2328.000000 0.8612 0.8602 0.8593 0.8584 0.8575
2333.000000 0.8571 0.8568 0.8567 0.8566 0.8564
2338.000000 0.8563 0.8561 0.8560 0.8559 0.8558
2343.000000 0.8556 0.8555 0.8554 0.8553 0.8551
2348.000000 0.8550 0.8549 0.8548 0.8546 0.8545
2353.000000 0.8543 0.8542 0.8543 0.8544 0.8546
2358.000000 0.8548 0.8550 0.8553 0.8555 0.8558
2363.000000 0.8560 0.8562 0.8564 0.8567 0.8569
2368.000000 0.8571 0.8573 0.8576 0.8579 0.8582
2373.000000 0.8586 0.8591 0.8595 0.8599 0.8603
2378.000000 0.8607 0.8611 0.8615 0.8619 0.8623
2383.000000 0.8627 0.8632 0.8636 0.8640 0.8644
2388.000000 0.8648 0.8652 0.8656 0.8660 0.8664
2393.000000 0.8667 0.8670 0.8672 0.8675 0.8678
2398.000000 0.8681 0.8684 0.8687 0.8689 0.8692
2403.000000 0.8695 0.8698 0.8700 0.8703 0.8706
2408.000000 0.8709 0.8712 0.8715 0.8717 0.8720
2413.000000 0.8723 0.8726 0.8728 0.8731 0.8734
2418.000000 0.8737 0.8738 0.8739 0.8740 0.8742
2423.000000 0.8743 0.8744 0.8745 0.8747 0.8748
2428.000000 0.8749 0.8750 0.8752 0.8753 0.8754
2433.000000 0.8755 0.8757 0.8758 0.8759 0.8760
2438.000000 0.8762 0.8763 0.8764 0.8765 0.8767
2443.000000 0.8768 0.8770 0.8770 0.8771 0.8770
2448.000000 0.8770 0.8770 0.8770 0.8770 0.8770
2453.000000 0.8769 0.8769 0.8769 0.8769 0.8769
2458.000000 0.8769 0.8769 0.8769 0.8769 0.8769
2463.000000 0.8769 0.8769 0.8769 0.8770 0.8770
2468.000000 0.8770 0.8770 0.8770 0.8770 0.8770
2473.000000 0.8770 0.8771 0.8771 0.8771 0.8770
2478.000000 0.8770 0.8769 0.8769 0.8768 0.8768
2483.000000 0.8767 0.8767 0.8766 0.8766 0.8765
2488.000000 0.8765 0.8764 0.8763 0.8762 0.8762
2493.000000 0.8761 0.8761 0.8760 0.8759 0.8758
2498.000000 0.8757 0.8756 0.8755 0.8754 0.8753
2503.000000 0.8752 0.8751 0.8750 0.8750 0.8749
2508.000000 0.8748 0.8747 0.8746 0.8745 0.8744
2513.000000 0.8743 0.8742 0.8741 0.8740 0.8739
2518.000000 0.8738 0.8736 0.8734 0.8730 0.8727
2523.000000 0.8723 0.8719 0.8715 0.8712 0.8708
2528.000000 0.8704 0.8700 0.8697 0.8690 0.8683
2533.000000 0.8674 0.8665 0.8655 0.8646 0.8636
2538.000000 0.8627 0.8617 0.8608 0.8599 0.8590
2543.000000 0.8580 0.8571 0.8566 0.8561 0.8556
2548.000000 0.8552 0.8547 0.8542 0.8537 0.8533
2553.000000 0.8531 0.8529 0.8527 0.8525 0.8525
2558.000000 0.8526 0.8531 0.8537 0.8547 0.8558
2563.000000 0.8568 0.8578 0.8592 0.8606 0.8618
2568.000000 0.8630 0.8640 0.8650 0.8660 0.8670
2573.000000 0.8679 0.8689 0.8694 0.8699 0.8703
2578.000000 0.8708 0.8713 0.8718 0.8721 0.8725
2583.000000 0.8727 0.8730 0.8733 0.8736 0.8738
2588.000000 0.8741 0.8744 0.8747 0.8742 0.8737
2593.000000 0.8726 0.8715 0.8703 0.8692 0.8680
2598.000000 0.8669 0.8657 0.8646 0.8634 0.8623
2603.000000 0.8612 0.8601 0.8592 0.8584 0.8585
2608.000000 0.8586 0.8586 0.8587 0.8590 0.8593
2613.000000 0.8597 0.8601 0.8601 0.8602 0.8597
2618.000000 0.8593 0.8588 0.8584 0.8569 0.8554
2623.000000 0.8537 0.8521 0.8513 0.8506 0.8501
2628.000000 0.8496 0.8493 0.8491 0.8494 0.8498
2633.000000 0.8502 0.8506 0.8505 0.8504 0.8501
2638.000000 0.8499 0.8496 0.8494 0.8446 0.8398
2643.000000 0.8341 0.8285 0.8229 0.8173 0.8116
2648.000000 0.8060 0.8004 0.7948 0.7891 0.7835
2653.000000 0.7779 0.7723 0.7667 0.7550 0.7591
2658.000000 0.7571 0.7633 0.7695 0.7937 0.8179
2663.000000 0.8270 0.8361 0.8360 0.8360 0.8359
2668.000000 0.8359 0.8358 0.8358 0.8355 0.8352
2673.000000 0.8349 0.8362 0.8341 0.8336 0.8321
2678.000000 0.8307 0.8275 0.8244 0.8212 0.8181
2683.000000 0.8107 0.8033 0.7905 0.7778 0.7734
2688.000000 0.7690 0.7678 0.7667 0.7652 0.7638
2693.000000 0.7621 0.7604 0.7507 0.7411 0.7245
2698.000000 0.7080 0.6915 0.6641 0.6702 0.6655
2703.000000 0.6655 0.6655 0.6671 0.6688 0.6771
2708.000000 0.6854 0.6936 0.7019 0.7102 0.7185
2713.000000 0.7267 0.7350 0.7433 0.7516 0.7598
2718.000000 0.7681 0.7764 0.7908 0.7879 0.7912
2723.000000 0.7909 0.7907 0.7904 0.7901 0.7898
2728.000000 0.7896 0.7688 0.7480 0.7257 0.7035
2733.000000 0.6812 0.6590 0.6367 0.6145 0.5922
2738.000000 0.5700 0.5477 0.5255 0.5032 0.4810
2743.000000 0.4756 0.4699 0.4702 0.4703 0.4733
2748.000000 0.4763 0.4878 0.4994 0.5109 0.5224
2753.000000 0.5339 0.5455 0.5511 0.5567 0.5565
2758.000000 0.5562 0.5561 0.5559 0.5483 0.5407
2763.000000 0.5330 0.5253 0.5176 0.5099 0.5021
2768.000000 0.4944 0.4867 0.4790 0.4371 0.3953
2773.000000 0.3521 0.3090 0.2659 0.2228 0.2144
2778.000000 0.2060 0.2184 0.2067 0.2599 0.2891
2783.000000 0.3183 0.3475 0.3767 0.4059 0.4351
2788.000000 0.4643 0.4935 0.5227 0.5518 0.5810
2793.000000 0.6102 0.6394 0.6682 0.6971 0.6969
2798.000000 0.6940 0.6961 0.6955 0.6947 0.6940
2803.000000 0.6890 0.6841 0.6766 0.6691 0.6616
2808.000000 0.6542 0.6467 0.6393 0.6318 0.6243
2813.000000 0.6168 0.6094 0.5939 0.5785 0.5567
2818.000000 0.5350 0.5132 0.4915 0.4697 0.4480
2823.000000 0.4262 0.4045 0.3827 0.3609 0.3391
2828.000000 0.3174 0.2956 0.2739 0.2521 0.2304
2833.000000 0.2086 0.1869 0.1651 0.1434 0.1216
2838.000000 0.0999 0.0781 0.0564 0.0434 0.0304
2843.000000 0.0278 0.0253 0.0246 0.0239 0.0232
2848.000000 0.0226 0.0215 0.0204 0.0197 0.0190
2853.000000 0.0185 0.0160 0.0177 0.0173 0.0301
2858.000000 0.0429 0.0606 0.0783 0.0960 0.1138
2863.000000 0.1315 0.1492 0.1669 0.1847 0.2024
2868.000000 0.2202 0.2379 0.2556 0.2733 0.2911
2873.000000 0.3088 0.3265 0.3442 0.3620 0.3797
2878.000000 0.3975 0.4152 0.4329 0.4506 0.4684
2883.000000 0.4861 0.5038 0.5215 0.5393 0.5570
2888.000000 0.5748 0.5925 0.6102 0.6188 0.6274
2893.000000 0.6272 0.6270 0.6268 0.6280 0.6201
2898.000000 0.6136 0.5989 0.5842 0.5694 0.5547
2903.000000 0.5399 0.5252 0.5105 0.4958 0.4810
2908.000000 0.4663 0.4515 0.4368 0.4220 0.4073
2913.000000 0.3926 0.3779 0.3631 0.3484 0.3336
2918.000000 0.3189 0.3042 0.2895 0.2747 0.2600
2923.000000 0.2484 0.2368 0.2367 0.2383 0.2370
2928.000000 0.2375 0.2446 0.2517 0.2670 0.2823
2933.000000 0.2976 0.3130 0.3283 0.3436 0.3589
2938.000000 0.3743 0.3769 0.3795 0.3793 0.3792
2943.000000 0.3731 0.3793 0.3485 0.3300 0.3114
2948.000000 0.2929 0.2743 0.2557 0.2371 0.2186
2953.000000 0.2000 0.1815 0.1629 0.1009 0.1257
2958.000000 0.1072 0.1062 0.1052 0.1085 0.1118
2963.000000 0.1176 0.1234 0.1292 0.1351 0.1365
2968.000000 0.1386 0.1375 0.1372 0.1296 0.1221
2973.000000 0.1146 0.1071 0.0995 0.0920 0.0852
2978.000000 0.0785 0.0784 0.0790 0.0949 0.1116
2983.000000 0.1670 0.2225 0.2260 0.2296 0.2329
2988.000000 0.2362 0.2450 0.2538 0.2558 0.2578
2993.000000 0.2600 0.2623 0.2653 0.2684 0.2794
2998.000000 0.2905 0.3055 0.3205 0.3355 0.3505
3003.000000 0.3655 0.3805 0.3955 0.4106 0.4208
3008.000000 0.4311 0.4390 0.4469 0.4776 0.5083
3013.000000 0.5208 0.5333 0.5545 0.5757 0.6009
3018.000000 0.6261 0.6488 0.6715 0.6991 0.7267
3023.000000 0.7331 0.7396 0.7463 0.7531 0.7607
3028.000000 0.7683 0.7753 0.7824 0.7871 0.7918
3033.000000 0.7965 0.8013 0.8060 0.8107 0.8160
3038.000000 0.8213 0.8266 0.8319 0.8352 0.8385
3043.000000 0.8405 0.8425 0.8445 0.8466 0.8486
3048.000000 0.8507 0.8521 0.8536 0.8550 0.8564
3053.000000 0.8578 0.8593 0.8607 0.8621 0.8635
3058.000000 0.8649 0.8661 0.8673 0.8684 0.8696
3063.000000 0.8707 0.8719 0.8729 0.8739 0.8747
3068.000000 0.8755 0.8762 0.8770 0.8777 0.8785
3073.000000 0.8792 0.8800 0.8807 0.8815 0.8822
3078.000000 0.8830 0.8833 0.8837 0.8840 0.8844
3083.000000 0.8848 0.8852 0.8855 0.8859 0.8862
3088.000000 0.8866 0.8870 0.8874 0.8877 0.8881
3093.000000 0.8884 0.8888 0.8891 0.8895 0.8896
3098.000000 0.8897 0.8896 0.8896 0.8895 0.8895
3103.000000 0.8894 0.8894 0.8893 0.8893 0.8892
3108.000000 0.8892 0.8893 0.8894 0.8895 0.8896
3113.000000 0.8897 0.8898 0.8899 0.8900 0.8901
3118.000000 0.8902 0.8904 0.8907 0.8912 0.8917
3123.000000 0.8922 0.8928 0.8933 0.8938 0.8943
3128.000000 0.8948 0.8953 0.8959 0.8964 0.8969
3133.000000 0.8974 0.8980 0.8986 0.8993 0.8999
3138.000000 0.9005 0.9011 0.9017 0.9022 0.9028
3143.000000 0.9028 0.9028 0.9028 0.9028 0.9028
3148.000000 0.9028 0.9028 0.9029 0.9029 0.9029
3153.000000 0.9029 0.9029 0.9029 0.9029 0.9029
3158.000000 0.9030 0.9030 0.9030 0.9030 0.9030
3163.000000 0.9030 0.9031 0.9031 0.9031 0.9031
3168.000000 0.9032 0.9032 0.9032 0.9032 0.9033
3173.000000 0.9033 0.9033 0.9033 0.9034 0.9034
3178.000000 0.9034 0.9034 0.9035 0.9035 0.9035
3183.000000 0.9035 0.9036 0.9036 0.9036 0.9036
3188.000000 0.9036 0.9036 0.9036 0.9035 0.9035
3193.000000 0.9035 0.9035 0.9035 0.9035 0.9035
3198.000000 0.9035 0.9035 0.9035 0.9035 0.9035
3203.000000 0.9034 0.9034 0.9034 0.9034 0.9034
3208.000000 0.9034 0.9034 0.9034 0.9034 0.9034
3213.000000 0.9034 0.9034 0.9033 0.9033 0.9033
3218.000000 0.9033 0.9033 0.9033 0.9033 0.9033
3223.000000 0.9033 0.9033 0.9032 0.9032 0.9032
3228.000000 0.9032 0.9032 0.9032 0.9032 0.9032
3233.000000 0.9032 0.9032 0.9032 0.9032 0.9032
3238.000000 0.9032 0.9033 0.9034 0.9034 0.9035
3243.000000 0.9036 0.9037 0.9037 0.9038 0.9039
3248.000000 0.9040 0.9040 0.9041 0.9041 0.9042
3253.000000 0.9043 0.9044 0.9044 0.9045 0.9046
3258.000000 0.9047 0.9047 0.9048 0.9050 0.9052
3263.000000 0.9053 0.9055 0.9056 0.9049 0.9059
3268.000000 0.9061 0.9062 0.9064 0.9065 0.9067
3273.000000 0.9068 0.9070 0.9071 0.9073 0.9074
3278.000000 0.9076 0.9078 0.9080 0.9081 0.9083
3283.000000 0.9084 0.9086 0.9087 0.9089 0.9090
3288.000000 0.9092 0.9093 0.9095 0.9096 0.9098
3293.000000 0.9099 0.9101 0.9103 0.9105 0.9106
3298.000000 0.9108 0.9109 0.9111 0.9113 0.9115
3303.000000 0.9116 0.9118 0.9119 0.9121 0.9123
3308.000000 0.9125 0.9126 0.9128 0.9129 0.9131
3313.000000 0.9133 0.9135 0.9136 0.9138 0.9139
3318.000000 0.9141 0.9142 0.9144 0.9146 0.9148
3323.000000 0.9149 0.9151 0.9152 0.9154 0.9156
3328.000000 0.9158 0.9160 0.9162 0.9164 0.9166
3333.000000 0.9168 0.9170 0.9172 0.9174 0.9174
3338.000000 0.9175 0.9174 0.9174 0.9173 0.9173
3343.000000 0.9172 0.9172 0.9171 0.9171 0.9171
3348.000000 0.9171 0.9170 0.9170 0.9169 0.9169
3353.000000 0.9168 0.9168 0.9167 0.9167 0.9167
3358.000000 0.9167 0.9166 0.9166 0.9165 0.9165
3363.000000 0.9164 0.9164 0.9162 0.9160 0.9158
3368.000000 0.9156 0.9154 0.9152 0.9149 0.9147
3373.000000 0.9145 0.9143 0.9141 0.9139 0.9136
3378.000000 0.9134 0.9132 0.9130 0.9128 0.9126
3383.000000 0.9124 0.9122 0.9119 0.9117 0.9115
3388.000000 0.9113 0.9111 0.9109 0.9106 0.9104
3393.000000 0.9102 0.9100 0.9098 0.9096 0.9094
3398.000000 0.9092 0.9089 0.9087 0.9086 0.9085
3403.000000 0.9084 0.9083 0.9082 0.9082 0.9081
3408.000000 0.9081 0.9080 0.9080 0.9079 0.9079
3413.000000 0.9078 0.9077 0.9076 0.9076 0.9075
3418.000000 0.9075 0.9074 0.9074 0.9073 0.9073
3423.000000 0.9072 0.9072 0.9071 0.9070 0.9069
3428.000000 0.9069 0.9068 0.9068 0.9066 0.9065
3433.000000 0.9062 0.9060 0.9058 0.9056 0.9054
3438.000000 0.9052 0.9050 0.9048 0.9045 0.9043
3443.000000 0.9041 0.9039 0.9037 0.9035 0.9032
3448.000000 0.9030 0.9028 0.9026 0.9024 0.9022
3453.000000 0.9020 0.9018 0.9015 0.9013 0.9011
3458.000000 0.9009 0.9007 0.9005 0.9002 0.9000
3463.000000 0.8998 0.8996 0.8994 0.8992 0.8990
3468.000000 0.8988 0.8985 0.8983 0.8981 0.8979
3473.000000 0.8976 0.8974 0.8970 0.8967 0.8963
3478.000000 0.8960 0.8956 0.8953 0.8949 0.8946
3483.000000 0.8942 0.8939 0.8935 0.8932 0.8928
3488.000000 0.8925 0.8921 0.8917 0.8913 0.8910
3493.000000 0.8906 0.8903 0.8899 0.8896 0.8892
3498.000000 0.8889 0.8885 0.8882 0.8878 0.8875
3503.000000 0.8871 0.8868 0.8864 0.8861 0.8857
3508.000000 0.8854 0.8850 0.8847 0.8844 0.8841
3513.000000 0.8837 0.8834 0.8830 0.8827 0.8824
3518.000000 0.8821 0.8817 0.8814 0.8811 0.8808
3523.000000 0.8804 0.8801 0.8797 0.8794 0.8791
3528.000000 0.8788 0.8788 0.8788 0.8788 0.8789
3533.000000 0.8789 0.8790 0.8790 0.8791 0.8791
3538.000000 0.8792 0.8792 0.8793 0.8793 0.8794
3543.000000 0.8794 0.8795 0.8796 0.8798 0.8800
3548.000000 0.8802 0.8804 0.8806 0.8808 0.8811
3553.000000 0.8813 0.8815 0.8817 0.8819 0.8821
3558.000000 0.8824 0.8826 0.8828 0.8830 0.8832
3563.000000 0.8834 0.8837 0.8839 0.8841 0.8843
3568.000000 0.8845 0.8847 0.8850 0.8853 0.8856
3573.000000 0.8859 0.8862 0.8865 0.8868 0.8871
3578.000000 0.8874 0.8876 0.8879 0.8882 0.8885
3583.000000 0.8888 0.8891 0.8894 0.8897 0.8899
3588.000000 0.8902 0.8905 0.8908 0.8911 0.8914
3593.000000 0.8917 0.8920 0.8923 0.8926 0.8928
3598.000000 0.8930 0.8932 0.8935 0.8937 0.8939
3603.000000 0.8941 0.8943 0.8945 0.8948 0.8950
3608.000000 0.8952 0.8954 0.8957 0.8959 0.8961
3613.000000 0.8963 0.8966 0.8968 0.8970 0.8972
3618.000000 0.8974 0.8976 0.8979 0.8981 0.8983
3623.000000 0.8985 0.8988 0.8990 0.8992 0.8993
3628.000000 0.8994 0.8995 0.8996 0.8997 0.8998
3633.000000 0.8998 0.8999 0.9000 0.9001 0.9002
3638.000000 0.9003 0.9003 0.9004 0.9005 0.9006
3643.000000 0.9007 0.9008 0.9008 0.9009 0.9010
3648.000000 0.9011 0.9012 0.9013 0.9010 0.9007
3653.000000 0.9003 0.9000 0.8997 0.8994 0.8991
3658.000000 0.8988 0.8984 0.8981 0.8978 0.8975
3663.000000 0.8972 0.8969 0.8965 0.8962 0.8959
3668.000000 0.8956 0.8951 0.8946 0.8941 0.8937
3673.000000 0.8932 0.8927 0.8922 0.8917 0.8912
3678.000000 0.8908 0.8903 0.8898 0.8893 0.8888
3683.000000 0.8883 0.8878 0.8873 0.8869 0.8864
3688.000000 0.8859 0.8854 0.8850 0.8846 0.8843
3693.000000 0.8841 0.8840 0.8846 0.8852 0.8858
3698.000000 0.8865 0.8871 0.8877 0.8883 0.8889
3703.000000 0.8895 0.8902 0.8908 0.8914 0.8920
3708.000000 0.8926 0.8931 0.8937 0.8942 0.8948
3713.000000 0.8954 0.8960 0.8965 0.8971 0.8976
3718.000000 0.8982 0.8984 0.8987 0.8988 0.8990
3723.000000 0.8991 0.8992 0.8993 0.8994 0.8995
3728.000000 0.8997 0.8998 0.8999 0.9000 0.9001
3733.000000 0.9001 0.9001 0.9001 0.9001 0.9001
3738.000000 0.9001 0.9001 0.9001 0.9001 0.9001
3743.000000 0.9001 0.9001 0.9001 0.9001 0.9000
3748.000000 0.9000 0.9000 0.9000 0.9000 0.9000
3753.000000 0.9000 0.9000 0.8999 0.8999 0.8998
3758.000000 0.8997 0.8996 0.8996 0.8995 0.8995
3763.000000 0.8994 0.8993 0.8992 0.8992 0.8991
3768.000000 0.8991 0.8990 0.8989 0.8988 0.8988
3773.000000 0.8987 0.8986 0.8985 0.8985 0.8984
3778.000000 0.8984 0.8983 0.8982 0.8981 0.8981
3783.000000 0.8980 0.8980 0.8979 0.8978 0.8977
3788.000000 0.8977 0.8976 0.8975 0.8974 0.8974
3793.000000 0.8973 0.8972 0.8971 0.8970 0.8969
3798.000000 0.8969 0.8968 0.8967 0.8966 0.8966
3803.000000 0.8965 0.8964 0.8963 0.8963 0.8962
3808.000000 0.8961 0.8960 0.8960 0.8959 0.8958
3813.000000 0.8957 0.8956 0.8955 0.8955 0.8954
3818.000000 0.8953 0.8953 0.8953 0.8954 0.8955
3823.000000 0.8956 0.8958 0.8959 0.8960 0.8961
3828.000000 0.8963 0.8964 0.8966 0.8967 0.8968
3833.000000 0.8969 0.8971 0.8972 0.8973 0.8974
3838.000000 0.8976 0.8977 0.8979 0.8980 0.8981
3843.000000 0.8982 0.8984 0.8985 0.8986 0.8987
3848.000000 0.8988 0.8989 0.8990 0.8991 0.8992
3853.000000 0.8993 0.8994 0.8995 0.8996 0.8997
3858.000000 0.8998 0.8999 0.9000 0.9001 0.9002
3863.000000 0.9003 0.9005 0.9006 0.9007 0.9008
3868.000000 0.9009 0.9009 0.9009 0.9007 0.9005
3873.000000 0.9003 0.9001 0.8998 0.8996 0.8994
3878.000000 0.8992 0.8990 0.8988 0.8986 0.8984
3883.000000 0.8982 0.8980 0.8978 0.8976 0.8974
3888.000000 0.8972 0.8967 0.8963 0.8958 0.8954
3893.000000 0.8949 0.8945 0.8940 0.8935 0.8930
3898.000000 0.8926 0.8921 0.8917 0.8912 0.8907
3903.000000 0.8902 0.8898 0.8893 0.8889 0.8884
3908.000000 0.8879 0.8876 0.8873 0.8871 0.8869
3913.000000 0.8867 0.8865 0.8863 0.8861 0.8859
3918.000000 0.8857 0.8854 0.8852 0.8850 0.8848
3923.000000 0.8846 0.8844 0.8842 0.8840 0.8838
3928.000000 0.8836 0.8835 0.8834 0.8837 0.8841
3933.000000 0.8844 0.8848 0.8851 0.8855 0.8858
3938.000000 0.8862 0.8865 0.8869 0.8873 0.8877
3943.000000 0.8880 0.8884 0.8887 0.8891 0.8894
3948.000000 0.8898 0.8901 0.8904 0.8906 0.8909
3953.000000 0.8911 0.8914 0.8916 0.8919 0.8921
3958.000000 0.8924 0.8926 0.8929 0.8931 0.8934
3963.000000 0.8934 0.8935 0.8935 0.8936 0.8936
3968.000000 0.8936 0.8936 0.8937 0.8937 0.8938
3973.000000 0.8938 0.8939 0.8939 0.8940 0.8940
3978.000000 0.8941 0.8941 0.8942 0.8942 0.8943
3983.000000 0.8943 0.8944 0.8944 0.8945 0.8945
3988.000000 0.8946 0.8946 0.8947 0.8947 0.8947
3993.000000 0.8947 0.8948 0.8948 0.8949 0.8949
3998.000000 0.8950 0.8950 0.8951 0.8951 0.8952
4003.000000 0.8952 0.8952
##END=
