##TITLE=PROPANE, 2-CHLORO-2-METHYL-
##JCAMP-DX=4.24
##DATA TYPE=INFRARED SPECTRUM
##CLASS=COBLENTZ III
##ORIGIN=STANDARD OIL OF OHIO
##OWNER=COBLENTZ SOCIETY
Collection (C) 2018 copyright by the U.S. Secretary of Commerce
on behalf of the United States of America. All rights reserved.
##DATE=Not specified, most likely prior to 1970
##NAMES=2-chloro-2-methylpropane
##CAS REGISTRY NO=507-20-0
##MOLFORM=C4 H9 Cl
##SOURCE REFERENCE=COBLENTZ NO. 4360
##$NIST SOURCE=COBLENTZ
##$NIST IMAGE=cob4360
##SPECTROMETER/DATA SYSTEM=PERKIN-ELMER 521 (GRATING)
##INSTRUMENT PARAMETERS=FILTERS AT 3150, 2500, 2000, 1150, 700, 410; GRATING CHANGES AT 2000, 630 CM^-^1
##STATE=LIQUID (NEAT)
##PATH LENGTH=0.003 CM
##SAMPLING PROCEDURE=TRANSMISSION
##RESOLUTION=4
##DATA PROCESSING=DIGITIZED BY NIST FROM HARD COPY (FROM TWO SEGMENTS)
##XUNITS=1/CM
##YUNITS=TRANSMITTANCE
##XFACTOR=1.000000
##YFACTOR=1
##DELTAX=1.350339
##FIRSTX=337.734
##LASTX=3897.23
##FIRSTY=0.723
##MAXX=3897.23
##MINX=337.734
##MAXY=0.959
##MINY=0.008
##NPOINTS=2637
##XYDATA=(X++(Y..Y))
337.734000 0.7230 0.7230 0.7230 0.7230 0.7220
344.485696 0.7220 0.7220 0.7200 0.7200 0.7200
351.237391 0.7200 0.7180 0.7180 0.7180 0.7180
357.989087 0.7180 0.7180 0.7180 0.7180 0.7180
364.740782 0.7180 0.7180 0.7180 0.7160 0.7150
371.492478 0.7150 0.7150 0.7130 0.7130 0.7130
378.244173 0.7130 0.7130 0.7130 0.7130 0.7130
384.995869 0.7110 0.7110 0.7110 0.7110 0.7110
391.747564 0.7110 0.7110 0.7100 0.7080 0.7080
398.499260 0.7060 0.7050 0.7050 0.7050 0.7050
405.250955 0.7050 0.7050 0.7030 0.7030 0.7030
412.002651 0.7030 0.7030 0.7030 0.7030 0.7010
418.754346 0.7000 0.6930 0.6860 0.6840 0.6810
425.506042 0.6790 0.6760 0.6740 0.6710 0.6660
432.257737 0.6590 0.6400 0.6250 0.6080 0.6010
439.009433 0.5841 0.5691 0.5183 0.4842 0.4542
445.761128 0.4200 0.4010 0.3790 0.3451 0.3061
452.512824 0.2861 0.2542 0.2401 0.2112 0.1931
459.264519 0.1790 0.1690 0.1500 0.1330 0.1250
466.016215 0.1200 0.1130 0.1060 0.1000 0.0980
472.767910 0.0960 0.0960 0.0940 0.0940 0.0930
479.519606 0.0930 0.0930 0.0940 0.0940 0.0960
486.271301 0.0980 0.0980 0.1000 0.1000 0.1000
493.022997 0.1010 0.1010 0.1010 0.1010 0.1010
499.774692 0.1030 0.1030 0.1030 0.1050 0.1060
506.526388 0.1080 0.1110 0.1150 0.1180 0.1220
513.278083 0.1230 0.1250 0.1300 0.1320 0.1350
520.029779 0.1380 0.1420 0.1490 0.1500 0.1540
526.781474 0.1590 0.1620 0.1660 0.1670 0.1710
533.533170 0.1760 0.1770 0.1790 0.1810 0.1830
540.284865 0.1830 0.1840 0.1860 0.1860 0.1840
547.036561 0.1810 0.1740 0.1670 0.1610 0.1501
553.788256 0.1370 0.1230 0.1000 0.0860 0.0671
560.539952 0.0550 0.0520 0.0440 0.0420 0.0420
567.291647 0.0400 0.0400 0.0400 0.0400 0.0420
574.043343 0.0520 0.0719 0.0889 0.0999 0.1079
580.795038 0.1380 0.1620 0.1880 0.2099 0.2399
587.546734 0.2669 0.2998 0.3159 0.3398 0.3618
594.298430 0.3860 0.4080 0.4150 0.4250 0.4330
601.050125 0.4449 0.4549 0.4689 0.4829 0.5009
607.801821 0.5180 0.5270 0.5420 0.5500 0.5570
614.553516 0.5660 0.5740 0.5879 0.6009 0.6079
621.305212 0.6160 0.6220 0.6280 0.6320 0.6380
628.056907 0.6500 0.6570 0.6660 0.6759 0.6879
634.808603 0.7010 0.7030 0.7100 0.7160 0.7220
641.560298 0.7320 0.7370 0.7420 0.7688 0.7710
648.311994 0.7760 0.7790 0.7860 0.7890 0.7930
655.063689 0.7940 0.8000 0.8010 0.8050 0.8050
661.815385 0.8050 0.8060 0.8080 0.8180 0.8250
668.567080 0.8280 0.8300 0.8320 0.8330 0.8370
675.318776 0.8380 0.8400 0.8420 0.8500 0.8540
682.070471 0.8570 0.8610 0.8640 0.8640 0.8660
688.822167 0.8670 0.8690 0.8710 0.8720 0.8760
695.573862 0.8790 0.8810 0.8830 0.8840 0.8840
702.325558 0.8860 0.8880 0.8880 0.8890 0.8910
709.077253 0.8930 0.8940 0.8960 0.9000 0.9000
715.828949 0.9010 0.9010 0.9010 0.9030 0.9030
722.580644 0.9030 0.9030 0.9030 0.9010 0.9010
729.332340 0.9010 0.9010 0.9000 0.9000 0.9000
736.084035 0.9000 0.9000 0.9000 0.9010 0.9010
742.835731 0.9010 0.9030 0.9030 0.9060 0.9110
749.587426 0.9130 0.9160 0.9220 0.9230 0.9250
756.339122 0.9250 0.9250 0.9250 0.9230 0.9230
763.090817 0.9220 0.9200 0.9200 0.9180 0.9180
769.842513 0.9160 0.9160 0.9150 0.9130 0.9130
776.594208 0.9100 0.9060 0.9030 0.9010 0.8940
783.345904 0.8890 0.8830 0.8770 0.8690 0.8590
790.097599 0.8500 0.8271 0.8101 0.7842 0.7522
796.849295 0.7000 0.6540 0.6051 0.3835 0.3102
803.600990 0.2403 0.1673 0.1640 0.1670 0.2008
810.352686 0.2330 0.2670 0.2999 0.3299 0.4277
817.104381 0.5077 0.5369 0.5638 0.6296 0.6836
823.856077 0.7350 0.7670 0.8009 0.8150 0.8300
830.607772 0.8439 0.8549 0.8709 0.8789 0.8859
837.359468 0.9010 0.9050 0.9100 0.9160 0.9220
844.111164 0.9270 0.9280 0.9300 0.9330 0.9350
850.862859 0.9380 0.9400 0.9400 0.9420 0.9420
857.614555 0.9420 0.9420 0.9440 0.9440 0.9440
864.366250 0.9440 0.9440 0.9420 0.9420 0.9400
871.117946 0.9380 0.9380 0.9370 0.9350 0.9350
877.869641 0.9350 0.9330 0.9330 0.9330 0.9330
884.621337 0.9330 0.9330 0.9330 0.9350 0.9350
891.373032 0.9350 0.9350 0.9330 0.9330 0.9300
898.124728 0.9280 0.9250 0.9220 0.9180 0.9111
904.876423 0.9050 0.9010 0.8880 0.8830 0.8760
911.628119 0.8720 0.8720 0.8770 0.8810 0.8840
918.379814 0.8910 0.8960 0.9060 0.9130 0.9160
925.131510 0.9200 0.9230 0.9270 0.9320 0.9330
931.883205 0.9370 0.9380 0.9380 0.9400 0.9400
938.634901 0.9400 0.9400 0.9400 0.9400 0.9400
945.386596 0.9400 0.9400 0.9400 0.9400 0.9420
952.138292 0.9420 0.9420 0.9420 0.9420 0.9420
958.889987 0.9420 0.9420 0.9420 0.9420 0.9420
965.641683 0.9420 0.9420 0.9400 0.9400 0.9400
972.393378 0.9400 0.9400 0.9420 0.9420 0.9420
979.145074 0.9420 0.9400 0.9400 0.9400 0.9400
985.896769 0.9400 0.9400 0.9400 0.9400 0.9400
992.648465 0.9400 0.9400 0.9380 0.9380 0.9380
999.400160 0.9380 0.9380 0.9370 0.9350 0.9330
1006.151856 0.9320 0.9300 0.9280 0.9280 0.9270
1012.903551 0.9250 0.9250 0.9250 0.9250 0.9230
1019.655247 0.9220 0.9200 0.9200 0.9200 0.9200
1026.406942 0.9200 0.9200 0.9200 0.9200 0.9200
1033.158638 0.9200 0.9200 0.9200 0.9200 0.9200
1039.910333 0.9200 0.9200 0.9180 0.9180 0.9180
1046.662029 0.9200 0.9200 0.9200 0.9200 0.9220
1053.413724 0.9220 0.9220 0.9220 0.9220 0.9220
1060.165420 0.9200 0.9180 0.9160 0.9150 0.9150
1066.917115 0.9150 0.9130 0.9130 0.9130 0.9130
1073.668811 0.9130 0.9130 0.9130 0.9130 0.9130
1080.420506 0.9110 0.9100 0.9060 0.9030 0.9010
1087.172202 0.9010 0.8940 0.8890 0.8860 0.8771
1093.923898 0.8710 0.8620 0.8540 0.8500 0.8380
1100.675593 0.8250 0.8111 0.7941 0.7811 0.7711
1107.427289 0.7540 0.7370 0.7180 0.6931 0.6691
1114.178984 0.6501 0.6162 0.5384 0.5082 0.4554
1120.930680 0.4180 0.3760 0.3380 0.3101 0.2721
1127.682375 0.2421 0.2181 0.2011 0.1712 0.1660
1134.434071 0.1500 0.1350 0.1230 0.0961 0.0890
1141.185766 0.0860 0.0830 0.0790 0.0691 0.0621
1147.937462 0.0540 0.0520 0.0500 0.0500 0.0490
1154.689157 0.0490 0.0490 0.0500 0.0500 0.0540
1161.440853 0.0660 0.0760 0.0890 0.1010 0.1319
1168.192548 0.1689 0.2108 0.2498 0.3007 0.3219
1174.944244 0.3610 0.3940 0.4130 0.4320 0.4499
1181.695939 0.4689 0.4829 0.4910 0.5009 0.5050
1188.447635 0.5080 0.5110 0.5150 0.5180 0.5220
1195.199330 0.5230 0.5250 0.5270 0.5280 0.5280
1201.951026 0.5270 0.5270 0.5270 0.5280 0.5320
1208.702721 0.5370 0.5400 0.5440 0.5470 0.5490
1215.454417 0.5500 0.5490 0.5420 0.5350 0.5230
1222.206112 0.5031 0.4761 0.4521 0.4232 0.4012
1228.957808 0.3610 0.3230 0.2661 0.2151 0.1721
1235.709503 0.1301 0.1300 0.1499 0.2315 0.3532
1242.461199 0.4690 0.5150 0.5609 0.6538 0.6879
1249.212894 0.7348 0.7609 0.7859 0.8029 0.8199
1255.964590 0.8230 0.8300 0.8420 0.8450 0.8500
1262.716285 0.8540 0.8590 0.8620 0.8640 0.8660
1269.467981 0.8670 0.8710 0.8720 0.8760 0.8770
1276.219676 0.8790 0.8790 0.8810 0.8810 0.8830
1282.971372 0.8830 0.8840 0.8840 0.8840 0.8860
1289.723067 0.8860 0.8860 0.8860 0.8860 0.8880
1296.474763 0.8880 0.8880 0.8880 0.8880 0.8880
1303.226458 0.8880 0.8860 0.8860 0.8860 0.8840
1309.978154 0.8840 0.8810 0.8790 0.8770 0.8760
1316.729849 0.8740 0.8720 0.8690 0.8660 0.8620
1323.481545 0.8590 0.8520 0.8500 0.8400 0.8330
1330.233240 0.8230 0.8160 0.8130 0.8080 0.8050
1336.984936 0.8030 0.8010 0.7890 0.7860 0.7740
1343.736632 0.7610 0.7520 0.7351 0.7181 0.7051
1350.488327 0.6720 0.6380 0.6050 0.5162 0.4522
1357.240023 0.4062 0.3224 0.2613 0.1815 0.0728
1363.991718 0.0570 0.0380 0.0370 0.0370 0.0470
1370.743414 0.0610 0.0889 0.1328 0.1767 0.2634
1377.495109 0.3301 0.4520 0.4690 0.4860 0.5010
1384.246805 0.5179 0.5319 0.5280 0.5101 0.5030
1390.998500 0.4610 0.4200 0.4180 0.4589 0.5059
1397.750196 0.5299 0.5539 0.6395 0.6857 0.6880
1404.501891 0.6940 0.7010 0.7100 0.7160 0.7220
1411.253587 0.7220 0.7220 0.7200 0.7180 0.7180
1418.005282 0.7110 0.7100 0.7030 0.6910 0.6790
1424.756978 0.6621 0.6520 0.6281 0.6012 0.5811
1431.508673 0.5270 0.5060 0.4930 0.4840 0.4670
1438.260369 0.4501 0.4181 0.3911 0.3552 0.3232
1445.012064 0.2910 0.2610 0.2330 0.1771 0.1231
1451.763760 0.1180 0.1230 0.1280 0.1379 0.1489
1458.515455 0.1740 0.1940 0.2010 0.2439 0.2809
1465.267151 0.2999 0.3010 0.3000 0.2404 0.1834
1472.018846 0.1830 0.2160 0.2200 0.3128 0.3788
1478.770542 0.4587 0.5048 0.5299 0.5549 0.5927
1485.522237 0.6380 0.6660 0.7030 0.7200 0.7250
1492.273933 0.7400 0.7539 0.7839 0.7880 0.8029
1499.025628 0.8080 0.8200 0.8320 0.8440 0.8620
1505.777324 0.8660 0.8660 0.8670 0.8670 0.8710
1512.529019 0.8720 0.8810 0.8840 0.8860 0.8930
1519.280715 0.8980 0.9010 0.9030 0.9050 0.9060
1526.032410 0.9060 0.9080 0.9080 0.9100 0.9110
1532.784106 0.9130 0.9130 0.9160 0.9200 0.9250
1539.535801 0.9250 0.9250 0.9250 0.9250 0.9270
1546.287497 0.9270 0.9280 0.9300 0.9300 0.9300
1553.039192 0.9320 0.9320 0.9320 0.9330 0.9320
1559.790888 0.9320 0.9330 0.9330 0.9330 0.9330
1566.542583 0.9330 0.9330 0.9330 0.9330 0.9330
1573.294279 0.9330 0.9330 0.9330 0.9330 0.9330
1580.045974 0.9330 0.9330 0.9330 0.9330 0.9320
1586.797670 0.9320 0.9320 0.9320 0.9300 0.9300
1593.549366 0.9300 0.9280 0.9280 0.9280 0.9280
1600.301061 0.9280 0.9280 0.9270 0.9270 0.9280
1607.052757 0.9280 0.9280 0.9280 0.9280 0.9280
1613.804452 0.9280 0.9280 0.9280 0.9280 0.9280
1620.556148 0.9280 0.9280 0.9280 0.9280 0.9280
1627.307843 0.9270 0.9270 0.9270 0.9270 0.9270
1634.059539 0.9270 0.9250 0.9230 0.9230 0.9230
1640.811234 0.9220 0.9220 0.9220 0.9220 0.9200
1647.562930 0.9180 0.9180 0.9160 0.9150 0.9130
1654.314625 0.9130 0.9130 0.9130 0.9110 0.9110
1661.066321 0.9110 0.9100 0.9100 0.9080 0.9080
1667.818016 0.9060 0.9050 0.9030 0.9010 0.9010
1674.569712 0.9010 0.9010 0.9000 0.9000 0.9000
1681.321407 0.9000 0.9000 0.9000 0.8980 0.8980
1688.073103 0.8980 0.8980 0.8980 0.8980 0.8980
1694.824798 0.8960 0.8960 0.8960 0.8940 0.8930
1701.576494 0.8910 0.8890 0.8880 0.8860 0.8840
1708.328189 0.8830 0.8810 0.8790 0.8760 0.8740
1715.079885 0.8720 0.8690 0.8670 0.8610 0.8570
1721.831580 0.8550 0.8540 0.8520 0.8520 0.8520
1728.583276 0.8540 0.8550 0.8570 0.8610 0.8620
1735.334971 0.8640 0.8670 0.8710 0.8770 0.8790
1742.086667 0.8860 0.8910 0.8940 0.9030 0.9100
1748.838362 0.9110 0.9110 0.9130 0.9130 0.9130
1755.590058 0.9150 0.9150 0.9150 0.9150 0.9150
1762.341753 0.9150 0.9150 0.9160 0.9180 0.9200
1769.093449 0.9230 0.9270 0.9280 0.9280 0.9280
1775.845144 0.9300 0.9300 0.9300 0.9300 0.9300
1782.596840 0.9300 0.9300 0.9300 0.9300 0.9300
1789.348535 0.9280 0.9280 0.9270 0.9230 0.9220
1796.100231 0.9180 0.9160 0.9150 0.9130 0.9130
1802.851926 0.9130 0.9130 0.9150 0.9160 0.9180
1809.603622 0.9220 0.9230 0.9270 0.9280 0.9300
1816.355317 0.9330 0.9350 0.9350 0.9370 0.9370
1823.107013 0.9380 0.9380 0.9380 0.9370 0.9370
1829.858708 0.9370 0.9370 0.9370 0.9350 0.9350
1836.610404 0.9330 0.9320 0.9320 0.9300 0.9280
1843.362100 0.9280 0.9250 0.9230 0.9230 0.9230
1850.113795 0.9250 0.9250 0.9280 0.9300 0.9330
1856.865491 0.9350 0.9380 0.9400 0.9400 0.9420
1863.617186 0.9440 0.9450 0.9450 0.9450 0.9450
1870.368882 0.9450 0.9450 0.9450 0.9470 0.9470
1877.120577 0.9450 0.9450 0.9450 0.9470 0.9470
1883.872273 0.9470 0.9490 0.9490 0.9490 0.9490
1890.623968 0.9490 0.9490 0.9500 0.9500 0.9500
1897.375664 0.9500 0.9500 0.9500 0.9500 0.9500
1904.127359 0.9500 0.9520 0.9520 0.9520 0.9520
1910.879055 0.9520 0.9520 0.9520 0.9520 0.9520
1917.630750 0.9520 0.9520 0.9520 0.9520 0.9520
1924.382446 0.9520 0.9520 0.9520 0.9520 0.9520
1931.134141 0.9520 0.9520 0.9520 0.9520 0.9520
1937.885837 0.9500 0.9500 0.9490 0.9470 0.9470
1944.637532 0.9450 0.9450 0.9440 0.9420 0.9420
1951.389228 0.9400 0.9380 0.9380 0.9370 0.9370
1958.140923 0.9370 0.9380 0.9380 0.9400 0.9400
1964.892619 0.9420 0.9440 0.9440 0.9450 0.9450
1971.644314 0.9490 0.9500 0.9500 0.9520 0.9520
1978.396010 0.9520 0.9520 0.9520 0.9520 0.9520
1985.147705 0.9520 0.9520 0.9520 0.9520 0.9520
1991.899401 0.9520 0.9540 0.9540 0.9540 0.9550
1998.651096 0.9550 0.9570 0.9570 0.9570 0.9570
2005.402792 0.9570 0.9570 0.9570 0.9570 0.9570
2012.154487 0.9570 0.9570 0.9570 0.9570 0.9570
2018.906183 0.9570 0.9570 0.9570 0.9570 0.9570
2025.657878 0.9570 0.9570 0.9570 0.9570 0.9570
2032.409574 0.9570 0.9570 0.9570 0.9570 0.9570
2039.161269 0.9570 0.9570 0.9570 0.9570 0.9570
2045.912965 0.9570 0.9570 0.9570 0.9570 0.9570
2052.664660 0.9570 0.9570 0.9570 0.9570 0.9570
2059.416356 0.9570 0.9570 0.9570 0.9570 0.9570
2066.168051 0.9570 0.9570 0.9570 0.9570 0.9570
2072.919747 0.9570 0.9579 0.9589 0.9590 0.9590
2079.671442 0.9590 0.9590 0.9590 0.9590 0.9590
2086.423138 0.9590 0.9581 0.9571 0.9570 0.9570
2093.174834 0.9570 0.9570 0.9570 0.9570 0.9570
2099.926529 0.9570 0.9561 0.9551 0.9550 0.9550
2106.678225 0.9550 0.9550 0.9550 0.9550 0.9550
2113.429920 0.9550 0.9550 0.9550 0.9545 0.9540
2120.181616 0.9531 0.9521 0.9520 0.9520 0.9520
2126.933311 0.9520 0.9511 0.9501 0.9500 0.9500
2133.685007 0.9500 0.9500 0.9495 0.9490 0.9490
2140.436702 0.9490 0.9472 0.9452 0.9427 0.9402
2147.188398 0.9391 0.9381 0.9366 0.9352 0.9337
2153.940093 0.9322 0.9302 0.9282 0.9276 0.9271
2160.691789 0.9261 0.9251 0.9205 0.9155 0.9109
2167.443484 0.9064 0.9024 0.8984 0.8949 0.8914
2174.195180 0.8901 0.8891 0.8908 0.8928 0.9027
2180.946875 0.9137 0.9225 0.9310 0.9394 0.9479
2187.698571 0.9494 0.9499 0.9518 0.9538 0.9540
2194.450266 0.9540 0.9553 0.9568 0.9570 0.9570
2201.201962 0.9570 0.9570 0.9570 0.9570 0.9579
2207.953657 0.9589 0.9590 0.9590 0.9590 0.9590
2214.705353 0.9590 0.9590 0.9581 0.9571 0.9570
2221.457048 0.9570 0.9570 0.9570 0.9570 0.9570
2228.208744 0.9561 0.9551 0.9550 0.9550 0.9546
2234.960439 0.9541 0.9540 0.9540 0.9540 0.9540
2241.712135 0.9540 0.9540 0.9531 0.9521 0.9520
2248.463830 0.9520 0.9520 0.9520 0.9520 0.9520
2255.215526 0.9512 0.9502 0.9500 0.9500 0.9496
2261.967221 0.9491 0.9490 0.9490 0.9469 0.9444
2268.718917 0.9432 0.9422 0.9403 0.9383 0.9359
2275.470612 0.9334 0.9305 0.9275 0.9241 0.9206
2282.222308 0.9171 0.9136 0.9097 0.9057 0.9013
2288.974003 0.8968 0.8927 0.8887 0.8880 0.8880
2295.725699 0.8933 0.8999 0.9068 0.9138 0.9204
2302.477394 0.9269 0.9358 0.9453 0.9478 0.9488
2309.229090 0.9494 0.9499 0.9500 0.9500 0.9508
2315.980785 0.9518 0.9528 0.9538 0.9540 0.9540
2322.732481 0.9552 0.9567 0.9570 0.9570 0.9570
2329.484176 0.9570 0.9562 0.9552 0.9550 0.9550
2336.235872 0.9546 0.9541 0.9540 0.9540 0.9540
2342.987568 0.9540 0.9532 0.9522 0.9512 0.9502
2349.739263 0.9496 0.9491 0.9490 0.9490 0.9470
2356.490959 0.9445 0.9432 0.9422 0.9412 0.9402
2363.242654 0.9392 0.9382 0.9376 0.9371 0.9354
2369.994350 0.9334 0.9326 0.9321 0.9312 0.9302
2376.746045 0.9292 0.9282 0.9260 0.9235 0.9210
2383.497741 0.9185 0.9160 0.9136 0.9111 0.9086
2390.249436 0.9053 0.9018 0.9006 0.9001 0.9004
2397.001132 0.9009 0.9082 0.9177 0.9208 0.9218
2403.752827 0.9239 0.9264 0.9289 0.9314 0.9324
2410.504523 0.9329 0.9349 0.9374 0.9395 0.9415
2417.256218 0.9428 0.9438 0.9444 0.9449 0.9457
2424.007914 0.9467 0.9477 0.9487 0.9490 0.9490
2430.759609 0.9490 0.9490 0.9490 0.9490 0.9490
2437.511305 0.9490 0.9490 0.9490 0.9490 0.9490
2444.263000 0.9490 0.9490 0.9490 0.9490 0.9490
2451.014696 0.9490 0.9490 0.9490 0.9483 0.9473
2457.766391 0.9477 0.9487 0.9490 0.9490 0.9494
2464.518087 0.9499 0.9500 0.9500 0.9496 0.9491
2471.269782 0.9490 0.9490 0.9490 0.9490 0.9490
2478.021478 0.9490 0.9490 0.9490 0.9490 0.9490
2484.773173 0.9490 0.9490 0.9490 0.9490 0.9490
2491.524869 0.9490 0.9490 0.9490 0.9490 0.9490
2498.276564 0.9490 0.9490 0.9494 0.9499 0.9500
2505.028260 0.9500 0.9500 0.9500 0.9500 0.9500
2511.779955 0.9500 0.9500 0.9500 0.9500 0.9500
2518.531651 0.9500 0.9500 0.9500 0.9500 0.9500
2525.283346 0.9500 0.9500 0.9497 0.9492 0.9490
2532.035042 0.9490 0.9490 0.9490 0.9490 0.9490
2538.786737 0.9490 0.9490 0.9483 0.9473 0.9470
2545.538433 0.9470 0.9463 0.9453 0.9450 0.9450
2552.290128 0.9447 0.9442 0.9440 0.9440 0.9440
2559.041824 0.9440 0.9433 0.9423 0.9413 0.9403
2565.793519 0.9400 0.9400 0.9393 0.9383 0.9377
2572.545215 0.9372 0.9363 0.9353 0.9343 0.9333
2579.296910 0.9327 0.9322 0.9313 0.9303 0.9290
2586.048606 0.9275 0.9257 0.9237 0.9220 0.9205
2592.800302 0.9184 0.9158 0.9137 0.9117 0.9107
2599.551997 0.9102 0.9110 0.9125 0.9137 0.9147
2606.303693 0.9153 0.9158 0.9160 0.9160 0.9157
2613.055388 0.9152 0.9144 0.9134 0.9124 0.9114
2619.807084 0.9107 0.9102 0.9087 0.9067 0.9057
2626.558779 0.9052 0.9066 0.9091 0.9110 0.9125
2633.310475 0.9152 0.9187 0.9225 0.9265 0.9286
2640.062170 0.9296 0.9294 0.9284 0.9277 0.9272
2646.813866 0.9264 0.9254 0.9240 0.9225 0.9207
2653.565561 0.9187 0.9171 0.9156 0.9150 0.9150
2660.317257 0.9144 0.9134 0.9124 0.9114 0.9110
2667.068952 0.9110 0.9110 0.9110 0.9107 0.9102
2673.820648 0.9094 0.9084 0.9071 0.9056 0.9038
2680.572343 0.9018 0.9010 0.9010 0.9022 0.9042
2687.324039 0.9059 0.9074 0.9086 0.9096 0.9103
2694.075734 0.9108 0.9110 0.9110 0.9107 0.9102
2700.827430 0.9094 0.9084 0.9071 0.9056 0.9038
2707.579125 0.9018 0.8986 0.8946 0.8852 0.8723
2714.330821 0.8575 0.8416 0.8335 0.8310 0.8315
2721.082516 0.8340 0.8385 0.8445 0.8525 0.8619
2727.834212 0.8712 0.8803 0.8888 0.8967 0.9000
2734.585907 0.9000 0.9015 0.9040 0.9050 0.9050
2741.337603 0.9053 0.9058 0.9060 0.9060 0.9060
2748.089298 0.9060 0.9066 0.9076 0.9080 0.9080
2754.840994 0.9086 0.9096 0.9100 0.9100 0.9094
2761.592689 0.9084 0.9071 0.9056 0.9039 0.9019
2768.344385 0.9002 0.8987 0.8955 0.8910 0.8857
2775.096080 0.8797 0.8748 0.8708 0.8690 0.8690
2781.847776 0.8690 0.8690 0.8690 0.8690 0.8684
2788.599471 0.8674 0.8667 0.8662 0.8635 0.8590
2795.351167 0.8543 0.8493 0.8443 0.8393 0.8343
2802.102862 0.8293 0.8225 0.8140 0.8044 0.7940
2808.854558 0.7887 0.7882 0.7880 0.7880 0.7850
2815.606253 0.7795 0.7756 0.7732 0.7720 0.7720
2822.357949 0.7717 0.7712 0.7699 0.7679 0.7649
2829.109644 0.7609 0.7551 0.7476 0.7378 0.7258
2835.861340 0.7125 0.6978 0.6873 0.6803 0.6741
2842.613035 0.6686 0.6618 0.6538 0.6409 0.6234
2849.364731 0.5886 0.5377 0.4922 0.4518 0.3999
2856.116427 0.3371 0.2992 0.2857 0.2747 0.2663
2862.868122 0.2620 0.2620 0.2849 0.3288 0.3500
2869.619818 0.3500 0.3469 0.3409 0.3324 0.3214
2876.371513 0.3122 0.3047 0.2955 0.2845 0.2741
2883.123209 0.2641 0.2536 0.2426 0.2304 0.2170
2889.874904 0.2041 0.1920 0.1809 0.1710 0.1660
2896.626600 0.1660 0.1672 0.1697 0.1735 0.1785
2903.378295 0.1827 0.1862 0.1880 0.1880 0.1842
2910.129991 0.1762 0.1601 0.1352 0.1140 0.0970
2916.881686 0.0835 0.0739 0.0643 0.0549 0.0500
2923.633382 0.0500 0.0558 0.0678 0.0781 0.0865
2930.385077 0.0950 0.1035 0.1155 0.1315 0.1303
2937.136773 0.1093 0.0948 0.0878 0.0840 0.0840
2943.888468 0.0877 0.0958 0.1036 0.1110 0.1202
2950.640164 0.1312 0.1230 0.0931 0.0708 0.0573
2957.391859 0.0427 0.0267 0.0162 0.0122 0.0096
2964.143555 0.0086 0.0080 0.0080 0.0080 0.0080
2970.895250 0.0084 0.0095 0.0100 0.0100 0.0100
2977.646946 0.0100 0.0102 0.0107 0.0135 0.0189
2984.398641 0.0255 0.0335 0.0466 0.0660 0.0863
2991.150337 0.1078 0.1288 0.1493 0.1876 0.2500
2997.902032 0.3106 0.3688 0.4215 0.4674 0.5023
3004.653728 0.5232 0.5440 0.5644 0.5935 0.6339
3011.405423 0.6662 0.6877 0.7074 0.7249 0.7417
3018.157119 0.7577 0.7738 0.7903 0.8037 0.8127
3024.908814 0.8205 0.8265 0.8330 0.8400 0.8457
3031.660510 0.8497 0.8541 0.8591 0.8635 0.8670
3038.412205 0.8704 0.8739 0.8774 0.8809 0.8840
3045.163901 0.8865 0.8890 0.8915 0.8944 0.8979
3051.915596 0.9002 0.9007 0.9014 0.9024 0.9036
3058.667292 0.9051 0.9064 0.9074 0.9084 0.9094
3065.418987 0.9102 0.9107 0.9110 0.9110 0.9114
3072.170683 0.9124 0.9136 0.9151 0.9164 0.9174
3078.922378 0.9184 0.9194 0.9200 0.9200 0.9204
3085.674074 0.9214 0.9220 0.9220 0.9222 0.9227
3092.425769 0.9230 0.9230 0.9230 0.9230 0.9234
3099.177465 0.9244 0.9250 0.9250 0.9250 0.9250
3105.929161 0.9250 0.9250 0.9254 0.9264 0.9270
3112.680856 0.9270 0.9270 0.9270 0.9270 0.9270
3119.432552 0.9272 0.9277 0.9280 0.9280 0.9280
3126.184247 0.9280 0.9280 0.9280 0.9280 0.9280
3132.935943 0.9278 0.9273 0.9266 0.9256 0.9246
3139.687638 0.9236 0.9217 0.9182 0.9160 0.9160
3146.439334 0.9158 0.9153 0.9147 0.9137 0.9130
3153.191029 0.9130 0.9127 0.9117 0.9105 0.9090
3159.942725 0.9080 0.9080 0.9076 0.9066 0.9051
3166.694420 0.9026 0.9008 0.9003 0.9000 0.9000
3173.446116 0.8997 0.8987 0.8972 0.8947 0.8918
3180.197811 0.8884 0.8855 0.8840 0.8820 0.8790
3186.949507 0.8765 0.8750 0.8737 0.8727 0.8718
3193.701202 0.8713 0.8710 0.8710 0.8710 0.8710
3200.452898 0.8710 0.8710 0.8710 0.8710 0.8710
3207.204593 0.8710 0.8710 0.8710 0.8710 0.8710
3213.956289 0.8707 0.8697 0.8690 0.8690 0.8687
3220.707984 0.8677 0.8668 0.8663 0.8660 0.8660
3227.459680 0.8657 0.8647 0.8640 0.8640 0.8637
3234.211375 0.8627 0.8620 0.8620 0.8619 0.8614
3240.963071 0.8607 0.8597 0.8590 0.8590 0.8587
3247.714766 0.8577 0.8570 0.8570 0.8570 0.8570
3254.466462 0.8567 0.8557 0.8549 0.8544 0.8540
3261.218157 0.8540 0.8540 0.8540 0.8541 0.8546
3267.969853 0.8556 0.8576 0.8600 0.8635 0.8669
3274.721548 0.8699 0.8736 0.8791 0.8837 0.8862
3281.473244 0.8898 0.8963 0.9013 0.9023 0.9039
3288.224939 0.9074 0.9107 0.9132 0.9151 0.9156
3294.976635 0.9163 0.9173 0.9180 0.9180 0.9183
3301.728330 0.9193 0.9200 0.9200 0.9200 0.9200
3308.480026 0.9197 0.9187 0.9180 0.9180 0.9180
3315.231721 0.9180 0.9177 0.9168 0.9156 0.9141
3321.983417 0.9126 0.9111 0.9093 0.9068 0.9050
3328.735112 0.9050 0.9047 0.9037 0.9030 0.9030
3335.486808 0.9032 0.9042 0.9050 0.9050 0.9054
3342.238503 0.9069 0.9084 0.9099 0.9110 0.9110
3348.990199 0.9110 0.9110 0.9110 0.9110 0.9109
3355.741895 0.9104 0.9098 0.9088 0.9074 0.9049
3362.493590 0.9026 0.9012 0.8995 0.8975 0.8952
3369.245286 0.8917 0.8884 0.8860 0.8839 0.8834
3375.996981 0.8828 0.8818 0.8810 0.8810 0.8812
3382.748677 0.8822 0.8830 0.8830 0.8831 0.8836
3389.500372 0.8848 0.8883 0.8918 0.8952 0.8987
3396.252068 0.9022 0.9056 0.9086 0.9114 0.9134
3403.003763 0.9153 0.9168 0.9184 0.9204 0.9220
3409.755459 0.9220 0.9221 0.9226 0.9230 0.9230
3416.507154 0.9230 0.9230 0.9230 0.9230 0.9230
3423.258850 0.9230 0.9230 0.9230 0.9230 0.9230
3430.010545 0.9230 0.9230 0.9230 0.9230 0.9230
3436.762241 0.9230 0.9230 0.9230 0.9230 0.9230
3443.513936 0.9230 0.9230 0.9230 0.9230 0.9230
3450.265632 0.9230 0.9230 0.9230 0.9230 0.9230
3457.017327 0.9230 0.9230 0.9230 0.9230 0.9230
3463.769023 0.9230 0.9230 0.9230 0.9229 0.9224
3470.520718 0.9220 0.9220 0.9220 0.9220 0.9220
3477.272414 0.9220 0.9220 0.9220 0.9220 0.9220
3484.024109 0.9220 0.9220 0.9220 0.9220 0.9220
3490.775805 0.9220 0.9220 0.9220 0.9220 0.9220
3497.527500 0.9220 0.9220 0.9218 0.9208 0.9200
3504.279196 0.9200 0.9199 0.9189 0.9180 0.9180
3511.030891 0.9180 0.9180 0.9180 0.9180 0.9178
3517.782587 0.9168 0.9159 0.9154 0.9150 0.9150
3524.534282 0.9149 0.9139 0.9129 0.9119 0.9110
3531.285978 0.9110 0.9109 0.9104 0.9099 0.9089
3538.037673 0.9080 0.9080 0.9080 0.9080 0.9079
3544.789369 0.9069 0.9060 0.9060 0.9058 0.9043
3551.541064 0.9029 0.9019 0.9009 0.9004 0.9000
3558.292760 0.9000 0.8999 0.8989 0.8976 0.8941
3565.044455 0.8908 0.8893 0.8877 0.8857 0.8839
3571.796151 0.8834 0.8829 0.8819 0.8809 0.8799
3578.547846 0.8791 0.8801 0.8812 0.8827 0.8842
3585.299542 0.8862 0.8883 0.8907 0.8931 0.8946
3592.051237 0.8962 0.8988 0.9012 0.9032 0.9051
3598.802933 0.9056 0.9061 0.9071 0.9083 0.9108
3605.554629 0.9131 0.9146 0.9162 0.9182 0.9201
3612.306324 0.9211 0.9220 0.9225 0.9231 0.9241
3619.058020 0.9251 0.9261 0.9271 0.9275 0.9280
3625.809715 0.9280 0.9281 0.9291 0.9300 0.9300
3632.561411 0.9300 0.9300 0.9300 0.9300 0.9300
3639.313106 0.9300 0.9300 0.9300 0.9299 0.9289
3646.064802 0.9280 0.9280 0.9280 0.9280 0.9280
3652.816497 0.9280 0.9280 0.9280 0.9280 0.9280
3659.568193 0.9280 0.9280 0.9280 0.9280 0.9280
3666.319888 0.9280 0.9280 0.9280 0.9280 0.9280
3673.071584 0.9280 0.9280 0.9280 0.9280 0.9281
3679.823279 0.9291 0.9300 0.9300 0.9300 0.9300
3686.574975 0.9300 0.9300 0.9300 0.9310 0.9320
3693.326670 0.9320 0.9320 0.9325 0.9330 0.9330
3700.078366 0.9330 0.9330 0.9330 0.9330 0.9330
3706.830061 0.9330 0.9330 0.9330 0.9330 0.9330
3713.581757 0.9330 0.9330 0.9330 0.9330 0.9330
3720.333452 0.9330 0.9330 0.9325 0.9320 0.9320
3727.085148 0.9320 0.9320 0.9320 0.9320 0.9320
3733.836843 0.9320 0.9320 0.9320 0.9320 0.9310
3740.588539 0.9300 0.9300 0.9300 0.9300 0.9300
3747.340234 0.9290 0.9280 0.9280 0.9280 0.9280
3754.091930 0.9280 0.9280 0.9280 0.9275 0.9270
3760.843625 0.9260 0.9250 0.9250 0.9250 0.9240
3767.595321 0.9230 0.9230 0.9230 0.9225 0.9220
3774.347016 0.9220 0.9220 0.9220 0.9220 0.9220
3781.098712 0.9220 0.9220 0.9220 0.9220 0.9220
3787.850407 0.9225 0.9230 0.9230 0.9230 0.9230
3794.602103 0.9230 0.9230 0.9230 0.9230 0.9230
3801.353798 0.9230 0.9230 0.9230 0.9230 0.9225
3808.105494 0.9220 0.9210 0.9200 0.9200 0.9200
3814.857189 0.9190 0.9180 0.9180 0.9180 0.9180
3821.608885 0.9180 0.9170 0.9160 0.9160 0.9160
3828.360580 0.9160 0.9160 0.9160 0.9160 0.9160
3835.112276 0.9160 0.9160 0.9160 0.9160 0.9160
3841.863971 0.9160 0.9160 0.9160 0.9160 0.9160
3848.615667 0.9160 0.9160 0.9160 0.9160 0.9160
3855.367363 0.9160 0.9160 0.9160 0.9160 0.9155
3862.119058 0.9150 0.9150 0.9150 0.9140 0.9130
3868.870754 0.9120 0.9110 0.9086 0.9061 0.9055
3875.622449 0.9050 0.9031 0.9011 0.9005 0.9000
3882.374145 0.8981 0.8961 0.8951 0.8941 0.8940
3889.125840 0.8940 0.8940 0.8940 0.8940 0.8940
3895.877536 0.8940 0.8940
##END=
