##TITLE=Carbamic acid, ethyl ester
##JCAMP-DX=4.24
$$ By DXEDIT 1.05 (RS McDonald)
##DATA TYPE=INFRARED SPECTRUM
##CLASS=COBLENTZ III
##ORIGIN=DOW CHEMICAL COMPANY
##OWNER=COPYRIGHT (C) 1988 by COBLENTZ SOCIETY INC.
Collection (C) 2018 copyright by the U.S. Secretary of Commerce
on behalf of the United States of America. All rights reserved.
##DATE=??/04/30
##NAMES=ethyl carbamate
##CAS REGISTRY NO=51-79-6
##MOLFORM=C3 H7 N O2
##SOURCE REFERENCE=COBLENTZ NO. 06390
##$NIST SOURCE=COBLENTZ
##$NIST IMAGE=cob6390
##SPECTROMETER/DATA SYSTEM=BECKMAN IR-9 (GRATING)
##INSTRUMENT PARAMETERS=ORDER CHANGES: 670, 1200, 2000 CM^-^1
##STATE=SOLID (SPLIT MULL)
##SAMPLING PROCEDURE=TRANSMISSION
##RESOLUTION=2
##DATA PROCESSING=DIGITIZED BY COBLENTZ SOCIETY (BATCH I) FROM HARD COPY
##XUNITS=1/CM
##YUNITS=TRANSMITTANCE
##XFACTOR=1
##YFACTOR=1
##DELTAX=1
##FIRSTX=3814
##LASTX=402
##FIRSTY=0.8668
##MAXX=3814
##MINX=402
##MAXY=0.9078
##MINY=0.0178
##NPOINTS=3413
##XYDATA=(X++(Y..Y))
3814.000000 0.8668 0.8668 0.8668 0.8668 0.8668
3809.000000 0.8668 0.8668 0.8668 0.8668 0.8668
3804.000000 0.8668 0.8668 0.8670 0.8670 0.8670
3799.000000 0.8670 0.8670 0.8671 0.8671 0.8674
3794.000000 0.8677 0.8678 0.8681 0.8683 0.8685
3789.000000 0.8687 0.8690 0.8692 0.8694 0.8696
3784.000000 0.8698 0.8700 0.8702 0.8703 0.8705
3779.000000 0.8706 0.8708 0.8710 0.8712 0.8713
3774.000000 0.8715 0.8717 0.8718 0.8720 0.8721
3769.000000 0.8724 0.8725 0.8727 0.8728 0.8731
3764.000000 0.8733 0.8734 0.8735 0.8736 0.8737
3759.000000 0.8737 0.8738 0.8738 0.8739 0.8740
3754.000000 0.8741 0.8741 0.8742 0.8743 0.8744
3749.000000 0.8744 0.8745 0.8745 0.8746 0.8747
3744.000000 0.8748 0.8748 0.8749 0.8750 0.8751
3739.000000 0.8752 0.8753 0.8754 0.8756 0.8757
3734.000000 0.8759 0.8760 0.8762 0.8763 0.8765
3729.000000 0.8766 0.8768 0.8768 0.8771 0.8771
3724.000000 0.8774 0.8775 0.8777 0.8778 0.8780
3719.000000 0.8781 0.8783 0.8784 0.8786 0.8787
3714.000000 0.8789 0.8790 0.8791 0.8792 0.8794
3709.000000 0.8795 0.8796 0.8797 0.8799 0.8800
3704.000000 0.8801 0.8802 0.8804 0.8805 0.8806
3699.000000 0.8807 0.8809 0.8810 0.8811 0.8811
3694.000000 0.8811 0.8811 0.8812 0.8812 0.8812
3689.000000 0.8812 0.8812 0.8812 0.8813 0.8813
3684.000000 0.8813 0.8813 0.8813 0.8813 0.8813
3679.000000 0.8813 0.8814 0.8814 0.8814 0.8813
3674.000000 0.8813 0.8812 0.8811 0.8810 0.8809
3669.000000 0.8808 0.8808 0.8807 0.8806 0.8805
3664.000000 0.8804 0.8803 0.8803 0.8802 0.8801
3659.000000 0.8800 0.8800 0.8799 0.8798 0.8797
3654.000000 0.8796 0.8795 0.8794 0.8791 0.8789
3649.000000 0.8786 0.8784 0.8781 0.8790 0.8775
3644.000000 0.8773 0.8770 0.8768 0.8765 0.8763
3639.000000 0.8760 0.8758 0.8753 0.8748 0.8741
3634.000000 0.8735 0.8728 0.8721 0.8714 0.8707
3629.000000 0.8700 0.8693 0.8693 0.8693 0.8701
3624.000000 0.8709 0.8713 0.8717 0.8721 0.8725
3619.000000 0.8728 0.8732 0.8730 0.8728 0.8724
3614.000000 0.8720 0.8716 0.8712 0.8708 0.8704
3609.000000 0.8698 0.8692 0.8683 0.8675 0.8671
3604.000000 0.8668 0.8666 0.8665 0.8663 0.8663
3599.000000 0.8663 0.8664 0.8664 0.8665 0.8666
3594.000000 0.8666 0.8666 0.8666 0.8662 0.8659
3589.000000 0.8656 0.8653 0.8649 0.8646 0.8642
3584.000000 0.8639 0.8634 0.8630 0.8625 0.8620
3579.000000 0.8614 0.8609 0.8604 0.8599 0.8593
3574.000000 0.8588 0.8581 0.8575 0.8566 0.8558
3569.000000 0.8549 0.8541 0.8531 0.8521 0.8510
3564.000000 0.8499 0.8488 0.8477 0.8465 0.8454
3559.000000 0.8443 0.8432 0.8420 0.8409 0.8397
3554.000000 0.8385 0.8371 0.8357 0.8343 0.8328
3549.000000 0.8315 0.8301 0.8287 0.8273 0.8253
3544.000000 0.8234 0.8213 0.8193 0.8171 0.8151
3539.000000 0.8131 0.8111 0.8088 0.8065 0.8038
3534.000000 0.8010 0.7982 0.7954 0.7925 0.7897
3529.000000 0.7865 0.7834 0.7801 0.7768 0.7735
3524.000000 0.7701 0.7667 0.7633 0.7589 0.7545
3519.000000 0.7501 0.7457 0.7417 0.7378 0.7346
3514.000000 0.7315 0.7284 0.7253 0.7221 0.7191
3509.000000 0.7149 0.7108 0.7060 0.7012 0.6965
3504.000000 0.6918 0.6851 0.6787 0.6710 0.6633
3499.000000 0.6439 0.6245 0.6152 0.6060 0.5967
3494.000000 0.5874 0.5749 0.5625 0.5478 0.5331
3489.000000 0.5178 0.5025 0.4812 0.4600 0.4448
3484.000000 0.4296 0.4128 0.3960 0.3888 0.3814
3479.000000 0.3737 0.3659 0.3538 0.3416 0.3352
3474.000000 0.3288 0.3185 0.3084 0.2991 0.2897
3469.000000 0.2803 0.2709 0.2614 0.2520 0.2426
3464.000000 0.2332 0.2224 0.2116 0.2043 0.1971
3459.000000 0.1859 0.1746 0.1690 0.1633 0.1596
3454.000000 0.1561 0.1533 0.1506 0.1483 0.1460
3449.000000 0.1441 0.1422 0.1408 0.1395 0.1385
3444.000000 0.1376 0.1368 0.1342 0.1356 0.1352
3439.000000 0.1353 0.1355 0.1361 0.1367 0.1375
3434.000000 0.1384 0.1407 0.1431 0.1457 0.1484
3429.000000 0.1511 0.1539 0.1571 0.1603 0.1634
3424.000000 0.1668 0.1704 0.1740 0.1776 0.1813
3419.000000 0.1850 0.1887 0.1926 0.1964 0.1999
3414.000000 0.2034 0.2061 0.2087 0.2113 0.2140
3409.000000 0.2166 0.2193 0.2222 0.2251 0.2282
3404.000000 0.2314 0.2345 0.2376 0.2401 0.2427
3399.000000 0.2451 0.2476 0.2500 0.2524 0.2550
3394.000000 0.2577 0.2599 0.2622 0.2639 0.2656
3389.000000 0.2671 0.2685 0.2696 0.2707 0.2715
3384.000000 0.2766 0.2728 0.2732 0.2735 0.2735
3379.000000 0.2734 0.2730 0.2725 0.2720 0.2712
3374.000000 0.2705 0.2696 0.2688 0.2679 0.2670
3369.000000 0.2657 0.2644 0.2630 0.2617 0.2604
3364.000000 0.2591 0.2578 0.2565 0.2553 0.2541
3359.000000 0.2527 0.2514 0.2499 0.2484 0.2475
3354.000000 0.2467 0.2462 0.2457 0.2452 0.2448
3349.000000 0.2444 0.2443 0.2443 0.2446 0.2452
3344.000000 0.2459 0.2465 0.2472 0.2490 0.2508
3339.000000 0.2534 0.2561 0.2594 0.2627 0.2663
3334.000000 0.2699 0.2768 0.2837 0.2939 0.3042
3329.000000 0.3087 0.3133 0.3178 0.3223 0.3268
3324.000000 0.3314 0.3359 0.3404 0.3449 0.3495
3319.000000 0.3540 0.3586 0.3630 0.3676 0.3721
3314.000000 0.3766 0.3812 0.3857 0.3902 0.3948
3309.000000 0.3993 0.4039 0.4084 0.4167 0.4131
3304.000000 0.4131 0.4132 0.4131 0.4104 0.4078
3299.000000 0.4006 0.3934 0.3864 0.3793 0.3734
3294.000000 0.3676 0.3664 0.3652 0.3553 0.3455
3289.000000 0.3356 0.3258 0.3159 0.3061 0.2962
3284.000000 0.2864 0.2766 0.2669 0.2646 0.2615
3279.000000 0.2617 0.2611 0.2614 0.2617 0.2622
3274.000000 0.2628 0.2659 0.2691 0.2732 0.2773
3269.000000 0.2824 0.2875 0.2926 0.2978 0.3064
3264.000000 0.3151 0.3237 0.3324 0.3394 0.3464
3259.000000 0.3520 0.3575 0.3610 0.3648 0.3673
3254.000000 0.3699 0.3714 0.3730 0.3741 0.3750
3249.000000 0.3757 0.3762 0.3766 0.3766 0.3770
3244.000000 0.3770 0.3764 0.3760 0.3748 0.3734
3239.000000 0.3709 0.3682 0.3641 0.3599 0.3556
3234.000000 0.3512 0.3466 0.3422 0.3350 0.3278
3229.000000 0.3203 0.3129 0.3066 0.3003 0.2971
3224.000000 0.2891 0.2938 0.2938 0.2938 0.2940
3219.000000 0.2947 0.2955 0.2967 0.2979 0.3028
3214.000000 0.3077 0.3147 0.3216 0.3255 0.3293
3209.000000 0.3330 0.3368 0.3406 0.3444 0.3477
3204.000000 0.3509 0.3543 0.3576 0.3608 0.3641
3199.000000 0.3675 0.3709 0.3746 0.3782 0.3818
3194.000000 0.3856 0.3892 0.3929 0.3979 0.4030
3189.000000 0.4086 0.4143 0.4410 0.4678 0.4757
3184.000000 0.4837 0.4916 0.4996 0.5086 0.5177
3179.000000 0.5262 0.5349 0.5400 0.5452 0.5503
3174.000000 0.5555 0.5607 0.5659 0.5731 0.5804
3169.000000 0.5868 0.5933 0.5976 0.6020 0.6064
3164.000000 0.6108 0.6141 0.6174 0.6204 0.6235
3159.000000 0.6265 0.6296 0.6326 0.6357 0.6388
3154.000000 0.6419 0.6465 0.6510 0.6530 0.6551
3149.000000 0.6565 0.6581 0.6595 0.6610 0.6624
3144.000000 0.6639 0.6654 0.6668 0.6683 0.6698
3139.000000 0.6711 0.6726 0.6742 0.6757 0.6769
3134.000000 0.6784 0.6797 0.6810 0.6822 0.6837
3129.000000 0.6850 0.6864 0.6876 0.6890 0.6903
3124.000000 0.6917 0.6930 0.6943 0.6956 0.6969
3119.000000 0.6983 0.6997 0.7011 0.7025 0.7046
3114.000000 0.7067 0.7087 0.7107 0.7126 0.7147
3109.000000 0.7167 0.7187 0.7201 0.7215 0.7226
3104.000000 0.7239 0.7250 0.7261 0.7272 0.7285
3099.000000 0.7297 0.7308 0.7319 0.7332 0.7343
3094.000000 0.7355 0.7367 0.7378 0.7390 0.7401
3089.000000 0.7412 0.7425 0.7437 0.7449 0.7460
3084.000000 0.7471 0.7484 0.7496 0.7508 0.7519
3079.000000 0.7532 0.7544 0.7555 0.7565 0.7571
3074.000000 0.7576 0.7582 0.7588 0.7593 0.7599
3069.000000 0.7604 0.7610 0.7615 0.7621 0.7625
3064.000000 0.7632 0.7637 0.7643 0.7647 0.7651
3059.000000 0.7656 0.7661 0.7665 0.7669 0.7674
3054.000000 0.7678 0.7683 0.7688 0.7693 0.7698
3049.000000 0.7701 0.7706 0.7710 0.7714 0.7717
3044.000000 0.7721 0.7724 0.7728 0.7732 0.7736
3039.000000 0.7737 0.7739 0.7741 0.7743 0.7745
3034.000000 0.7774 0.7749 0.7751 0.7751 0.7751
3029.000000 0.7751 0.7750 0.7747 0.7745 0.7740
3024.000000 0.7736 0.7731 0.7725 0.7715 0.7706
3019.000000 0.7689 0.7672 0.7657 0.7641 0.7606
3014.000000 0.7571 0.7500 0.7428 0.7353 0.7278
3009.000000 0.7200 0.7122 0.7028 0.6933 0.6850
3004.000000 0.6767 0.6638 0.6508 0.6219 0.5929
2999.000000 0.5639 0.5350 0.5060 0.4771 0.4481
2994.000000 0.4191 0.4012 0.3837 0.3858 0.3880
2989.000000 0.4119 0.4358 0.4597 0.4836 0.5074
2984.000000 0.5312 0.5551 0.5790 0.6029 0.6268
2979.000000 0.6506 0.6745 0.6801 0.6857 0.6858
2974.000000 0.6861 0.6892 0.6922 0.6962 0.7004
2969.000000 0.7062 0.7121 0.7193 0.7264 0.7357
2964.000000 0.7464 0.7450 0.7450 0.7446 0.7442
2959.000000 0.7410 0.7378 0.7337 0.7297 0.7254
2954.000000 0.7211 0.7161 0.7111 0.7068 0.7028
2949.000000 0.7003 0.6978 0.6949 0.6921 0.6903
2944.000000 0.6885 0.6890 0.6895 0.6974 0.7053
2939.000000 0.7132 0.7211 0.7222 0.7236 0.7233
2934.000000 0.7231 0.7133 0.7036 0.6938 0.6840
2929.000000 0.6742 0.6645 0.6547 0.6450 0.6352
2924.000000 0.6255 0.6227 0.6190 0.6200 0.6201
2919.000000 0.6264 0.6328 0.6428 0.6531 0.6632
2914.000000 0.6733 0.6834 0.6936 0.7037 0.7138
2909.000000 0.7239 0.7340 0.7391 0.7443 0.7478
2904.000000 0.7512 0.7538 0.7564 0.7587 0.7611
2899.000000 0.7632 0.7654 0.7669 0.7687 0.7699
2894.000000 0.7711 0.7717 0.7724 0.7728 0.7735
2889.000000 0.7741 0.7748 0.7751 0.7756 0.7741
2884.000000 0.7726 0.7701 0.7675 0.7634 0.7593
2879.000000 0.7578 0.7562 0.7565 0.7568 0.7571
2874.000000 0.7574 0.7596 0.7618 0.7644 0.7668
2869.000000 0.7694 0.7719 0.7755 0.7790 0.7822
2864.000000 0.7857 0.7878 0.7900 0.7921 0.7943
2859.000000 0.7955 0.7968 0.7972 0.7978 0.7981
2854.000000 0.7983 0.7983 0.7983 0.7983 0.7983
2849.000000 0.7983 0.7983 0.7983 0.7983 0.7981
2844.000000 0.7980 0.7978 0.7976 0.7975 0.7974
2839.000000 0.7971 0.7971 0.7968 0.7968 0.7965
2834.000000 0.7964 0.7961 0.7958 0.7956 0.7954
2829.000000 0.7951 0.7949 0.7946 0.7944 0.7942
2824.000000 0.7941 0.7941 0.7942 0.7942 0.7943
2819.000000 0.7944 0.7945 0.7947 0.7949 0.7953
2814.000000 0.7957 0.7960 0.7964 0.7968 0.7971
2809.000000 0.7975 0.7980 0.7983 0.7987 0.7992
2804.000000 0.7998 0.8003 0.8008 0.8015 0.8021
2799.000000 0.8026 0.8033 0.8039 0.8045 0.8051
2794.000000 0.8057 0.8061 0.8068 0.8074 0.8080
2789.000000 0.8085 0.8090 0.8094 0.8098 0.8101
2784.000000 0.8107 0.8111 0.8115 0.8118 0.8121
2779.000000 0.8119 0.8118 0.8117 0.8115 0.8115
2774.000000 0.8114 0.8111 0.8110 0.8108 0.8106
2769.000000 0.8104 0.8101 0.8099 0.8097 0.8095
2764.000000 0.8093 0.8090 0.8088 0.8086 0.8084
2759.000000 0.8082 0.8081 0.8081 0.8081 0.8080
2754.000000 0.8080 0.8082 0.8085 0.8089 0.8093
2749.000000 0.8097 0.8101 0.8106 0.8110 0.8114
2744.000000 0.8118 0.8121 0.8125 0.8130 0.8135
2739.000000 0.8139 0.8143 0.8147 0.8151 0.8155
2734.000000 0.8158 0.8164 0.8169 0.8175 0.8182
2729.000000 0.8188 0.8194 0.8200 0.8207 0.8213
2724.000000 0.8218 0.8225 0.8231 0.8237 0.8244
2719.000000 0.8250 0.8256 0.8262 0.8268 0.8275
2714.000000 0.8285 0.8294 0.8303 0.8312 0.8321
2709.000000 0.8330 0.8339 0.8348 0.8357 0.8366
2704.000000 0.8375 0.8382 0.8389 0.8396 0.8404
2699.000000 0.8411 0.8418 0.8425 0.8433 0.8440
2694.000000 0.8447 0.8454 0.8462 0.8468 0.8475
2689.000000 0.8483 0.8490 0.8495 0.8501 0.8507
2684.000000 0.8513 0.8518 0.8524 0.8528 0.8534
2679.000000 0.8538 0.8542 0.8546 0.8550 0.8554
2674.000000 0.8558 0.8562 0.8566 0.8570 0.8574
2669.000000 0.8578 0.8582 0.8586 0.8591 0.8595
2664.000000 0.8600 0.8605 0.8610 0.8614 0.8618
2659.000000 0.8624 0.8628 0.8633 0.8638 0.8643
2654.000000 0.8648 0.8650 0.8653 0.8654 0.8656
2649.000000 0.8657 0.8659 0.8660 0.8662 0.8662
2644.000000 0.8662 0.8662 0.8659 0.8654 0.8650
2639.000000 0.8646 0.8642 0.8637 0.8633 0.8628
2634.000000 0.8625 0.8624 0.8624 0.8623 0.8623
2629.000000 0.8621 0.8621 0.8621 0.8621 0.8620
2624.000000 0.8620 0.8618 0.8618 0.8618 0.8618
2619.000000 0.8618 0.8618 0.8618 0.8621 0.8623
2614.000000 0.8625 0.8627 0.8628 0.8630 0.8632
2609.000000 0.8634 0.8636 0.8638 0.8640 0.8641
2604.000000 0.8643 0.8645 0.8647 0.8649 0.8651
2599.000000 0.8652 0.8654 0.8656 0.8658 0.8659
2594.000000 0.8661 0.8662 0.8663 0.8664 0.8665
2589.000000 0.8666 0.8668 0.8668 0.8670 0.8671
2584.000000 0.8671 0.8673 0.8674 0.8675 0.8675
2579.000000 0.8677 0.8678 0.8678 0.8678 0.8678
2574.000000 0.8680 0.8680 0.8681 0.8681 0.8681
2569.000000 0.8681 0.8682 0.8682 0.8683 0.8683
2564.000000 0.8684 0.8684 0.8685 0.8685 0.8685
2559.000000 0.8685 0.8686 0.8686 0.8687 0.8687
2554.000000 0.8688 0.8688 0.8689 0.8690 0.8691
2549.000000 0.8691 0.8692 0.8692 0.8693 0.8694
2544.000000 0.8695 0.8695 0.8696 0.8696 0.8697
2539.000000 0.8698 0.8699 0.8699 0.8700 0.8700
2534.000000 0.8701 0.8702 0.8703 0.8703 0.8704
2529.000000 0.8704 0.8705 0.8706 0.8706 0.8706
2524.000000 0.8706 0.8705 0.8704 0.8702 0.8700
2519.000000 0.8697 0.8695 0.8693 0.8691 0.8689
2514.000000 0.8687 0.8684 0.8682 0.8678 0.8677
2509.000000 0.8670 0.8664 0.8657 0.8650 0.8639
2504.000000 0.8628 0.8617 0.8606 0.8594 0.8583
2499.000000 0.8571 0.8561 0.8550 0.8539 0.8534
2494.000000 0.8528 0.8527 0.8525 0.8523 0.8521
2489.000000 0.8518 0.8517 0.8516 0.8515 0.8515
2484.000000 0.8515 0.8515 0.8515 0.8514 0.8514
2479.000000 0.8514 0.8514 0.8513 0.8513 0.8513
2474.000000 0.8513 0.8513 0.8514 0.8515 0.8516
2469.000000 0.8516 0.8517 0.8517 0.8518 0.8518
2464.000000 0.8520 0.8520 0.8521 0.8521 0.8523
2459.000000 0.8523 0.8524 0.8524 0.8524 0.8524
2454.000000 0.8524 0.8524 0.8524 0.8524 0.8524
2449.000000 0.8524 0.8525 0.8525 0.8525 0.8524
2444.000000 0.8524 0.8521 0.8520 0.8518 0.8516
2439.000000 0.8513 0.8511 0.8509 0.8507 0.8505
2434.000000 0.8503 0.8500 0.8498 0.8497 0.8496
2429.000000 0.8495 0.8495 0.8494 0.8493 0.8492
2424.000000 0.8492 0.8491 0.8491 0.8490 0.8489
2419.000000 0.8488 0.8488 0.8488 0.8488 0.8489
2414.000000 0.8490 0.8491 0.8492 0.8493 0.8494
2409.000000 0.8494 0.8495 0.8496 0.8497 0.8498
2404.000000 0.8499 0.8500 0.8501 0.8502 0.8504
2399.000000 0.8505 0.8506 0.8507 0.8509 0.8510
2394.000000 0.8512 0.8513 0.8515 0.8516 0.8518
2389.000000 0.8518 0.8520 0.8520 0.8520 0.8518
2384.000000 0.8518 0.8518 0.8518 0.8517 0.8517
2379.000000 0.8517 0.8517 0.8516 0.8516 0.8515
2374.000000 0.8515 0.8514 0.8514 0.8513 0.8513
2369.000000 0.8510 0.8507 0.8504 0.8501 0.8498
2364.000000 0.8496 0.8493 0.8490 0.8487 0.8485
2359.000000 0.8482 0.8478 0.8475 0.8471 0.8467
2354.000000 0.8463 0.8458 0.8454 0.8448 0.8443
2349.000000 0.8438 0.8433 0.8428 0.8423 0.8423
2344.000000 0.8423 0.8423 0.8423 0.8423 0.8424
2339.000000 0.8424 0.8424 0.8424 0.8425 0.8425
2334.000000 0.8425 0.8425 0.8425 0.8425 0.8425
2329.000000 0.8425 0.8427 0.8427 0.8428 0.8428
2324.000000 0.8428 0.8428 0.8430 0.8430 0.8431
2319.000000 0.8432 0.8433 0.8433 0.8434 0.8434
2314.000000 0.8435 0.8435 0.8436 0.8436 0.8437
2309.000000 0.8437 0.8438 0.8438 0.8439 0.8439
2304.000000 0.8440 0.8440 0.8440 0.8441 0.8442
2299.000000 0.8442 0.8443 0.8443 0.8444 0.8444
2294.000000 0.8445 0.8445 0.8446 0.8446 0.8447
2289.000000 0.8447 0.8448 0.8448 0.8449 0.8449
2284.000000 0.8450 0.8451 0.8452 0.8453 0.8455
2279.000000 0.8456 0.8457 0.8458 0.8459 0.8460
2274.000000 0.8462 0.8463 0.8464 0.8465 0.8466
2269.000000 0.8467 0.8468 0.8471 0.8473 0.8474
2264.000000 0.8475 0.8478 0.8480 0.8481 0.8483
2259.000000 0.8484 0.8486 0.8487 0.8489 0.8490
2254.000000 0.8492 0.8494 0.8496 0.8499 0.8502
2249.000000 0.8505 0.8509 0.8512 0.8516 0.8518
2244.000000 0.8523 0.8525 0.8530 0.8536 0.8542
2239.000000 0.8548 0.8554 0.8560 0.8566 0.8571
2234.000000 0.8578 0.8584 0.8590 0.8594 0.8598
2229.000000 0.8600 0.8602 0.8604 0.8606 0.8607
2224.000000 0.8609 0.8610 0.8611 0.8612 0.8614
2219.000000 0.8615 0.8616 0.8617 0.8618 0.8620
2214.000000 0.8621 0.8621 0.8624 0.8625 0.8627
2209.000000 0.8628 0.8628 0.8630 0.8632 0.8635
2204.000000 0.8638 0.8640 0.8643 0.8646 0.8649
2199.000000 0.8651 0.8654 0.8656 0.8659 0.8662
2194.000000 0.8665 0.8668 0.8673 0.8678 0.8686
2189.000000 0.8692 0.8699 0.8705 0.8711 0.8717
2184.000000 0.8724 0.8730 0.8737 0.8743 0.8749
2179.000000 0.8755 0.8762 0.8768 0.8774 0.8780
2174.000000 0.8787 0.8793 0.8799 0.8805 0.8812
2169.000000 0.8818 0.8824 0.8828 0.8834 0.8836
2164.000000 0.8839 0.8841 0.8844 0.8846 0.8849
2159.000000 0.8851 0.8854 0.8853 0.8852 0.8850
2154.000000 0.8848 0.8846 0.8844 0.8842 0.8840
2149.000000 0.8838 0.8836 0.8834 0.8832 0.8830
2144.000000 0.8828 0.8825 0.8824 0.8821 0.8820
2139.000000 0.8817 0.8815 0.8815 0.8816 0.8816
2134.000000 0.8817 0.8817 0.8817 0.8817 0.8818
2129.000000 0.8818 0.8818 0.8818 0.8818 0.8820
2124.000000 0.8821 0.8828 0.8835 0.8841 0.8847
2119.000000 0.8853 0.8860 0.8866 0.8871 0.8878
2114.000000 0.8884 0.8890 0.8897 0.8903 0.8909
2109.000000 0.8915 0.8921 0.8925 0.8932 0.8934
2104.000000 0.8937 0.8939 0.8941 0.8943 0.8946
2099.000000 0.8949 0.8952 0.8956 0.8961 0.8964
2094.000000 0.8967 0.8968 0.8971 0.8975 0.8978
2089.000000 0.8981 0.8984 0.8987 0.8990 0.8993
2084.000000 0.8996 0.8999 0.9003 0.9006 0.9009
2079.000000 0.9012 0.9016 0.9015 0.9015 0.9011
2074.000000 0.9007 0.9003 0.9000 0.8995 0.8990
2069.000000 0.8985 0.8981 0.8978 0.8978 0.8978
2064.000000 0.8982 0.8985 0.8989 0.8993 0.8997
2059.000000 0.9000 0.9004 0.9007 0.9011 0.9015
2054.000000 0.9018 0.9021 0.9025 0.9028 0.9033
2049.000000 0.9053 0.9074 0.9074 0.9075 0.9075
2044.000000 0.9075 0.9075 0.9077 0.9077 0.9078
2039.000000 0.9078 0.9078 0.9078 0.9078 0.9077
2034.000000 0.9077 0.9075 0.9075 0.9075 0.9075
2029.000000 0.9075 0.9075 0.9074 0.9074 0.9073
2024.000000 0.9073 0.9071 0.9071 0.9071 0.9071
2019.000000 0.9070 0.9070 0.9068 0.9068 0.9068
2014.000000 0.9068 0.9067 0.9067 0.9067 0.9067
2009.000000 0.9064 0.9062 0.9059 0.9056 0.9052
2004.000000 0.9049 0.9045 0.9042 0.9030 0.9018
1999.000000 0.9003 0.8974 0.8946 0.8874 0.8775
1994.000000 0.8784 0.8794 0.8803 0.8812 0.8821
1989.000000 0.8828 0.8804 0.8805 0.8807 0.8808
1984.000000 0.8813 0.8833 0.8842 0.8850 0.8859
1979.000000 0.8867 0.8875 0.8877 0.8878 0.8880
1974.000000 0.8875 0.8870 0.8863 0.8856 0.8849
1969.000000 0.8845 0.8844 0.8842 0.8841 0.8839
1964.000000 0.8837 0.8843 0.8849 0.8856 0.8861
1959.000000 0.8864 0.8867 0.8868 0.8871 0.8873
1954.000000 0.8865 0.8856 0.8846 0.8836 0.8827
1949.000000 0.8817 0.8807 0.8796 0.8784 0.8773
1944.000000 0.8762 0.8751 0.8739 0.8721 0.8702
1939.000000 0.8682 0.8652 0.8616 0.8580 0.8533
1934.000000 0.8484 0.8451 0.8437 0.8421 0.8407
1929.000000 0.8396 0.8391 0.8390 0.8361 0.8395
1924.000000 0.8406 0.8416 0.8425 0.8447 0.8468
1919.000000 0.8491 0.8514 0.8538 0.8562 0.8586
1914.000000 0.8610 0.8633 0.8657 0.8680 0.8700
1909.000000 0.8715 0.8730 0.8744 0.8754 0.8763
1904.000000 0.8773 0.8782 0.8789 0.8793 0.8796
1899.000000 0.8795 0.8794 0.8792 0.8791 0.8789
1894.000000 0.8788 0.8786 0.8784 0.8782 0.8780
1889.000000 0.8777 0.8795 0.8773 0.8771 0.8768
1884.000000 0.8767 0.8765 0.8763 0.8761 0.8760
1879.000000 0.8755 0.8751 0.8747 0.8743 0.8739
1874.000000 0.8735 0.8731 0.8727 0.8721 0.8717
1869.000000 0.8709 0.8699 0.8690 0.8681 0.8671
1864.000000 0.8662 0.8644 0.8621 0.8596 0.8568
1859.000000 0.8546 0.8531 0.8516 0.8508 0.8501
1854.000000 0.8495 0.8488 0.8482 0.8475 0.8468
1849.000000 0.8462 0.8456 0.8449 0.8442 0.8435
1844.000000 0.8428 0.8421 0.8415 0.8408 0.8404
1839.000000 0.8400 0.8397 0.8394 0.8391 0.8384
1834.000000 0.8367 0.8350 0.8333 0.8317 0.8300
1829.000000 0.8283 0.8266 0.8249 0.8233 0.8218
1824.000000 0.8204 0.8189 0.8174 0.8158 0.8144
1819.000000 0.8124 0.8105 0.8085 0.8065 0.8045
1814.000000 0.8025 0.8005 0.7986 0.7965 0.7946
1809.000000 0.7925 0.7903 0.7882 0.7861 0.7839
1804.000000 0.7818 0.7796 0.7772 0.7751 0.7728
1799.000000 0.7705 0.7683 0.7658 0.7633 0.7608
1794.000000 0.7583 0.7558 0.7525 0.7492 0.7461
1789.000000 0.7432 0.7401 0.7372 0.7344 0.7315
1784.000000 0.7287 0.7258 0.7225 0.7182 0.7139
1779.000000 0.7096 0.7038 0.6981 0.6924 0.6865
1774.000000 0.6805 0.6744 0.6682 0.6632 0.6592
1769.000000 0.6553 0.6514 0.6474 0.6435 0.6395
1764.000000 0.6356 0.6317 0.6268 0.6178 0.6087
1759.000000 0.5865 0.5817 0.5770 0.5722 0.5674
1754.000000 0.5627 0.5579 0.5531 0.5474 0.5370
1749.000000 0.5266 0.5162 0.5069 0.4994 0.4920
1744.000000 0.4846 0.4771 0.4697 0.4608 0.4514
1739.000000 0.4420 0.4326 0.4232 0.4129 0.4020
1734.000000 0.3910 0.3802 0.3668 0.3534 0.3457
1729.000000 0.3382 0.3306 0.3230 0.3156 0.3071
1724.000000 0.2984 0.2898 0.2811 0.2670 0.2379
1719.000000 0.2209 0.2088 0.1998 0.1908 0.1829
1714.000000 0.1750 0.1671 0.1592 0.1506 0.1417
1709.000000 0.1327 0.1237 0.1164 0.1092 0.1022
1704.000000 0.0937 0.0756 0.0668 0.0563 0.0436
1699.000000 0.0349 0.0287 0.0262 0.0237 0.0215
1694.000000 0.0194 0.0185 0.0182 0.0179 0.0178
1689.000000 0.0178 0.0178 0.0187 0.0196 0.0205
1684.000000 0.0228 0.0273 0.0309 0.0344 0.0385
1679.000000 0.0431 0.0477 0.0523 0.0569 0.0627
1674.000000 0.0688 0.0748 0.0808 0.0869 0.0939
1669.000000 0.1010 0.1082 0.1161 0.1248 0.1334
1664.000000 0.1415 0.1489 0.1563 0.1636 0.1713
1659.000000 0.1793 0.1873 0.1953 0.2033 0.2112
1654.000000 0.2190 0.2268 0.2346 0.2422 0.2497
1649.000000 0.2573 0.2653 0.2742 0.2828 0.2892
1644.000000 0.2944 0.2989 0.3033 0.3084 0.3128
1639.000000 0.3167 0.3199 0.3220 0.3228 0.3228
1634.000000 0.3229 0.3228 0.3206 0.3175 0.3112
1629.000000 0.3048 0.2970 0.2893 0.2799 0.2683
1624.000000 0.2495 0.1824 0.1617 0.1302 0.1192
1619.000000 0.1057 0.1016 0.1015 0.1015 0.1052
1614.000000 0.1158 0.1246 0.1349 0.1456 0.1571
1609.000000 0.1724 0.1979 0.2151 0.2297 0.2415
1604.000000 0.2534 0.2669 0.2810 0.3049 0.3577
1599.000000 0.3880 0.3979 0.4078 0.4177 0.4268
1594.000000 0.4343 0.4418 0.4492 0.4566 0.4639
1589.000000 0.4712 0.4786 0.4864 0.4942 0.5020
1584.000000 0.5138 0.5246 0.5344 0.5442 0.5540
1579.000000 0.5622 0.5702 0.5783 0.5846 0.5904
1574.000000 0.5962 0.6018 0.6071 0.6125 0.6178
1569.000000 0.6231 0.6285 0.6339 0.6393 0.6428
1564.000000 0.6455 0.6482 0.6508 0.6535 0.6561
1559.000000 0.6589 0.6615 0.6651 0.6685 0.6711
1554.000000 0.6738 0.6765 0.6790 0.6815 0.6836
1549.000000 0.6850 0.6864 0.6878 0.6891 0.6900
1544.000000 0.6908 0.6918 0.6926 0.6936 0.6940
1539.000000 0.6944 0.6948 0.6951 0.6956 0.6960
1534.000000 0.6964 0.6968 0.6974 0.7000 0.6981
1529.000000 0.6980 0.6978 0.6976 0.6975 0.6971
1524.000000 0.6965 0.6961 0.6957 0.6953 0.6948
1519.000000 0.6940 0.6933 0.6918 0.6905 0.6892
1514.000000 0.6878 0.6865 0.6851 0.6828 0.6805
1509.000000 0.6781 0.6757 0.6733 0.6704 0.6672
1504.000000 0.6642 0.6611 0.6580 0.6548 0.6512
1499.000000 0.6467 0.6421 0.6377 0.6331 0.6284
1494.000000 0.6218 0.6152 0.6087 0.5984 0.5865
1489.000000 0.5591 0.5349 0.2424 0.2404 0.2553
1484.000000 0.2908 0.3262 0.3618 0.3973 0.4328
1479.000000 0.4683 0.4919 0.4942 0.4883 0.4836
1474.000000 0.4788 0.4740 0.4692 0.4644 0.4596
1469.000000 0.4548 0.4500 0.4452 0.4404 0.4309
1464.000000 0.4177 0.4064 0.3946 0.3959 0.3974
1459.000000 0.4072 0.4169 0.4354 0.4323 0.4252
1454.000000 0.4148 0.4028 0.3899 0.3480 0.3063
1449.000000 0.2697 0.2693 0.2702 0.2837 0.3093
1444.000000 0.3350 0.3556 0.3564 0.3537 0.3525
1439.000000 0.3227 0.2896 0.2564 0.2233 0.1902
1434.000000 0.1571 0.1240 0.0908 0.0896 0.0876
1429.000000 0.0902 0.0974 0.1092 0.1213 0.1333
1424.000000 0.1452 0.1572 0.1691 0.1811 0.1931
1419.000000 0.2142 0.2375 0.2607 0.2839 0.3071
1414.000000 0.3303 0.3536 0.3768 0.4000 0.4232
1409.000000 0.4464 0.4696 0.4929 0.5160 0.5393
1404.000000 0.5625 0.5720 0.5736 0.5748 0.5774
1399.000000 0.5735 0.5664 0.5542 0.5307 0.4868
1394.000000 0.4430 0.3992 0.3554 0.3115 0.2677
1389.000000 0.2239 0.1800 0.1362 0.0924 0.0893
1384.000000 0.0893 0.0900 0.0988 0.1282 0.1576
1379.000000 0.1870 0.2164 0.2458 0.2752 0.3046
1374.000000 0.3340 0.3634 0.3928 0.4222 0.4516
1369.000000 0.4810 0.5104 0.5398 0.5692 0.5986
1364.000000 0.6081 0.6088 0.6100 0.6045 0.5901
1359.000000 0.5460 0.5018 0.4577 0.4135 0.3694
1354.000000 0.3253 0.2811 0.2370 0.1928 0.1487
1349.000000 0.1045 0.0548 0.0555 0.0559 0.0568
1344.000000 0.0591 0.0614 0.0653 0.0708 0.0782
1339.000000 0.0861 0.0954 0.1046 0.1142 0.1244
1334.000000 0.1348 0.1475 0.1601 0.1741 0.1882
1329.000000 0.2003 0.2118 0.2232 0.2334 0.2418
1324.000000 0.2500 0.2582 0.2665 0.2804 0.2972
1319.000000 0.3132 0.3288 0.3395 0.3487 0.3580
1314.000000 0.3672 0.3762 0.3848 0.3932 0.4018
1309.000000 0.4103 0.4188 0.4276 0.4370 0.4464
1304.000000 0.4558 0.4642 0.4721 0.4801 0.4881
1299.000000 0.4944 0.5001 0.5058 0.5116 0.5173
1294.000000 0.5222 0.5269 0.5316 0.5362 0.5392
1289.000000 0.5421 0.5450 0.5475 0.5499 0.5522
1284.000000 0.5534 0.5527 0.5521 0.5515 0.5510
1279.000000 0.5506 0.5502 0.5501 0.5501 0.5500
1274.000000 0.5516 0.5537 0.5556 0.5572 0.5582
1269.000000 0.5591 0.5600 0.5607 0.5612 0.5617
1264.000000 0.5622 0.5623 0.5624 0.5624 0.5624
1259.000000 0.5623 0.5623 0.5622 0.5619 0.5610
1254.000000 0.5602 0.5593 0.5584 0.5569 0.5555
1249.000000 0.5540 0.5525 0.5512 0.5501 0.5489
1244.000000 0.5477 0.5479 0.5482 0.5484 0.5487
1239.000000 0.5490 0.5492 0.5495 0.5497 0.5500
1234.000000 0.5502 0.5504 0.5508 0.5509 0.5510
1229.000000 0.5514 0.5516 0.5518 0.5520 0.5522
1224.000000 0.5524 0.5526 0.5528 0.5530 0.5531
1219.000000 0.5533 0.5535 0.5535 0.5535 0.5532
1214.000000 0.5528 0.5524 0.5521 0.5517 0.5514
1209.000000 0.5510 0.5506 0.5503 0.5499 0.5495
1204.000000 0.5491 0.5486 0.5481 0.5476 0.5471
1199.000000 0.5466 0.5460 0.5458 0.5458 0.5458
1194.000000 0.5459 0.5459 0.5459 0.5456 0.5450
1189.000000 0.5444 0.5438 0.5431 0.5425 0.5419
1184.000000 0.5409 0.5396 0.5384 0.5371 0.5359
1179.000000 0.5346 0.5333 0.5321 0.5308 0.5289
1174.000000 0.5270 0.5251 0.5232 0.5212 0.5195
1169.000000 0.5176 0.5150 0.5124 0.5098 0.5037
1164.000000 0.4960 0.4887 0.4814 0.4741 0.4660
1159.000000 0.4568 0.4508 0.4455 0.4455 0.4475
1154.000000 0.4501 0.4531 0.4567 0.4600 0.4629
1149.000000 0.4627 0.4604 0.4575 0.4535 0.4494
1144.000000 0.4452 0.4408 0.4364 0.4316 0.4262
1139.000000 0.4208 0.4160 0.4115 0.4068 0.4012
1134.000000 0.3930 0.3880 0.3834 0.3794 0.3799
1129.000000 0.3839 0.3959 0.4080 0.4200 0.4320
1124.000000 0.4441 0.4560 0.4682 0.4802 0.4930
1119.000000 0.4906 0.4925 0.4804 0.4468 0.4132
1114.000000 0.3796 0.3459 0.3124 0.2788 0.2692
1109.000000 0.2703 0.2750 0.2842 0.2912 0.2939
1104.000000 0.2952 0.2947 0.2942 0.2937 0.2910
1099.000000 0.2797 0.2633 0.2469 0.2306 0.2142
1094.000000 0.1978 0.1815 0.1651 0.1488 0.1324
1089.000000 0.1160 0.0996 0.0833 0.0669 0.0506
1084.000000 0.0481 0.0486 0.0495 0.0505 0.0514
1079.000000 0.0532 0.0551 0.0580 0.0613 0.0686
1074.000000 0.0783 0.0902 0.1008 0.1114 0.1239
1069.000000 0.1383 0.1562 0.1845 0.1965 0.2076
1064.000000 0.2187 0.2309 0.2439 0.2645 0.2906
1059.000000 0.3234 0.3490 0.3995 0.4118 0.4181
1054.000000 0.4243 0.4306 0.4368 0.4456 0.4565
1049.000000 0.4674 0.4778 0.4879 0.4980 0.5131
1044.000000 0.5312 0.5428 0.5539 0.5651 0.5730
1039.000000 0.5806 0.5882 0.5958 0.6028 0.6082
1034.000000 0.6137 0.6192 0.6247 0.6301 0.6354
1029.000000 0.6407 0.6458 0.6511 0.6555 0.6594
1024.000000 0.6632 0.6671 0.6708 0.6749 0.6817
1019.000000 0.6903 0.6971 0.7015 0.7049 0.7082
1014.000000 0.7103 0.7121 0.7139 0.7154 0.7169
1009.000000 0.7188 0.7208 0.7218 0.7225 0.7225
1004.000000 0.7225 0.7224 0.7206 0.7188 0.7145
999.000000 0.6918 0.6247 0.5577 0.5092 0.5117
994.000000 0.5187 0.5491 0.5794 0.6097 0.6400
989.000000 0.6704 0.7007 0.7299 0.7500 0.7584
984.000000 0.7634 0.7684 0.7734 0.7775 0.7804
979.000000 0.7833 0.7860 0.7872 0.7886 0.7897
974.000000 0.7900 0.7903 0.7905 0.7908 0.7911
969.000000 0.7918 0.7932 0.7945 0.7958 0.7971
964.000000 0.7986 0.8006 0.8025 0.8046 0.8065
959.000000 0.8086 0.8106 0.8121 0.8138 0.8154
954.000000 0.8169 0.8186 0.8202 0.8218 0.8234
949.000000 0.8250 0.8266 0.8283 0.8297 0.8310
944.000000 0.8321 0.8335 0.8347 0.8360 0.8371
939.000000 0.8385 0.8397 0.8410 0.8421 0.8435
934.000000 0.8447 0.8458 0.8470 0.8481 0.8493
929.000000 0.8504 0.8515 0.8527 0.8538 0.8547
924.000000 0.8557 0.8566 0.8575 0.8585 0.8594
919.000000 0.8604 0.8613 0.8618 0.8625 0.8631
914.000000 0.8637 0.8643 0.8649 0.8654 0.8660
909.000000 0.8665 0.8668 0.8670 0.8671 0.8675
904.000000 0.8677 0.8678 0.8682 0.8684 0.8687
899.000000 0.8691 0.8694 0.8698 0.8702 0.8706
894.000000 0.8710 0.8714 0.8717 0.8720 0.8724
889.000000 0.8727 0.8731 0.8734 0.8737 0.8737
884.000000 0.8737 0.8736 0.8736 0.8736 0.8736
879.000000 0.8732 0.8725 0.8718 0.8713 0.8707
874.000000 0.8700 0.8695 0.8690 0.8686 0.8681
869.000000 0.8675 0.8670 0.8663 0.8635 0.8591
864.000000 0.8517 0.8411 0.8083 0.7574 0.7065
859.000000 0.6556 0.6259 0.6237 0.6417 0.6671
854.000000 0.6925 0.7181 0.7436 0.7690 0.7945
849.000000 0.8154 0.8300 0.8360 0.8412 0.8456
844.000000 0.8480 0.8504 0.8528 0.8541 0.8552
839.000000 0.8563 0.8573 0.8580 0.8584 0.8587
834.000000 0.8591 0.8634 0.8597 0.8598 0.8598
829.000000 0.8589 0.8578 0.8568 0.8560 0.8541
824.000000 0.8521 0.8503 0.8486 0.8485 0.8485
819.000000 0.8484 0.8480 0.8475 0.8471 0.8468
814.000000 0.8453 0.8438 0.8417 0.8378 0.8338
809.000000 0.8298 0.8259 0.8220 0.8181 0.8131
804.000000 0.8078 0.8026 0.7980 0.7932 0.7876
799.000000 0.7791 0.7704 0.7476 0.7240 0.6878
794.000000 0.6461 0.6046 0.5629 0.5207 0.5234
789.000000 0.5537 0.5950 0.6362 0.6775 0.7189
784.000000 0.7601 0.8015 0.8387 0.8448 0.8509
779.000000 0.8575 0.8654 0.8675 0.8682 0.8707
774.000000 0.8696 0.8693 0.8689 0.8685 0.8681
769.000000 0.8678 0.8674 0.8670 0.8665 0.8659
764.000000 0.8652 0.8646 0.8640 0.8634 0.8627
759.000000 0.8621 0.8615 0.8609 0.8602 0.8588
754.000000 0.8575 0.8561 0.8547 0.8534 0.8520
749.000000 0.8503 0.8474 0.8446 0.8418 0.8390
744.000000 0.8362 0.8334 0.8306 0.8278 0.8251
739.000000 0.8218 0.8185 0.8151 0.8118 0.8074
734.000000 0.8011 0.7949 0.7886 0.7825 0.7764
729.000000 0.7704 0.7644 0.7580 0.7512 0.7444
724.000000 0.7369 0.7298 0.7251 0.7235 0.7218
719.000000 0.7210 0.7201 0.7192 0.7192 0.7192
714.000000 0.7193 0.7196 0.7205 0.7215 0.7225
709.000000 0.7234 0.7249 0.7284 0.7318 0.7347
704.000000 0.7367 0.7388 0.7410 0.7433 0.7439
699.000000 0.7444 0.7446 0.7446 0.7481 0.7436
694.000000 0.7425 0.7415 0.7396 0.7374 0.7351
689.000000 0.7321 0.7280 0.7238 0.7178 0.7058
684.000000 0.6825 0.6591 0.6358 0.6141 0.6115
679.000000 0.6245 0.6449 0.6654 0.6858 0.7062
674.000000 0.7267 0.7388 0.7405 0.7421 0.7425
669.000000 0.7476 0.7415 0.7391 0.7347 0.7303
664.000000 0.7258 0.7217 0.7181 0.7144 0.7087
659.000000 0.7028 0.6968 0.6908 0.6849 0.6789
654.000000 0.6728 0.6669 0.6610 0.6551 0.6491
649.000000 0.6431 0.6372 0.6312 0.6253 0.6193
644.000000 0.6133 0.6074 0.6014 0.5955 0.5895
639.000000 0.5835 0.5776 0.5716 0.5656 0.5597
634.000000 0.5537 0.5478 0.5418 0.5358 0.5299
629.000000 0.5239 0.5180 0.5157 0.5138 0.5129
624.000000 0.5121 0.5112 0.5105 0.5105 0.5105
619.000000 0.5099 0.5102 0.5117 0.5131 0.5151
614.000000 0.5177 0.5204 0.5231 0.5258 0.5294
609.000000 0.5331 0.5371 0.5412 0.5452 0.5493
604.000000 0.5533 0.5574 0.5616 0.5657 0.5705
599.000000 0.5758 0.5812 0.5866 0.5919 0.5973
594.000000 0.6026 0.6080 0.6134 0.6187 0.6241
589.000000 0.6294 0.6348 0.6401 0.6455 0.6508
584.000000 0.6561 0.6615 0.6669 0.6722 0.6776
579.000000 0.6830 0.6884 0.6938 0.6991 0.7045
574.000000 0.7098 0.7151 0.7206 0.7258 0.7312
569.000000 0.7365 0.7419 0.7474 0.7526 0.7581
564.000000 0.7626 0.7667 0.7706 0.7745 0.7785
559.000000 0.7819 0.7851 0.7883 0.7914 0.7945
554.000000 0.7976 0.8007 0.8028 0.8050 0.8071
549.000000 0.8092 0.8112 0.8128 0.8134 0.8139
544.000000 0.8144 0.8150 0.8155 0.8160 0.8165
539.000000 0.8168 0.8169 0.8171 0.8165 0.8153
534.000000 0.8140 0.8105 0.8067 0.8022 0.7846
529.000000 0.7572 0.7300 0.7026 0.6754 0.6481
524.000000 0.6208 0.5936 0.5670 0.5666 0.5753
519.000000 0.6133 0.6511 0.6892 0.7271 0.7651
514.000000 0.8032 0.8141 0.8205 0.8268 0.8308
509.000000 0.8344 0.8380 0.8410 0.8432 0.8448
504.000000 0.8452 0.8456 0.8460 0.8464 0.8506
499.000000 0.8461 0.8458 0.8454 0.8450 0.8446
494.000000 0.8443 0.8432 0.8421 0.8411 0.8401
489.000000 0.8390 0.8380 0.8363 0.8345 0.8327
484.000000 0.8310 0.8292 0.8275 0.8257 0.8239
479.000000 0.8221 0.8203 0.8184 0.8165 0.8148
474.000000 0.8128 0.8115 0.8101 0.8087 0.8072
469.000000 0.8058 0.8044 0.8025 0.8004 0.7983
464.000000 0.7961 0.7941 0.7918 0.7896 0.7874
459.000000 0.7851 0.7828 0.7806 0.7784 0.7756
454.000000 0.7726 0.7698 0.7669 0.7641 0.7611
449.000000 0.7576 0.7535 0.7492 0.7450 0.7408
444.000000 0.7365 0.7325 0.7290 0.7255 0.7219
439.000000 0.7185 0.7150 0.7112 0.7068 0.7025
434.000000 0.6982 0.6938 0.6895 0.6855 0.6821
429.000000 0.6787 0.6754 0.6724 0.6707 0.6691
424.000000 0.6674 0.6661 0.6656 0.6650 0.6643
419.000000 0.6637 0.6631 0.6612 0.6625 0.6625
414.000000 0.6630 0.6636 0.6642 0.6647 0.6664
409.000000 0.6688 0.6711 0.6737 0.6761 0.6788
404.000000 0.6814 0.6843 0.6871
##END=
