##TITLE=2-Propanone, 1,3-dichloro-
##JCAMP-DX=4.24
$$ By DXEDIT 1.05 (RS McDonald)
##DATA TYPE=INFRARED SPECTRUM
##CLASS=COBLENTZ III
##ORIGIN=DOW CHEMICAL COMPANY
##OWNER=COPYRIGHT (C) 1988 by COBLENTZ SOCIETY INC.
Collection (C) 2018 copyright by the U.S. Secretary of Commerce
on behalf of the United States of America. All rights reserved.
##DATE=1962/03/08
##NAMES=1,3-dichloroacetone
##CAS REGISTRY NO=534-07-6
##MOLFORM=C3 H4 Cl2 O
##SOURCE REFERENCE=COBLENTZ NO. 5753
##$NIST SOURCE=COBLENTZ
##$NIST IMAGE=cob5753
##SPECTROMETER/DATA SYSTEM=DOW KBr FOREPRISM-GRATING
##INSTRUMENT PARAMETERS=BLAZED AT 3.5, 12.0, 20.0 MICRON AND CHANGED AT 5.0, 7.5, 14.9 MICRON
##STATE=SOLUTION (10% CCl4 FOR 2.6-7.5, 10% CS2 FOR 7.5-22 MICRON)
##PATH LENGTH=0.011 CM, 0.01 CM
$$SPECTRAL CONTAMINATION DUE TO CCl4 AROUND 1550 AND CS2 AROUND 850 CM^-^1 HAVE BEEN SUBTRACTED
##SAMPLING PROCEDURE=TRANSMISSION
##RESOLUTION=2
##DATA PROCESSING=DIGITIZED BY COBLENTZ SOCIETY (BATCH I) FROM HARD COPY
##XUNITS=1/CM
##YUNITS=TRANSMITTANCE
##XFACTOR=1
##YFACTOR=1
##DELTAX=1
##FIRSTX=3806
##LASTX=447
##FIRSTY=0.9342
##MAXX=3806
##MINX=447
##MAXY=0.9466
##MINY=0.0183
##NPOINTS=3360
##XYDATA=(X++(Y..Y))
3806.000000 0.9342 0.9341 0.9341 0.9341 0.9328
3801.000000 0.9327 0.9327 0.9326 0.9326 0.9327
3796.000000 0.9335 0.9327 0.9337 0.9337 0.9337
3791.000000 0.9336 0.9336 0.9335 0.9335 0.9334
3786.000000 0.9334 0.9334 0.9325 0.9319 0.9319
3781.000000 0.9328 0.9332 0.9320 0.9329 0.9329
3776.000000 0.9329 0.9317 0.9329 0.9328 0.9328
3771.000000 0.9327 0.9327 0.9326 0.9326 0.9326
3766.000000 0.9326 0.9325 0.9325 0.9324 0.9323
3761.000000 0.9322 0.9329 0.9327 0.9321 0.9320
3756.000000 0.9319 0.9318 0.9318 0.9317 0.9317
3751.000000 0.9316 0.9314 0.9313 0.9313 0.9312
3746.000000 0.9312 0.9311 0.9310 0.9309 0.9309
3741.000000 0.9309 0.9310 0.9314 0.9324 0.9324
3736.000000 0.9325 0.9325 0.9319 0.9312 0.9319
3731.000000 0.9326 0.9327 0.9327 0.9327 0.9327
3726.000000 0.9328 0.9328 0.9329 0.9329 0.9329
3721.000000 0.9329 0.9330 0.9317 0.9320 0.9335
3716.000000 0.9337 0.9338 0.9340 0.9341 0.9347
3711.000000 0.9354 0.9352 0.9362 0.9364 0.9365
3706.000000 0.9367 0.9369 0.9371 0.9372 0.9372
3701.000000 0.9372 0.9374 0.9374 0.9375 0.9375
3696.000000 0.9363 0.9362 0.9364 0.9364 0.9365
3691.000000 0.9365 0.9366 0.9366 0.9368 0.9365
3686.000000 0.9355 0.9355 0.9355 0.9355 0.9357
3681.000000 0.9357 0.9358 0.9358 0.9359 0.9359
3676.000000 0.9360 0.9360 0.9361 0.9361 0.9362
3671.000000 0.9362 0.9375 0.9365 0.9363 0.9363
3666.000000 0.9365 0.9364 0.9366 0.9366 0.9367
3661.000000 0.9367 0.9368 0.9368 0.9369 0.9369
3656.000000 0.9370 0.9370 0.9370 0.9370 0.9371
3651.000000 0.9371 0.9372 0.9372 0.9373 0.9373
3646.000000 0.9374 0.9374 0.9375 0.9375 0.9376
3641.000000 0.9376 0.9376 0.9376 0.9377 0.9377
3636.000000 0.9378 0.9378 0.9379 0.9381 0.9393
3631.000000 0.9393 0.9390 0.9381 0.9386 0.9394
3626.000000 0.9394 0.9393 0.9393 0.9393 0.9393
3621.000000 0.9393 0.9393 0.9393 0.9393 0.9393
3616.000000 0.9393 0.9392 0.9392 0.9392 0.9392
3611.000000 0.9392 0.9392 0.9391 0.9380 0.9392
3606.000000 0.9392 0.9391 0.9391 0.9387 0.9382
3601.000000 0.9391 0.9385 0.9377 0.9384 0.9391
3596.000000 0.9391 0.9390 0.9390 0.9390 0.9390
3591.000000 0.9389 0.9389 0.9389 0.9389 0.9389
3586.000000 0.9389 0.9388 0.9388 0.9388 0.9388
3581.000000 0.9387 0.9387 0.9386 0.9385 0.9384
3576.000000 0.9380 0.9374 0.9383 0.9382 0.9376
3571.000000 0.9367 0.9367 0.9366 0.9366 0.9365
3566.000000 0.9365 0.9364 0.9364 0.9363 0.9363
3561.000000 0.9362 0.9362 0.9361 0.9361 0.9360
3556.000000 0.9360 0.9371 0.9359 0.9361 0.9373
3551.000000 0.9373 0.9371 0.9365 0.9375 0.9375
3546.000000 0.9376 0.9372 0.9371 0.9378 0.9379
3541.000000 0.9379 0.9372 0.9376 0.9372 0.9378
3536.000000 0.9383 0.9383 0.9384 0.9384 0.9385
3531.000000 0.9385 0.9386 0.9372 0.9372 0.9373
3526.000000 0.9374 0.9375 0.9376 0.9376 0.9376
3521.000000 0.9375 0.9375 0.9374 0.9374 0.9373
3516.000000 0.9373 0.9372 0.9372 0.9371 0.9371
3511.000000 0.9370 0.9370 0.9367 0.9364 0.9358
3506.000000 0.9353 0.9346 0.9342 0.9335 0.9330
3501.000000 0.9325 0.9320 0.9313 0.9308 0.9294
3496.000000 0.9279 0.9263 0.9249 0.9233 0.9217
3491.000000 0.9202 0.9186 0.9172 0.9156 0.9134
3486.000000 0.9112 0.9089 0.9068 0.9052 0.9036
3481.000000 0.9029 0.9023 0.9015 0.9008 0.9001
3476.000000 0.8993 0.8985 0.8978 0.8975 0.8940
3471.000000 0.8971 0.8973 0.8976 0.8978 0.8985
3466.000000 0.8992 0.9012 0.9033 0.9049 0.9066
3461.000000 0.9081 0.9095 0.9110 0.9124 0.9139
3456.000000 0.9155 0.9160 0.9165 0.9166 0.9168
3451.000000 0.9169 0.9171 0.9173 0.9175 0.9176
3446.000000 0.9178 0.9179 0.9181 0.9184 0.9186
3441.000000 0.9188 0.9189 0.9192 0.9193 0.9200
3436.000000 0.9206 0.9216 0.9225 0.9234 0.9245
3431.000000 0.9254 0.9265 0.9274 0.9283 0.9295
3426.000000 0.9307 0.9307 0.9330 0.9342 0.9355
3421.000000 0.9367 0.9379 0.9388 0.9397 0.9401
3416.000000 0.9407 0.9411 0.9415 0.9420 0.9424
3411.000000 0.9428 0.9432 0.9436 0.9441 0.9453
3406.000000 0.9455 0.9453 0.9458 0.9460 0.9461
3401.000000 0.9462 0.9462 0.9462 0.9462 0.9462
3396.000000 0.9462 0.9461 0.9461 0.9461 0.9461
3391.000000 0.9461 0.9461 0.9460 0.9460 0.9460
3386.000000 0.9460 0.9459 0.9459 0.9459 0.9459
3381.000000 0.9459 0.9459 0.9458 0.9458 0.9456
3376.000000 0.9456 0.9456 0.9456 0.9456 0.9456
3371.000000 0.9455 0.9466 0.9454 0.9452 0.9452
3366.000000 0.9452 0.9451 0.9451 0.9450 0.9450
3361.000000 0.9448 0.9448 0.9448 0.9448 0.9448
3356.000000 0.9448 0.9447 0.9447 0.9445 0.9445
3351.000000 0.9445 0.9445 0.9444 0.9444 0.9443
3346.000000 0.9443 0.9453 0.9455 0.9443 0.9454
3341.000000 0.9441 0.9441 0.9440 0.9453 0.9453
3336.000000 0.9451 0.9438 0.9438 0.9437 0.9437
3331.000000 0.9436 0.9436 0.9436 0.9436 0.9435
3326.000000 0.9435 0.9434 0.9434 0.9434 0.9434
3321.000000 0.9433 0.9433 0.9432 0.9432 0.9432
3316.000000 0.9432 0.9431 0.9431 0.9430 0.9443
3311.000000 0.9442 0.9442 0.9442 0.9440 0.9430
3306.000000 0.9441 0.9440 0.9436 0.9427 0.9427
3301.000000 0.9426 0.9425 0.9424 0.9424 0.9423
3296.000000 0.9423 0.9422 0.9422 0.9421 0.9421
3291.000000 0.9420 0.9420 0.9419 0.9419 0.9419
3286.000000 0.9419 0.9418 0.9419 0.9430 0.9429
3281.000000 0.9416 0.9418 0.9428 0.9425 0.9414
3276.000000 0.9418 0.9426 0.9426 0.9425 0.9425
3271.000000 0.9424 0.9424 0.9423 0.9423 0.9422
3266.000000 0.9422 0.9421 0.9421 0.9421 0.9421
3261.000000 0.9420 0.9420 0.9419 0.9419 0.9417
3256.000000 0.9405 0.9415 0.9415 0.9415 0.9415
3251.000000 0.9414 0.9414 0.9412 0.9412 0.9410
3246.000000 0.9408 0.9402 0.9401 0.9405 0.9404
3241.000000 0.9402 0.9401 0.9400 0.9399 0.9396
3236.000000 0.9395 0.9393 0.9392 0.9391 0.9390
3231.000000 0.9388 0.9387 0.9385 0.9384 0.9381
3226.000000 0.9368 0.9369 0.9379 0.9378 0.9376
3221.000000 0.9374 0.9373 0.9371 0.9370 0.9369
3216.000000 0.9368 0.9366 0.9365 0.9363 0.9363
3211.000000 0.9362 0.9360 0.9360 0.9347 0.9344
3206.000000 0.9342 0.9342 0.9341 0.9339 0.9339
3201.000000 0.9338 0.9339 0.9347 0.9338 0.9344
3196.000000 0.9336 0.9345 0.9344 0.9343 0.9342
3191.000000 0.9341 0.9333 0.9332 0.9337 0.9336
3186.000000 0.9327 0.9321 0.9320 0.9319 0.9318
3181.000000 0.9317 0.9316 0.9315 0.9314 0.9313
3176.000000 0.9311 0.9310 0.9309 0.9308 0.9307
3171.000000 0.9306 0.9305 0.9304 0.9304 0.9302
3166.000000 0.9300 0.9297 0.9303 0.9307 0.9300
3161.000000 0.9299 0.9303 0.9300 0.9290 0.9294
3156.000000 0.9285 0.9280 0.9290 0.9290 0.9288
3151.000000 0.9286 0.9285 0.9282 0.9267 0.9265
3146.000000 0.9264 0.9262 0.9260 0.9258 0.9257
3141.000000 0.9259 0.9266 0.9264 0.9263 0.9261
3136.000000 0.9260 0.9258 0.9254 0.9253 0.9252
3131.000000 0.9250 0.9247 0.9246 0.9244 0.9241
3126.000000 0.9239 0.9237 0.9234 0.9231 0.9229
3121.000000 0.9226 0.9224 0.9222 0.9220 0.9217
3116.000000 0.9215 0.9211 0.9209 0.9207 0.9205
3111.000000 0.9202 0.9200 0.9197 0.9195 0.9200
3106.000000 0.9204 0.9200 0.9198 0.9194 0.9190
3101.000000 0.9186 0.9192 0.9190 0.9185 0.9193
3096.000000 0.9202 0.9211 0.9208 0.9204 0.9198
3091.000000 0.9182 0.9175 0.9158 0.9143 0.9143
3086.000000 0.9144 0.9126 0.9114 0.9110 0.9106
3081.000000 0.9103 0.9101 0.9097 0.9102 0.9112
3076.000000 0.9113 0.9109 0.9116 0.9116 0.9102
3071.000000 0.9096 0.9092 0.9077 0.9086 0.9070
3066.000000 0.9067 0.9059 0.9051 0.9033 0.9026
3061.000000 0.9018 0.9016 0.9018 0.9010 0.8998
3056.000000 0.8983 0.8982 0.8975 0.8962 0.8953
3051.000000 0.8954 0.8954 0.8946 0.8939 0.8931
3046.000000 0.8934 0.8925 0.8925 0.8927 0.8929
3041.000000 0.8930 0.8933 0.8921 0.8911 0.8897
3036.000000 0.8873 0.8851 0.8838 0.8810 0.8787
3031.000000 0.8771 0.8752 0.8730 0.8715 0.8693
3026.000000 0.8672 0.8652 0.8635 0.8609 0.8583
3021.000000 0.8557 0.8532 0.8517 0.8493 0.8470
3016.000000 0.8434 0.8410 0.8384 0.8366 0.8346
3011.000000 0.8332 0.8321 0.8309 0.8295 0.8273
3006.000000 0.8264 0.8265 0.8258 0.8247 0.8234
3001.000000 0.8228 0.8228 0.8220 0.8208 0.8203
2996.000000 0.8197 0.8193 0.8188 0.8196 0.8198
2991.000000 0.8181 0.8167 0.8142 0.8115 0.8069
2986.000000 0.8024 0.8010 0.7998 0.7996 0.7995
2981.000000 0.7993 0.7995 0.7998 0.7989 0.7979
2976.000000 0.7982 0.7976 0.7970 0.7966 0.7960
2971.000000 0.7952 0.7944 0.7942 0.7935 0.7916
2966.000000 0.7897 0.7843 0.7788 0.7705 0.7621
2961.000000 0.7556 0.7490 0.7453 0.7403 0.7343
2956.000000 0.7291 0.7236 0.7183 0.7145 0.7099
2951.000000 0.7073 0.7046 0.7020 0.6994 0.6933
2946.000000 0.6872 0.6757 0.6650 0.6534 0.6423
2941.000000 0.6304 0.6195 0.6083 0.5969 0.5869
2936.000000 0.5794 0.5757 0.5752 0.5751 0.5751
2931.000000 0.5755 0.5760 0.5837 0.5914 0.6048
2926.000000 0.6183 0.6317 0.6451 0.6585 0.6715
2921.000000 0.6844 0.6978 0.7113 0.7246 0.7381
2916.000000 0.7515 0.7649 0.7783 0.7916 0.8052
2911.000000 0.8185 0.8320 0.8454 0.8599 0.8657
2906.000000 0.8702 0.8730 0.8758 0.8775 0.8793
2901.000000 0.8810 0.8827 0.8842 0.8857 0.8864
2896.000000 0.8871 0.8879 0.8887 0.8894 0.8902
2891.000000 0.8909 0.8917 0.8924 0.8930 0.8934
2886.000000 0.8938 0.8942 0.8948 0.8952 0.8956
2881.000000 0.8960 0.8964 0.8969 0.8973 0.8960
2876.000000 0.8975 0.8976 0.8977 0.8977 0.8979
2871.000000 0.8980 0.8982 0.8983 0.8984 0.8985
2866.000000 0.8986 0.8987 0.8988 0.8989 0.8991
2861.000000 0.8991 0.8992 0.8993 0.8994 0.8996
2856.000000 0.8997 0.8998 0.8987 0.8987 0.8988
2851.000000 0.8989 0.8990 0.8991 0.8992 0.8995
2846.000000 0.9007 0.9008 0.9007 0.9002 0.9012
2841.000000 0.9013 0.9010 0.9009 0.9017 0.9018
2836.000000 0.9013 0.9009 0.9008 0.9011 0.9012
2831.000000 0.9012 0.9015 0.9026 0.9018 0.9029
2826.000000 0.9032 0.9022 0.9022 0.9036 0.9025
2821.000000 0.9038 0.9040 0.9039 0.9029 0.9030
2816.000000 0.9031 0.9032 0.9033 0.9034 0.9035
2811.000000 0.9036 0.9037 0.9039 0.9047 0.9054
2806.000000 0.9055 0.9055 0.9056 0.9057 0.9057
2801.000000 0.9057 0.9056 0.9054 0.9054 0.9053
2796.000000 0.9053 0.9052 0.9052 0.9051 0.9049
2791.000000 0.9040 0.9046 0.9034 0.9033 0.9031
2786.000000 0.9030 0.9033 0.9040 0.9031 0.9022
2781.000000 0.9030 0.9036 0.9039 0.9041 0.9043
2776.000000 0.9046 0.9048 0.9051 0.9054 0.9058
2771.000000 0.9062 0.9068 0.9073 0.9078 0.9082
2766.000000 0.9088 0.9092 0.9097 0.9102 0.9107
2761.000000 0.9108 0.9111 0.9112 0.9113 0.9113
2756.000000 0.9114 0.9115 0.9116 0.9117 0.9118
2751.000000 0.9118 0.9119 0.9120 0.9121 0.9122
2746.000000 0.9123 0.9124 0.9125 0.9125 0.9125
2741.000000 0.9127 0.9128 0.9128 0.9130 0.9130
2736.000000 0.9130 0.9130 0.9130 0.9128 0.9128
2731.000000 0.9128 0.9128 0.9127 0.9125 0.9125
2726.000000 0.9125 0.9124 0.9124 0.9123 0.9123
2721.000000 0.9122 0.9122 0.9120 0.9120 0.9119
2716.000000 0.9119 0.9118 0.9118 0.9117 0.9117
2711.000000 0.9116 0.9116 0.9115 0.9115 0.9115
2706.000000 0.9115 0.9115 0.9115 0.9115 0.9115
2701.000000 0.9115 0.9115 0.9115 0.9116 0.9116
2696.000000 0.9116 0.9116 0.9116 0.9116 0.9116
2691.000000 0.9116 0.9116 0.9116 0.9116 0.9116
2686.000000 0.9116 0.9116 0.9117 0.9117 0.9117
2681.000000 0.9117 0.9117 0.9117 0.9117 0.9117
2676.000000 0.9117 0.9117 0.9117 0.9117 0.9117
2671.000000 0.9117 0.9117 0.9117 0.9117 0.9117
2666.000000 0.9117 0.9117 0.9117 0.9117 0.9117
2661.000000 0.9117 0.9117 0.9117 0.9118 0.9130
2656.000000 0.9130 0.9130 0.9130 0.9130 0.9130
2651.000000 0.9125 0.9116 0.9116 0.9123 0.9129
2646.000000 0.9129 0.9122 0.9116 0.9116 0.9125
2641.000000 0.9120 0.9116 0.9116 0.9116 0.9116
2636.000000 0.9116 0.9116 0.9130 0.9130 0.9131
2631.000000 0.9118 0.9121 0.9132 0.9132 0.9132
2626.000000 0.9133 0.9133 0.9134 0.9134 0.9135
2621.000000 0.9135 0.9136 0.9136 0.9136 0.9136
2616.000000 0.9139 0.9139 0.9140 0.9140 0.9140
2611.000000 0.9140 0.9142 0.9142 0.9143 0.9143
2606.000000 0.9144 0.9144 0.9144 0.9144 0.9146
2601.000000 0.9146 0.9146 0.9146 0.9147 0.9147
2596.000000 0.9147 0.9147 0.9147 0.9147 0.9149
2591.000000 0.9149 0.9150 0.9150 0.9150 0.9150
2586.000000 0.9151 0.9151 0.9151 0.9151 0.9152
2581.000000 0.9152 0.9152 0.9152 0.9153 0.9153
2576.000000 0.9154 0.9154 0.9154 0.9154 0.9154
2571.000000 0.9154 0.9154 0.9154 0.9154 0.9153
2566.000000 0.9153 0.9153 0.9153 0.9153 0.9153
2561.000000 0.9153 0.9153 0.9152 0.9152 0.9152
2556.000000 0.9152 0.9151 0.9151 0.9150 0.9150
2551.000000 0.9149 0.9149 0.9148 0.9148 0.9146
2546.000000 0.9146 0.9146 0.9146 0.9145 0.9145
2541.000000 0.9143 0.9143 0.9143 0.9143 0.9142
2536.000000 0.9142 0.9141 0.9139 0.9139 0.9139
2531.000000 0.9137 0.9135 0.9133 0.9130 0.9126
2526.000000 0.9122 0.9117 0.9113 0.9109 0.9106
2521.000000 0.9102 0.9098 0.9093 0.9090 0.9089
2516.000000 0.9088 0.9086 0.9086 0.9086 0.9085
2511.000000 0.9083 0.9083 0.9082 0.9082 0.9082
2506.000000 0.9082 0.9082 0.9082 0.9081 0.9081
2501.000000 0.9081 0.9081 0.9079 0.9079 0.9079
2496.000000 0.9079 0.9079 0.9079 0.9078 0.9078
2491.000000 0.9078 0.9078 0.9078 0.9078 0.9079
2486.000000 0.9080 0.9080 0.9081 0.9082 0.9082
2481.000000 0.9090 0.9097 0.9098 0.9098 0.9098
2476.000000 0.9101 0.9102 0.9103 0.9103 0.9103
2471.000000 0.9105 0.9106 0.9106 0.9106 0.9108
2466.000000 0.9109 0.9110 0.9111 0.9111 0.9112
2461.000000 0.9112 0.9113 0.9113 0.9107 0.9106
2456.000000 0.9106 0.9100 0.9100 0.9108 0.9113
2451.000000 0.9113 0.9103 0.9110 0.9114 0.9114
2446.000000 0.9114 0.9114 0.9114 0.9114 0.9114
2441.000000 0.9114 0.9114 0.9114 0.9114 0.9114
2436.000000 0.9114 0.9114 0.9115 0.9115 0.9115
2431.000000 0.9115 0.9115 0.9115 0.9115 0.9115
2426.000000 0.9115 0.9115 0.9115 0.9115 0.9115
2421.000000 0.9115 0.9115 0.9115 0.9116 0.9116
2416.000000 0.9116 0.9116 0.9116 0.9116 0.9116
2411.000000 0.9115 0.9115 0.9119 0.9125 0.9121
2406.000000 0.9130 0.9130 0.9130 0.9130 0.9129
2401.000000 0.9129 0.9131 0.9131 0.9130 0.9130
2396.000000 0.9130 0.9130 0.9130 0.9130 0.9130
2391.000000 0.9129 0.9129 0.9141 0.9140 0.9139
2386.000000 0.9139 0.9140 0.9151 0.9150 0.9153
2381.000000 0.9161 0.9161 0.9165 0.9173 0.9178
2376.000000 0.9183 0.9183 0.9191 0.9195 0.9193
2371.000000 0.9193 0.9193 0.9182 0.9179 0.9178
2366.000000 0.9176 0.9176 0.9176 0.9176 0.9176
2361.000000 0.9175 0.9188 0.9189 0.9201 0.9201
2356.000000 0.9215 0.9225 0.9225 0.9225 0.9225
2351.000000 0.9218 0.9209 0.9206 0.9209 0.9220
2346.000000 0.9223 0.9220 0.9208 0.9201 0.9197
2341.000000 0.9194 0.9191 0.9177 0.9184 0.9182
2336.000000 0.9167 0.9162 0.9172 0.9170 0.9167
2331.000000 0.9166 0.9174 0.9171 0.9168 0.9168
2326.000000 0.9175 0.9176 0.9182 0.9179 0.9176
2321.000000 0.9173 0.9168 0.9165 0.9163 0.9160
2316.000000 0.9158 0.9155 0.9152 0.9149 0.9147
2311.000000 0.9144 0.9142 0.9138 0.9136 0.9133
2306.000000 0.9131 0.9128 0.9126 0.9122 0.9120
2301.000000 0.9117 0.9115 0.9118 0.9125 0.9125
2296.000000 0.9124 0.9123 0.9120 0.9120 0.9119
2291.000000 0.9117 0.9117 0.9116 0.9105 0.9101
2286.000000 0.9101 0.9100 0.9099 0.9085 0.9083
2281.000000 0.9083 0.9084 0.9086 0.9076 0.9078
2276.000000 0.9078 0.9068 0.9071 0.9075 0.9076
2271.000000 0.9072 0.9077 0.9076 0.9073 0.9078
2266.000000 0.9083 0.9080 0.9078 0.9084 0.9089
2261.000000 0.9084 0.9085 0.9089 0.9082 0.9081
2256.000000 0.9083 0.9084 0.9073 0.9074 0.9076
2251.000000 0.9076 0.9066 0.9067 0.9068 0.9069
2246.000000 0.9072 0.9068 0.9062 0.9063 0.9065
2241.000000 0.9066 0.9068 0.9069 0.9071 0.9072
2236.000000 0.9073 0.9066 0.9063 0.9065 0.9067
2231.000000 0.9069 0.9071 0.9072 0.9074 0.9075
2226.000000 0.9077 0.9078 0.9080 0.9081 0.9081
2221.000000 0.9071 0.9073 0.9074 0.9076 0.9077
2216.000000 0.9079 0.9081 0.9083 0.9084 0.9086
2211.000000 0.9087 0.9089 0.9090 0.9092 0.9092
2206.000000 0.9095 0.9095 0.9098 0.9099 0.9101
2201.000000 0.9102 0.9104 0.9106 0.9108 0.9109
2196.000000 0.9109 0.9101 0.9114 0.9112 0.9104
2191.000000 0.9105 0.9107 0.9108 0.9109 0.9110
2186.000000 0.9111 0.9111 0.9120 0.9117 0.9113
2181.000000 0.9114 0.9115 0.9115 0.9127 0.9130
2176.000000 0.9131 0.9131 0.9132 0.9133 0.9135
2171.000000 0.9135 0.9136 0.9134 0.9124 0.9125
2166.000000 0.9126 0.9126 0.9127 0.9128 0.9129
2161.000000 0.9129 0.9130 0.9130 0.9130 0.9130
2156.000000 0.9130 0.9130 0.9130 0.9130 0.9130
2151.000000 0.9130 0.9130 0.9130 0.9130 0.9130
2146.000000 0.9130 0.9130 0.9130 0.9129 0.9129
2141.000000 0.9129 0.9129 0.9129 0.9129 0.9129
2136.000000 0.9129 0.9129 0.9129 0.9129 0.9129
2131.000000 0.9129 0.9129 0.9129 0.9129 0.9129
2126.000000 0.9129 0.9129 0.9129 0.9129 0.9119
2121.000000 0.9129 0.9133 0.9133 0.9137 0.9138
2116.000000 0.9140 0.9141 0.9143 0.9144 0.9145
2111.000000 0.9146 0.9148 0.9149 0.9151 0.9152
2106.000000 0.9154 0.9155 0.9156 0.9157 0.9159
2101.000000 0.9160 0.9162 0.9164 0.9156 0.9152
2096.000000 0.9164 0.9167 0.9156 0.9166 0.9169
2091.000000 0.9169 0.9170 0.9170 0.9170 0.9170
2086.000000 0.9171 0.9171 0.9172 0.9172 0.9173
2081.000000 0.9173 0.9174 0.9174 0.9175 0.9175
2076.000000 0.9175 0.9175 0.9176 0.9176 0.9177
2071.000000 0.9177 0.9177 0.9177 0.9177 0.9177
2066.000000 0.9177 0.9176 0.9176 0.9176 0.9176
2061.000000 0.9176 0.9176 0.9176 0.9176 0.9179
2056.000000 0.9189 0.9189 0.9189 0.9189 0.9183
2051.000000 0.9182 0.9189 0.9182 0.9176 0.9176
2046.000000 0.9176 0.9176 0.9176 0.9176 0.9177
2041.000000 0.9177 0.9177 0.9177 0.9178 0.9178
2036.000000 0.9178 0.9178 0.9178 0.9178 0.9178
2031.000000 0.9177 0.9177 0.9177 0.9181 0.9185
2026.000000 0.9176 0.9182 0.9189 0.9188 0.9188
2021.000000 0.9188 0.9188 0.9187 0.9186 0.9185
2016.000000 0.9184 0.9182 0.9181 0.9179 0.9178
2011.000000 0.9177 0.9176 0.9173 0.9172 0.9168
2006.000000 0.9165 0.9161 0.9157 0.9152 0.9148
2001.000000 0.9140 0.9132 0.9126 0.9112 0.9097
1996.000000 0.9089 0.9079 0.9072 0.9065 0.9056
1991.000000 0.9047 0.9042 0.9036 0.9030 0.9024
1986.000000 0.9008 0.9001 0.8995 0.8989 0.8987
1981.000000 0.8985 0.8982 0.8977 0.8963 0.8959
1976.000000 0.8956 0.8953 0.8952 0.8952 0.8952
1971.000000 0.8952 0.8952 0.8952 0.8952 0.8952
1966.000000 0.8960 0.8963 0.8965 0.8987 0.9072
1961.000000 0.9174 0.9227 0.9196 0.9165 0.9135
1956.000000 0.9105 0.9082 0.9057 0.9046 0.9034
1951.000000 0.9023 0.9010 0.8988 0.8980 0.8980
1946.000000 0.8980 0.8980 0.8980 0.8981 0.8982
1941.000000 0.8982 0.8983 0.8983 0.8984 0.8985
1936.000000 0.8985 0.8985 0.8985 0.8985 0.8980
1931.000000 0.8977 0.8974 0.8970 0.8967 0.8966
1926.000000 0.8964 0.8963 0.8962 0.8960 0.8958
1921.000000 0.8957 0.8955 0.8954 0.8952 0.8951
1916.000000 0.8950 0.8948 0.8947 0.8946 0.8946
1911.000000 0.8945 0.8943 0.8943 0.8942 0.8951
1906.000000 0.8952 0.8952 0.8952 0.8952 0.8954
1901.000000 0.8955 0.8955 0.8955 0.8957 0.8958
1896.000000 0.8958 0.8954 0.8950 0.8945 0.8942
1891.000000 0.8933 0.8921 0.8916 0.8912 0.8908
1886.000000 0.8905 0.8901 0.8904 0.8905 0.8900
1881.000000 0.8898 0.8895 0.8891 0.8889 0.8886
1876.000000 0.8883 0.8892 0.8889 0.8887 0.8884
1871.000000 0.8881 0.8878 0.8873 0.8868 0.8863
1866.000000 0.8860 0.8856 0.8852 0.8847 0.8843
1861.000000 0.8839 0.8836 0.8832 0.8828 0.8832
1856.000000 0.8825 0.8816 0.8813 0.8808 0.8803
1851.000000 0.8800 0.8797 0.8793 0.8789 0.8786
1846.000000 0.8782 0.8779 0.8768 0.8768 0.8769
1841.000000 0.8766 0.8762 0.8758 0.8755 0.8751
1836.000000 0.8742 0.8729 0.8724 0.8719 0.8712
1831.000000 0.8707 0.8702 0.8697 0.8690 0.8683
1826.000000 0.8674 0.8664 0.8655 0.8645 0.8637
1821.000000 0.8628 0.8618 0.8621 0.8612 0.8603
1816.000000 0.8594 0.8577 0.8558 0.8538 0.8521
1811.000000 0.8502 0.8483 0.8460 0.8432 0.8394
1806.000000 0.8352 0.8310 0.8262 0.8202 0.8149
1801.000000 0.8097 0.8037 0.7962 0.7885 0.7841
1796.000000 0.7807 0.7764 0.7728 0.7710 0.7693
1791.000000 0.7674 0.7657 0.7638 0.7615 0.7591
1786.000000 0.7565 0.7542 0.7508 0.7471 0.7443
1781.000000 0.7412 0.7384 0.7354 0.7323 0.7294
1776.000000 0.7243 0.7171 0.7096 0.7008 0.6919
1771.000000 0.6804 0.6667 0.6528 0.6238 0.5769
1766.000000 0.4985 0.4659 0.4260 0.3903 0.3669
1761.000000 0.3503 0.3421 0.2998 0.2578 0.2153
1756.000000 0.1729 0.1304 0.0879 0.0329 0.0257
1751.000000 0.0226 0.0201 0.0188 0.0186 0.0183
1746.000000 0.0193 0.0215 0.0243 0.0289 0.0378
1741.000000 0.0471 0.0564 0.0657 0.0710 0.0740
1736.000000 0.0713 0.0660 0.0607 0.0554 0.0500
1731.000000 0.0501 0.0502 0.0484 0.0832 0.1316
1726.000000 0.1800 0.2283 0.2767 0.3252 0.3735
1721.000000 0.4532 0.4820 0.5446 0.5723 0.5933
1716.000000 0.6122 0.6285 0.6376 0.6469 0.6562
1711.000000 0.6654 0.6747 0.6841 0.6934 0.7026
1706.000000 0.7106 0.7173 0.7242 0.7309 0.7376
1701.000000 0.7435 0.7484 0.7533 0.7582 0.7631
1696.000000 0.7679 0.7722 0.7764 0.7806 0.7851
1691.000000 0.7893 0.7936 0.7978 0.8018 0.8059
1686.000000 0.8099 0.8139 0.8178 0.8219 0.8255
1681.000000 0.8291 0.8325 0.8360 0.8397 0.8432
1676.000000 0.8466 0.8494 0.8524 0.8549 0.8576
1671.000000 0.8598 0.8618 0.8638 0.8655 0.8665
1666.000000 0.8674 0.8682 0.8691 0.8701 0.8712
1661.000000 0.8722 0.8745 0.8747 0.8758 0.8783
1656.000000 0.8803 0.8826 0.8848 0.8891 0.8931
1651.000000 0.8987 0.9021 0.9040 0.9052 0.9061
1646.000000 0.9073 0.9084 0.9116 0.9089 0.9094
1641.000000 0.9093 0.9087 0.9081 0.9083 0.9082
1636.000000 0.9086 0.9083 0.9072 0.9068 0.9056
1631.000000 0.9054 0.9040 0.9039 0.9025 0.9022
1626.000000 0.9004 0.8983 0.8987 0.8983 0.8992
1621.000000 0.8986 0.8972 0.8970 0.8970 0.8971
1616.000000 0.8984 0.9000 0.9011 0.9022 0.9035
1611.000000 0.9051 0.9048 0.9058 0.9068 0.9065
1606.000000 0.9074 0.9038 0.9055 0.9046 0.9006
1601.000000 0.8914 0.8873 0.8870 0.8876 0.8869
1596.000000 0.8817 0.8748 0.8681 0.8593 0.8515
1591.000000 0.8439 0.8375 0.8337 0.8333 0.8320
1586.000000 0.8310 0.8292 0.8310 0.8337 0.8329
1581.000000 0.8330 0.8322 0.8318 0.8298 0.8293
1576.000000 0.8277 0.8249 0.8236 0.8210 0.8170
1571.000000 0.8137 0.8082 0.8044 0.7888 0.7774
1566.000000 0.7736 0.7713 0.7685 0.7575 0.7482
1561.000000 0.7455 0.7458 0.7443 0.7412 0.7390
1556.000000 0.7385 0.7440 0.7492 0.7534 0.7600
1551.000000 0.7653 0.7674 0.7659 0.7631 0.7597
1546.000000 0.7564 0.7612 0.7675 0.7736 0.7742
1541.000000 0.7724 0.7706 0.7676 0.7686 0.7668
1536.000000 0.7690 0.7734 0.7749 0.7760 0.7775
1531.000000 0.7790 0.7812 0.7844 0.7875 0.7905
1526.000000 0.7945 0.7987 0.8033 0.8064 0.8106
1521.000000 0.8136 0.8176 0.8216 0.8228 0.8251
1516.000000 0.8271 0.8283 0.8302 0.8314 0.8331
1511.000000 0.8337 0.8348 0.8360 0.8365 0.8370
1506.000000 0.8375 0.8379 0.8388 0.8393 0.8392
1501.000000 0.8402 0.8413 0.8427 0.8428 0.8439
1496.000000 0.8451 0.8467 0.8471 0.8489 0.8506
1491.000000 0.8523 0.8538 0.8551 0.8562 0.8577
1486.000000 0.8601 0.8621 0.8644 0.8682 0.8728
1481.000000 0.8768 0.8789 0.8787 0.8780 0.8765
1476.000000 0.8768 0.8771 0.8767 0.8767 0.8760
1471.000000 0.8748 0.8737 0.8726 0.8716 0.8717
1466.000000 0.8707 0.8707 0.8696 0.8693 0.8679
1461.000000 0.8676 0.8673 0.8667 0.8655 0.8651
1456.000000 0.8648 0.8640 0.8629 0.8627 0.8620
1451.000000 0.8618 0.8611 0.8567 0.8547 0.8516
1446.000000 0.8492 0.8470 0.8434 0.8399 0.8364
1441.000000 0.8329 0.8258 0.8190 0.8122 0.8017
1436.000000 0.7908 0.7807 0.7708 0.7616 0.7538
1431.000000 0.7466 0.7340 0.7216 0.7064 0.6936
1426.000000 0.6845 0.6565 0.6262 0.5960 0.5661
1421.000000 0.5364 0.5252 0.5205 0.5158 0.5075
1416.000000 0.4997 0.4965 0.4961 0.4956 0.4952
1411.000000 0.4952 0.4952 0.4946 0.4694 0.4441
1406.000000 0.4188 0.3936 0.3684 0.3429 0.3178
1401.000000 0.2926 0.2673 0.2420 0.2175 0.2201
1396.000000 0.2200 0.2540 0.2979 0.3418 0.3855
1391.000000 0.4294 0.4739 0.5186 0.5627 0.6083
1386.000000 0.6545 0.7009 0.7680 0.7785 0.7870
1381.000000 0.7930 0.7998 0.8070 0.8130 0.8190
1376.000000 0.8244 0.8291 0.8344 0.8395 0.8448
1371.000000 0.8499 0.8552 0.8618 0.8660 0.8699
1366.000000 0.8721 0.8738 0.8747 0.8752 0.8756
1361.000000 0.8761 0.8765 0.8766 0.8766 0.8763
1356.000000 0.8747 0.8745 0.8742 0.8739 0.8736
1351.000000 0.8733 0.8730 0.8726 0.8719 0.8708
1346.000000 0.8693 0.8680 0.8666 0.8653 0.8633
1341.000000 0.8621 0.8606 0.8592 0.8584 0.8576
1336.000000 0.8567 0.8559 0.8551 0.8542 0.8534
1331.000000 0.8525 0.8512 0.8487 0.8472 0.8461
1326.000000 0.8446 0.8423 0.8409 0.8387 0.8337
1321.000000 0.8297 0.8258 0.8209 0.8145 0.8087
1316.000000 0.8030 0.7939 0.7837 0.7734 0.7633
1311.000000 0.7536 0.7440 0.7287 0.7113 0.6819
1306.000000 0.6700 0.6563 0.6405 0.6257 0.6109
1301.000000 0.6064 0.6087 0.6156 0.6227 0.6297
1296.000000 0.6370 0.6447 0.6517 0.6586 0.6656
1291.000000 0.6779 0.6725 0.6732 0.6734 0.6725
1286.000000 0.6654 0.6582 0.6512 0.6441 0.6368
1281.000000 0.6298 0.6241 0.6270 0.6266 0.6314
1276.000000 0.6377 0.6432 0.6486 0.6541 0.6595
1271.000000 0.6625 0.6625 0.6623 0.6610 0.6466
1266.000000 0.6325 0.6177 0.6034 0.5892 0.5745
1261.000000 0.5597 0.5449 0.5303 0.5155 0.5007
1256.000000 0.4860 0.4850 0.4851 0.4964 0.5178
1251.000000 0.5391 0.5604 0.5819 0.6032 0.6247
1246.000000 0.6461 0.6673 0.6878 0.7091 0.7305
1241.000000 0.7521 0.7504 0.7509 0.7491 0.7379
1236.000000 0.7267 0.7154 0.7041 0.6934 0.6826
1231.000000 0.6714 0.6600 0.6488 0.6375 0.6289
1226.000000 0.6311 0.6307 0.6305 0.6443 0.6614
1221.000000 0.6785 0.6956 0.7126 0.7298 0.7417
1216.000000 0.7493 0.7556 0.7598 0.7642 0.7681
1211.000000 0.7713 0.7737 0.7747 0.7758 0.7756
1206.000000 0.7755 0.7759 0.7751 0.7744 0.7703
1201.000000 0.7623 0.7493 0.7427 0.7355 0.7292
1196.000000 0.7249 0.7244 0.7242 0.7242 0.7237
1191.000000 0.7217 0.7252 0.7287 0.7319 0.7350
1186.000000 0.7381 0.7413 0.7445 0.7473 0.7501
1181.000000 0.7537 0.7585 0.7631 0.7678 0.7732
1176.000000 0.7786 0.7808 0.7830 0.7849 0.7861
1171.000000 0.7866 0.7870 0.7875 0.7908 0.7891
1166.000000 0.7866 0.7813 0.7753 0.7692 0.7631
1161.000000 0.7569 0.7514 0.7471 0.7426 0.7380
1156.000000 0.7336 0.7292 0.7256 0.7221 0.7186
1151.000000 0.7143 0.7114 0.7086 0.7047 0.7014
1146.000000 0.6985 0.6958 0.6931 0.6901 0.6901
1141.000000 0.6905 0.6908 0.6922 0.6935 0.6947
1136.000000 0.6949 0.6959 0.6958 0.6951 0.6951
1131.000000 0.6952 0.6951 0.6944 0.6934 0.6930
1126.000000 0.6906 0.6871 0.6836 0.6790 0.6740
1121.000000 0.6685 0.6590 0.6485 0.6425 0.6364
1116.000000 0.6312 0.6261 0.6214 0.6192 0.6170
1111.000000 0.6148 0.6130 0.6134 0.6113 0.6114
1106.000000 0.6122 0.6141 0.6162 0.6184 0.6218
1101.000000 0.6260 0.6302 0.6362 0.6419 0.6462
1096.000000 0.6506 0.6550 0.6593 0.6636 0.6682
1091.000000 0.6726 0.6770 0.6813 0.6856 0.6900
1086.000000 0.6945 0.6989 0.7033 0.7076 0.7119
1081.000000 0.7153 0.7198 0.7239 0.7275 0.7315
1076.000000 0.7351 0.7396 0.7439 0.7488 0.7538
1071.000000 0.7582 0.7625 0.7669 0.7713 0.7757
1066.000000 0.7801 0.7845 0.7887 0.7932 0.7982
1061.000000 0.7996 0.8007 0.8027 0.7992 0.7958
1056.000000 0.7912 0.7876 0.7840 0.7806 0.7770
1051.000000 0.7738 0.7710 0.7676 0.7660 0.7620
1046.000000 0.7680 0.7727 0.7845 0.7964 0.8084
1041.000000 0.8201 0.8320 0.8440 0.8535 0.8596
1036.000000 0.8658 0.8704 0.8746 0.8788 0.8829
1031.000000 0.8870 0.8891 0.8915 0.8938 0.8962
1026.000000 0.8983 0.8997 0.9020 0.9035 0.9043
1021.000000 0.9051 0.9060 0.9069 0.9077 0.9086
1016.000000 0.9094 0.9102 0.9110 0.9119 0.9123
1011.000000 0.9127 0.9131 0.9134 0.9128 0.9130
1006.000000 0.9134 0.9138 0.9129 0.9133 0.9137
1001.000000 0.9142 0.9142 0.9145 0.9142 0.9133
996.000000 0.9135 0.9135 0.9137 0.9138 0.9146
991.000000 0.9156 0.9155 0.9157 0.9157 0.9157
986.000000 0.9144 0.9155 0.9154 0.9153 0.9151
981.000000 0.9151 0.9150 0.9148 0.9147 0.9143
976.000000 0.9137 0.9130 0.9122 0.9114 0.9098
971.000000 0.9101 0.9095 0.9087 0.9080 0.9074
966.000000 0.9066 0.9052 0.9036 0.9020 0.9004
961.000000 0.8981 0.8958 0.8936 0.8913 0.8889
956.000000 0.8851 0.8813 0.8775 0.8736 0.8663
951.000000 0.8582 0.8497 0.8226 0.7981 0.7734
946.000000 0.7560 0.7551 0.7552 0.7552 0.7636
941.000000 0.7821 0.8004 0.8189 0.8371 0.8506
936.000000 0.8571 0.8640 0.8708 0.8756 0.8803
931.000000 0.8851 0.8882 0.8898 0.8915 0.8933
926.000000 0.8949 0.8967 0.8984 0.8993 0.8998
921.000000 0.9004 0.9009 0.9017 0.9032 0.9027
916.000000 0.9040 0.9042 0.9044 0.9047 0.9055
911.000000 0.9066 0.9066 0.9066 0.9073 0.9079
906.000000 0.9078 0.9085 0.9090 0.9086 0.9093
901.000000 0.9090 0.9096 0.9094 0.9097 0.9101
896.000000 0.9104 0.9109 0.9125 0.9131 0.9128
891.000000 0.9125 0.9122 0.9122 0.9118 0.9106
886.000000 0.9098 0.9087 0.9082 0.9073 0.9056
881.000000 0.9046 0.9033 0.9001 0.8967 0.8934
876.000000 0.8906 0.8878 0.8850 0.8822 0.8793
871.000000 0.8764 0.8735 0.8705 0.8676 0.8660
866.000000 0.8630 0.8601 0.8584 0.8564 0.8532
861.000000 0.8504 0.8483 0.8451 0.8413 0.8368
856.000000 0.8316 0.8257 0.8183 0.8125 0.8066
851.000000 0.8011 0.7953 0.7883 0.7818 0.7759
846.000000 0.7701 0.7659 0.7605 0.7564 0.7514
841.000000 0.7459 0.7407 0.7357 0.7274 0.7164
836.000000 0.7068 0.6984 0.6907 0.6824 0.6750
831.000000 0.6676 0.6606 0.6537 0.6464 0.6395
826.000000 0.6326 0.6257 0.6194 0.6131 0.6067
821.000000 0.5996 0.5931 0.5867 0.5816 0.5772
816.000000 0.5750 0.5741 0.5734 0.5732 0.5749
811.000000 0.5782 0.5817 0.5874 0.5983 0.6062
806.000000 0.6152 0.6245 0.6331 0.6419 0.6505
801.000000 0.6592 0.6679 0.6766 0.6852 0.6907
796.000000 0.6932 0.6957 0.6969 0.6983 0.6999
791.000000 0.7021 0.7024 0.7044 0.7030 0.7024
786.000000 0.6987 0.6939 0.6878 0.6811 0.6745
781.000000 0.6687 0.6623 0.6565 0.6505 0.6442
776.000000 0.6386 0.6354 0.6339 0.6330 0.6300
771.000000 0.6323 0.6343 0.6403 0.6471 0.6542
766.000000 0.6613 0.6676 0.6745 0.6816 0.6886
761.000000 0.6957 0.7028 0.7099 0.7170 0.7241
756.000000 0.7311 0.7336 0.7354 0.7374 0.7381
751.000000 0.7442 0.7389 0.7384 0.7366 0.7330
746.000000 0.7120 0.6866 0.6614 0.6360 0.6108
741.000000 0.5854 0.5601 0.5348 0.5095 0.5003
736.000000 0.4965 0.4956 0.4950 0.4952 0.4978
731.000000 0.5040 0.5131 0.5257 0.5382 0.5506
726.000000 0.5634 0.5764 0.5890 0.6018 0.6149
721.000000 0.6278 0.6404 0.6525 0.6644 0.6771
716.000000 0.6894 0.7015 0.7147 0.7275 0.7401
711.000000 0.7526 0.7651 0.7777 0.7896 0.7960
706.000000 0.8004 0.8037 0.8064 0.8100 0.8113
701.000000 0.8126 0.8135 0.8132 0.8112 0.8062
696.000000 0.7985 0.7913 0.7843 0.7766 0.7725
691.000000 0.7717 0.7661 0.7741 0.7818 0.7982
686.000000 0.8065 0.8159 0.8286 0.8387 0.8456
681.000000 0.8527 0.8605 0.8647 0.8714 0.8769
676.000000 0.8818 0.8851 0.8864 0.8885 0.8898
671.000000 0.8923 0.8967 0.9078 0.9158 0.9095
666.000000 0.9042 0.9053 0.9056 0.9091 0.9097
661.000000 0.9112 0.9134 0.9149 0.9139 0.9139
656.000000 0.9130 0.9106 0.9062 0.9016 0.8952
651.000000 0.8901 0.8806 0.8732 0.8725 0.8717
646.000000 0.8700 0.8694 0.8686 0.8671 0.8666
641.000000 0.8659 0.8649 0.8646 0.8625 0.8604
636.000000 0.8595 0.8572 0.8523 0.8475 0.8367
631.000000 0.8023 0.7716 0.7411 0.7112 0.7111
626.000000 0.7225 0.7393 0.7561 0.7721 0.7889
621.000000 0.8058 0.8187 0.8288 0.8375 0.8449
616.000000 0.8509 0.8571 0.8611 0.8637 0.8666
611.000000 0.8682 0.8697 0.8712 0.8727 0.8726
606.000000 0.8729 0.8736 0.8744 0.8751 0.8758
601.000000 0.8761 0.8764 0.8767 0.8770 0.8773
596.000000 0.8776 0.8778 0.8778 0.8778 0.8778
591.000000 0.8777 0.8778 0.8777 0.8777 0.8768
586.000000 0.8760 0.8757 0.8745 0.8740 0.8736
581.000000 0.8718 0.8702 0.8686 0.8669 0.8637
576.000000 0.8601 0.8568 0.8545 0.8512 0.8468
571.000000 0.8424 0.8379 0.8334 0.8288 0.8232
566.000000 0.8188 0.8154 0.8105 0.8051 0.8004
561.000000 0.7952 0.7901 0.7850 0.7799 0.7748
556.000000 0.7699 0.7644 0.7590 0.7542 0.7486
551.000000 0.7442 0.7396 0.7347 0.7302 0.7259
546.000000 0.7228 0.7198 0.7169 0.7141 0.7121
541.000000 0.7106 0.7102 0.7100 0.7104 0.7105
536.000000 0.7113 0.7112 0.7111 0.7120 0.7129
531.000000 0.7144 0.7157 0.7185 0.7221 0.7257
526.000000 0.7302 0.7344 0.7382 0.7438 0.7497
521.000000 0.7558 0.7617 0.7676 0.7740 0.7807
516.000000 0.7875 0.7933 0.7978 0.8021 0.8064
511.000000 0.8103 0.8140 0.8179 0.8198 0.8218
506.000000 0.8237 0.8245 0.8256 0.8265 0.8275
501.000000 0.8282 0.8285 0.8287 0.8291 0.8293
496.000000 0.8297 0.8299 0.8294 0.8293 0.8292
491.000000 0.8291 0.8280 0.8269 0.8257 0.8242
486.000000 0.8227 0.8211 0.8196 0.8178 0.8156
481.000000 0.8134 0.8112 0.8089 0.8068 0.8045
476.000000 0.8023 0.7993 0.7965 0.7936 0.7907
471.000000 0.7880 0.7854 0.7828 0.7801 0.7776
466.000000 0.7757 0.7738 0.7719 0.7700 0.7683
461.000000 0.7669 0.7657 0.7647 0.7642 0.7636
456.000000 0.7631 0.7626 0.7621 0.7617 0.7616
451.000000 0.7616 0.7616 0.7616 0.7617 0.7621
##END=
