##TITLE=PROPENE, 3-IODO-
##JCAMP-DX=4.24
##DATA TYPE=INFRARED SPECTRUM
##CLASS=COBLENTZ III
##ORIGIN=DOW CHEMICAL COMPANY
##OWNER=COBLENTZ SOCIETY
Collection (C) 2018 copyright by the U.S. Secretary of Commerce
on behalf of the United States of America. All rights reserved.
##DATE=1963/07/25
##NAMES=3-iodo-1-propene
##CAS REGISTRY NO=556-56-9
##MOLFORM=C3 H5 I
##SOURCE REFERENCE=COBLENTZ NO. 10040
##$NIST SOURCE=COBLENTZ
##$NIST IMAGE=cob10040
##SPECTROMETER/DATA SYSTEM=DOW KBr FOREPRISM-GRATING
##INSTRUMENT PARAMETERS=BLAZED AT 3.5, 12.0, 20.0 MICRON, CHANGED AT 5.0, 7.5, 14.9 MICRON
##STATE=SOLUTION (10% IN CCl4 FOR 3800-1333 AND 10% IN CS2 FOR 1333-400 CM^-^1)
##PATH LENGTH=0.011, 0.011 CM
$$SPECTRAL CONTAMINATION DUE TO CCl4 AROUND 1550, AND CS2 AROUND 855 CM^-^1
##SAMPLING PROCEDURE=TRANSMISSION
##RESOLUTION=4
##DATA PROCESSING=DIGITIZED BY NIST FROM HARD COPY (FROM TWO SEGMENTS)
##XUNITS=1/CM
##YUNITS=TRANSMITTANCE
##XFACTOR=1.000000
##YFACTOR=1
##DELTAX=0.870039
##FIRSTX=379.989
##LASTX=3797.5
##FIRSTY=0.247
##MAXX=3797.5
##MINX=379.989
##MAXY=1.009
##MINY=0.138
##NPOINTS=3929
##XYDATA=(X++(Y..Y))
379.989000 0.2470 0.2460 0.2440 0.2430 0.2430
384.339193 0.2430 0.2440 0.2440 0.2460 0.2500
388.689387 0.2540 0.2570 0.2620 0.2660 0.2720
393.039580 0.2770 0.2820 0.2890 0.2890 0.2950
397.389773 0.3070 0.3220 0.3400 0.3590 0.3790
401.739967 0.3979 0.4159 0.4459 0.4908 0.5149
406.090160 0.5310 0.5570 0.5830 0.6189 0.6270
410.440354 0.6460 0.6649 0.6740 0.6919 0.7169
414.790547 0.7260 0.7300 0.7360 0.7450 0.7520
419.140740 0.7520 0.7630 0.7720 0.7750 0.7820
423.490934 0.7910 0.7940 0.7970 0.8000 0.8040
427.841127 0.8060 0.8120 0.8140 0.8170 0.8210
432.191320 0.8230 0.8230 0.8240 0.8270 0.8310
436.541514 0.8310 0.8320 0.8320 0.8350 0.8360
440.891707 0.8360 0.8380 0.8380 0.8390 0.8390
445.241901 0.8420 0.8430 0.8430 0.8440 0.8470
449.592094 0.8500 0.8500 0.8510 0.8510 0.8510
453.942287 0.8530 0.8540 0.8540 0.8540 0.8510
458.292481 0.8510 0.8550 0.8580 0.8590 0.8590
462.642674 0.8590 0.8590 0.8580 0.8580 0.8580
466.992867 0.8570 0.8570 0.8570 0.8550 0.8540
471.343061 0.8530 0.8510 0.8500 0.8500 0.8480
475.693254 0.8470 0.8460 0.8430 0.8430 0.8360
480.043448 0.8320 0.8290 0.8240 0.8210 0.8160
484.393641 0.8100 0.8040 0.7980 0.7930 0.7900
488.743834 0.7890 0.7860 0.7850 0.7850 0.7890
493.094028 0.7950 0.8040 0.8100 0.8190 0.8280
497.444221 0.8310 0.8350 0.8420 0.8470 0.8530
501.794414 0.8550 0.8570 0.8610 0.8630 0.8690
506.144608 0.8720 0.8730 0.8740 0.8780 0.8810
510.494801 0.8840 0.8850 0.8870 0.8880 0.8890
514.844994 0.8910 0.8910 0.8920 0.8920 0.8920
519.195188 0.8920 0.8920 0.8920 0.8920 0.8910
523.545381 0.8910 0.8910 0.8890 0.8890 0.8890
527.895575 0.8890 0.8890 0.8890 0.8880 0.8880
532.245768 0.8880 0.8880 0.8880 0.8880 0.8890
536.595961 0.8890 0.8910 0.8920 0.8930 0.8950
540.946155 0.8970 0.9000 0.9020 0.9030 0.9040
545.296348 0.9040 0.9060 0.9060 0.9060 0.9070
549.646541 0.9080 0.9080 0.9080 0.9100 0.9110
553.996735 0.9110 0.9110 0.9120 0.9140 0.9140
558.346928 0.9150 0.9170 0.9170 0.9180 0.9180
562.697122 0.9190 0.9210 0.9220 0.9230 0.9250
567.047315 0.9260 0.9270 0.9290 0.9300 0.9310
571.397508 0.9310 0.9330 0.9330 0.9340 0.9340
575.747702 0.9360 0.9370 0.9370 0.9370 0.9370
580.097895 0.9370 0.9370 0.9380 0.9380 0.9380
584.448088 0.9380 0.9380 0.9370 0.9370 0.9370
588.798282 0.9370 0.9370 0.9360 0.9360 0.9360
593.148475 0.9360 0.9360 0.9360 0.9360 0.9360
597.498669 0.9360 0.9360 0.9340 0.9360 0.9360
601.848862 0.9370 0.9370 0.9370 0.9380 0.9380
606.199055 0.9410 0.9420 0.9420 0.9400 0.9360
610.549249 0.9330 0.9330 0.9330 0.9330 0.9330
614.899442 0.9330 0.9330 0.9310 0.9310 0.9310
619.249635 0.9310 0.9310 0.9300 0.9290 0.9270
623.599829 0.9260 0.9250 0.9230 0.9220 0.9210
627.950022 0.9210 0.9190 0.9170 0.9140 0.9120
632.300215 0.9110 0.9080 0.9060 0.9030 0.8990
636.650409 0.8950 0.8920 0.8910 0.8840 0.8770
641.000602 0.8700 0.8650 0.8620 0.8550 0.8530
645.350796 0.8460 0.8360 0.8340 0.8240 0.8121
649.700989 0.7980 0.7870 0.7780 0.7640 0.7570
654.051182 0.7460 0.7400 0.7231 0.7081 0.6891
658.401376 0.6690 0.6130 0.5450 0.5250 0.4631
662.751569 0.4470 0.4310 0.4141 0.3931 0.3900
667.101762 0.3900 0.3930 0.4120 0.4310 0.5357
671.451956 0.5759 0.5939 0.6309 0.6808 0.7108
675.802149 0.7490 0.7720 0.8020 0.8060 0.8270
680.152343 0.8430 0.8550 0.8690 0.8740 0.8810
684.502536 0.8890 0.8950 0.9000 0.9030 0.9070
688.852729 0.9110 0.9120 0.9150 0.9190 0.9190
693.202923 0.9210 0.9220 0.9230 0.9260 0.9260
697.553116 0.9270 0.9270 0.9300 0.9310 0.9310
701.903309 0.9310 0.9310 0.9340 0.9340 0.9360
706.253503 0.9370 0.9370 0.9380 0.9400 0.9410
710.603696 0.9420 0.9420 0.9420 0.9420 0.9440
714.953890 0.9450 0.9460 0.9480 0.9490 0.9530
719.304083 0.9550 0.9550 0.9560 0.9560 0.9560
723.654276 0.9560 0.9560 0.9560 0.9570 0.9570
728.004470 0.9590 0.9600 0.9600 0.9600 0.9600
732.354663 0.9590 0.9590 0.9590 0.9590 0.9590
736.704856 0.9590 0.9590 0.9600 0.9600 0.9610
741.055050 0.9630 0.9610 0.9610 0.9610 0.9610
745.405243 0.9610 0.9630 0.9640 0.9640 0.9640
749.755436 0.9650 0.9650 0.9650 0.9640 0.9650
754.105630 0.9670 0.9670 0.9680 0.9680 0.9680
758.455823 0.9680 0.9680 0.9680 0.9680 0.9680
762.806017 0.9680 0.9680 0.9680 0.9680 0.9680
767.156210 0.9670 0.9670 0.9670 0.9650 0.9650
771.506403 0.9640 0.9640 0.9640 0.9640 0.9640
775.856597 0.9640 0.9630 0.9630 0.9630 0.9610
780.206790 0.9610 0.9600 0.9600 0.9600 0.9590
784.556983 0.9570 0.9570 0.9570 0.9570 0.9560
788.907177 0.9560 0.9560 0.9560 0.9560 0.9560
793.257370 0.9550 0.9550 0.9550 0.9550 0.9530
797.607564 0.9550 0.9550 0.9550 0.9530 0.9530
801.957757 0.9520 0.9510 0.9490 0.9480 0.9460
806.307950 0.9460 0.9450 0.9440 0.9440 0.9410
810.658144 0.9380 0.9370 0.9360 0.9340 0.9330
815.008337 0.9270 0.9230 0.9180 0.9140 0.9110
819.358530 0.8970 0.8920 0.8800 0.8680 0.8551
823.708724 0.8340 0.8270 0.8270 0.8320 0.8549
828.058917 0.8729 0.8870 0.8960 0.9079 0.9150
832.409111 0.9180 0.9190 0.9180 0.9170 0.9170
836.759304 0.9150 0.9120 0.9120 0.9070 0.9000
841.109497 0.8950 0.8910 0.8850 0.8780 0.8730
845.459691 0.8650 0.8580 0.8500 0.8400 0.8310
849.809884 0.8190 0.8090 0.8040 0.7980 0.7970
854.160077 0.7970 0.7970 0.7980 0.8000 0.8000
858.510271 0.8020 0.8050 0.8060 0.8090 0.8100
862.860464 0.8140 0.8170 0.8210 0.8240 0.8280
867.210657 0.8320 0.8340 0.8380 0.8400 0.8470
871.560851 0.8500 0.8510 0.8530 0.8550 0.8590
875.911044 0.8620 0.8650 0.8660 0.8690 0.8720
880.261238 0.8730 0.8760 0.8800 0.8810 0.8840
884.611431 0.8870 0.8910 0.8920 0.8930 0.8950
888.961624 0.8960 0.8960 0.8960 0.8960 0.8950
893.311818 0.8930 0.8920 0.8890 0.8890 0.8840
897.662011 0.8810 0.8770 0.8730 0.8591 0.8530
902.012204 0.8430 0.8360 0.8250 0.8060 0.7940
906.362398 0.7681 0.7441 0.7221 0.6812 0.6292
910.712591 0.5740 0.5230 0.4820 0.4380 0.3631
915.062785 0.2472 0.1712 0.1381 0.1380 0.1559
919.412978 0.1900 0.2320 0.2909 0.3030 0.3669
923.763171 0.4278 0.4908 0.5328 0.5908 0.6388
928.113365 0.6550 0.6810 0.7080 0.7250 0.7410
932.463558 0.7450 0.7590 0.7749 0.7909 0.8089
936.813751 0.8230 0.8350 0.8420 0.8540 0.8660
941.163945 0.8740 0.8810 0.8850 0.8920 0.8930
945.514138 0.8950 0.8990 0.9000 0.9030 0.9040
949.864332 0.9060 0.9070 0.9070 0.9070 0.9070
954.214525 0.9060 0.9040 0.9030 0.9020 0.9000
958.564718 0.8990 0.8950 0.8920 0.8870 0.8840
962.914912 0.8800 0.8740 0.8720 0.8650 0.8590
967.265105 0.8540 0.8500 0.8361 0.8231 0.8041
971.615298 0.7870 0.7860 0.7610 0.7270 0.6931
975.965492 0.6471 0.6101 0.5492 0.5121 0.4911
980.315685 0.4910 0.5100 0.5740 0.6200 0.6609
984.665878 0.6929 0.7359 0.7719 0.7999 0.8169
989.016072 0.8350 0.8510 0.8650 0.8730 0.8810
993.366265 0.8880 0.8930 0.9000 0.9060 0.9110
997.716459 0.9150 0.9210 0.9250 0.9290 0.9310
1002.066652 0.9340 0.9360 0.9370 0.9400 0.9420
1006.416845 0.9450 0.9460 0.9480 0.9480 0.9490
1010.767039 0.9510 0.9510 0.9510 0.9510 0.9520
1015.117232 0.9520 0.9520 0.9520 0.9530 0.9550
1019.467425 0.9550 0.9550 0.9560 0.9560 0.9560
1023.817619 0.9560 0.9560 0.9550 0.9550 0.9530
1028.167812 0.9520 0.9520 0.9520 0.9480 0.9460
1032.518006 0.9460 0.9440 0.9410 0.9400 0.9370
1036.868199 0.9340 0.9340 0.9330 0.9260 0.9180
1041.218392 0.9140 0.9100 0.9040 0.8990 0.8960
1045.568586 0.8930 0.8920 0.8930 0.8960 0.9000
1049.918779 0.9040 0.9100 0.9150 0.9210 0.9220
1054.268972 0.9250 0.9260 0.9300 0.9340 0.9360
1058.619166 0.9380 0.9410 0.9440 0.9460 0.9490
1062.969359 0.9490 0.9510 0.9510 0.9520 0.9560
1067.319553 0.9560 0.9570 0.9590 0.9590 0.9600
1071.669746 0.9600 0.9600 0.9600 0.9590 0.9600
1076.019939 0.9610 0.9630 0.9630 0.9610 0.9610
1080.370133 0.9610 0.9600 0.9600 0.9600 0.9590
1084.720326 0.9590 0.9590 0.9590 0.9590 0.9590
1089.070519 0.9590 0.9590 0.9590 0.9590 0.9590
1093.420713 0.9590 0.9600 0.9610 0.9610 0.9630
1097.770906 0.9630 0.9630 0.9630 0.9640 0.9640
1102.121099 0.9640 0.9640 0.9640 0.9630 0.9630
1106.471293 0.9630 0.9610 0.9600 0.9600 0.9590
1110.821486 0.9570 0.9560 0.9560 0.9560 0.9520
1115.171680 0.9520 0.9510 0.9480 0.9460 0.9450
1119.521873 0.9440 0.9420 0.9410 0.9370 0.9360
1123.872066 0.9340 0.9300 0.9260 0.9230 0.9190
1128.222260 0.9150 0.9140 0.9060 0.8990 0.8890
1132.572453 0.8850 0.8760 0.8720 0.8571 0.8431
1136.922646 0.8310 0.8040 0.7910 0.7610 0.7260
1141.272840 0.6821 0.6281 0.5971 0.5312 0.4483
1145.623033 0.3640 0.3170 0.2661 0.2161 0.1651
1149.973227 0.1650 0.2158 0.2648 0.3148 0.3608
1154.323420 0.4140 0.4650 0.5150 0.6039 0.6499
1158.673613 0.6680 0.6929 0.7149 0.7369 0.7569
1163.023807 0.7650 0.7780 0.7930 0.8010 0.8130
1167.374000 0.8160 0.8240 0.8310 0.8400 0.8430
1171.724193 0.8550 0.8550 0.8590 0.8630 0.8680
1176.074387 0.8720 0.8740 0.8740 0.8740 0.8730
1180.424580 0.8720 0.8650 0.8550 0.8510 0.8360
1184.774774 0.8120 0.7970 0.7970 0.8050 0.8249
1189.124967 0.8480 0.8720 0.8920 0.9100 0.9120
1193.475160 0.9190 0.9230 0.9250 0.9270 0.9290
1197.825354 0.9290 0.9300 0.9310 0.9310 0.9330
1202.175547 0.9330 0.9330 0.9330 0.9340 0.9360
1206.525740 0.9380 0.9410 0.9420 0.9450 0.9460
1210.875934 0.9490 0.9530 0.9560 0.9570 0.9590
1215.226127 0.9600 0.9610 0.9610 0.9630 0.9630
1219.576320 0.9640 0.9650 0.9650 0.9670 0.9680
1223.926514 0.9680 0.9700 0.9700 0.9700 0.9700
1228.276707 0.9700 0.9700 0.9710 0.9700 0.9700
1232.626901 0.9700 0.9710 0.9700 0.9700 0.9710
1236.977094 0.9710 0.9710 0.9700 0.9700 0.9710
1241.327287 0.9720 0.9720 0.9720 0.9720 0.9710
1245.677481 0.9710 0.9710 0.9700 0.9700 0.9700
1250.027674 0.9680 0.9700 0.9680 0.9680 0.9680
1254.377867 0.9680 0.9680 0.9680 0.9680 0.9680
1258.728061 0.9680 0.9680 0.9670 0.9650 0.9640
1263.078254 0.9640 0.9630 0.9610 0.9600 0.9590
1267.428448 0.9590 0.9590 0.9590 0.9590 0.9570
1271.778641 0.9570 0.9590 0.9590 0.9570 0.9570
1276.128834 0.9560 0.9560 0.9560 0.9530 0.9530
1280.479028 0.9510 0.9480 0.9450 0.9420 0.9410
1284.829221 0.9380 0.9370 0.9340 0.9300 0.9270
1289.179414 0.9250 0.9190 0.9140 0.9120 0.9110
1293.529608 0.9140 0.9170 0.9210 0.9250 0.9270
1297.879801 0.9330 0.9340 0.9360 0.9380 0.9410
1302.229995 0.9410 0.9420 0.9440 0.9450 0.9450
1306.580188 0.9450 0.9460 0.9460 0.9480 0.9480
1310.930381 0.9480 0.9480 0.9480 0.9480 0.9480
1315.280575 0.9480 0.9480 0.9480 0.9490 0.9490
1319.630768 0.9510 0.9550 0.9550 0.9530 0.9530
1323.980961 0.9520 0.9520 0.9520 0.9520 0.9510
1328.331155 0.9510 0.9490 0.9480 0.9450 0.9400
1332.681348 0.9380 0.9380 0.9370 0.9370 0.9360
1337.031541 0.9360 0.9340 0.9340 0.9330 0.9270
1341.381735 0.9260 0.9250 0.9220 0.9210 0.9170
1345.731928 0.9140 0.9120 0.9100 0.9070 0.9060
1350.082122 0.9030 0.8960 0.8920 0.8870 0.8820
1354.432315 0.8800 0.8760 0.8730 0.8720 0.8660
1358.782508 0.8650 0.8630 0.8620 0.8620 0.8620
1363.132702 0.8630 0.8650 0.8650 0.8660 0.8680
1367.482895 0.8680 0.8680 0.8690 0.8690 0.8720
1371.833088 0.8720 0.8720 0.8720 0.8720 0.8720
1376.183282 0.8730 0.8760 0.8780 0.8800 0.8800
1380.533475 0.8810 0.8820 0.8820 0.8840 0.8840
1384.883669 0.8840 0.8840 0.8820 0.8820 0.8820
1389.233862 0.8820 0.8820 0.8800 0.8770 0.8740
1393.584055 0.8730 0.8680 0.8620 0.8570 0.8530
1397.934249 0.8470 0.8440 0.8320 0.8160 0.7930
1402.284442 0.7711 0.7640 0.7421 0.7101 0.6951
1406.634635 0.6950 0.7030 0.7440 0.7710 0.8050
1410.984829 0.8210 0.8400 0.8510 0.8540 0.8580
1415.335022 0.8620 0.8620 0.8590 0.8590 0.8540
1419.685216 0.8540 0.8590 0.8650 0.8730 0.8730
1424.035409 0.8740 0.8740 0.8730 0.8730 0.8720
1428.385602 0.8720 0.8680 0.8610 0.8530 0.8460
1432.735796 0.8360 0.8280 0.8140 0.7970 0.7720
1437.085989 0.7480 0.7141 0.6721 0.6461 0.6460
1441.436182 0.7070 0.7250 0.7250 0.7699 0.8139
1445.786376 0.8349 0.8539 0.8729 0.8840 0.8910
1450.136569 0.8990 0.9070 0.9110 0.9140 0.9140
1454.486762 0.9150 0.9150 0.9170 0.9170 0.9170
1458.836956 0.9170 0.9210 0.9250 0.9260 0.9270
1463.187149 0.9290 0.9290 0.9270 0.9270 0.9270
1467.537343 0.9270 0.9290 0.9300 0.9290 0.9270
1471.887536 0.9250 0.9230 0.9220 0.9220 0.9220
1476.237729 0.9220 0.9220 0.9190 0.9190 0.9190
1480.587923 0.9190 0.9170 0.9150 0.9140 0.9140
1484.938116 0.9080 0.9040 0.9020 0.8970 0.8950
1489.288309 0.8920 0.8890 0.8850 0.8820 0.8810
1493.638503 0.8800 0.8780 0.8760 0.8730 0.8650
1497.988696 0.8590 0.8570 0.8540 0.8500 0.8440
1502.338890 0.8420 0.8360 0.8340 0.8230 0.8140
1506.689083 0.8010 0.7970 0.7930 0.7890 0.7860
1511.039276 0.7800 0.7780 0.7720 0.7670 0.7610
1515.389470 0.7600 0.7510 0.7450 0.7370 0.7310
1519.739663 0.7270 0.7260 0.7170 0.7100 0.7080
1524.089856 0.7070 0.7040 0.7030 0.6960 0.6930
1528.440050 0.6840 0.6780 0.6720 0.6630 0.6510
1532.790243 0.6400 0.6340 0.6250 0.6170 0.6090
1537.140437 0.6040 0.5900 0.5740 0.5640 0.5380
1541.490630 0.5290 0.5260 0.5210 0.5170 0.5140
1545.840823 0.5100 0.5070 0.5060 0.5040 0.5030
1550.191017 0.5030 0.5040 0.5060 0.5070 0.5100
1554.541210 0.5140 0.5180 0.5290 0.5380 0.5450
1558.891403 0.5590 0.5670 0.5800 0.5929 0.6040
1563.241597 0.6080 0.6170 0.6230 0.6320 0.6420
1567.591790 0.6480 0.6550 0.6620 0.6650 0.6730
1571.941983 0.6760 0.6770 0.6780 0.6800 0.6810
1576.292177 0.6810 0.6820 0.6840 0.6840 0.6850
1580.642370 0.6870 0.6880 0.6890 0.6910 0.6920
1584.992564 0.6920 0.6930 0.6930 0.6960 0.6970
1589.342757 0.7020 0.7110 0.7180 0.7260 0.7330
1593.692950 0.7410 0.7480 0.7590 0.7650 0.7740
1598.043144 0.7820 0.7970 0.8050 0.8170 0.8210
1602.393337 0.8270 0.8320 0.8360 0.8430 0.8500
1606.743530 0.8530 0.8570 0.8620 0.8660 0.8720
1611.093724 0.8740 0.8770 0.8810 0.8820 0.8850
1615.443917 0.8850 0.8840 0.8840 0.8850 0.8920
1619.794111 0.8930 0.8930 0.8880 0.8840 0.8800
1624.144304 0.8760 0.8730 0.8690 0.8650 0.8610
1628.494497 0.8500 0.8291 0.8011 0.7751 0.7481
1632.844691 0.7250 0.7250 0.7370 0.8159 0.8460
1637.194884 0.8630 0.8760 0.8840 0.8910 0.8950
1641.545077 0.8960 0.8970 0.8970 0.8970 0.8970
1645.895271 0.8990 0.9000 0.9020 0.9060 0.9120
1650.245464 0.9150 0.9180 0.9210 0.9230 0.9250
1654.595658 0.9330 0.9340 0.9380 0.9410 0.9440
1658.945851 0.9450 0.9460 0.9460 0.9480 0.9480
1663.296044 0.9490 0.9510 0.9510 0.9510 0.9490
1667.646238 0.9490 0.9480 0.9460 0.9460 0.9510
1671.996431 0.9530 0.9550 0.9550 0.9550 0.9550
1676.346624 0.9560 0.9570 0.9570 0.9560 0.9560
1680.696818 0.9560 0.9530 0.9510 0.9520 0.9550
1685.047011 0.9610 0.9630 0.9630 0.9630 0.9630
1689.397204 0.9640 0.9640 0.9630 0.9610 0.9600
1693.747398 0.9570 0.9570 0.9570 0.9560 0.9560
1698.097591 0.9550 0.9530 0.9550 0.9560 0.9590
1702.447785 0.9630 0.9640 0.9640 0.9670 0.9680
1706.797978 0.9700 0.9710 0.9710 0.9710 0.9700
1711.148171 0.9700 0.9680 0.9680 0.9680 0.9700
1715.498365 0.9700 0.9710 0.9710 0.9720 0.9740
1719.848558 0.9750 0.9760 0.9780 0.9760 0.9780
1724.198751 0.9780 0.9780 0.9780 0.9790 0.9790
1728.548945 0.9780 0.9760 0.9760 0.9780 0.9790
1732.899138 0.9800 0.9800 0.9820 0.9830 0.9850
1737.249332 0.9850 0.9850 0.9860 0.9860 0.9870
1741.599525 0.9870 0.9870 0.9870 0.9870 0.9860
1745.949718 0.9860 0.9850 0.9850 0.9850 0.9860
1750.299912 0.9860 0.9870 0.9860 0.9860 0.9860
1754.650105 0.9860 0.9860 0.9870 0.9890 0.9890
1759.000298 0.9870 0.9870 0.9910 0.9870 0.9870
1763.350492 0.9870 0.9860 0.9860 0.9850 0.9850
1767.700685 0.9860 0.9860 0.9860 0.9860 0.9860
1772.050879 0.9870 0.9890 0.9890 0.9890 0.9890
1776.401072 0.9890 0.9860 0.9860 0.9860 0.9870
1780.751265 0.9870 0.9890 0.9900 0.9900 0.9900
1785.101459 0.9900 0.9900 0.9890 0.9870 0.9870
1789.451652 0.9860 0.9860 0.9870 0.9870 0.9870
1793.801845 0.9860 0.9850 0.9850 0.9830 0.9830
1798.152039 0.9830 0.9820 0.9820 0.9800 0.9820
1802.502232 0.9830 0.9830 0.9830 0.9830 0.9820
1806.852425 0.9780 0.9760 0.9760 0.9750 0.9750
1811.202619 0.9760 0.9780 0.9780 0.9780 0.9780
1815.552812 0.9760 0.9750 0.9750 0.9740 0.9720
1819.903006 0.9720 0.9680 0.9670 0.9650 0.9630
1824.253199 0.9610 0.9590 0.9570 0.9560 0.9550
1828.603392 0.9520 0.9510 0.9480 0.9440 0.9400
1832.953586 0.9340 0.9290 0.9210 0.9140 0.9110
1837.303779 0.9040 0.9000 0.8990 0.8960 0.8910
1841.653972 0.8890 0.8890 0.8910 0.8920 0.8930
1846.004166 0.8970 0.9020 0.9110 0.9140 0.9170
1850.354359 0.9230 0.9290 0.9360 0.9380 0.9420
1854.704553 0.9440 0.9450 0.9460 0.9480 0.9510
1859.054746 0.9560 0.9530 0.9560 0.9570 0.9590
1863.404939 0.9600 0.9600 0.9610 0.9630 0.9640
1867.755133 0.9650 0.9650 0.9670 0.9700 0.9700
1872.105326 0.9710 0.9710 0.9710 0.9720 0.9720
1876.455519 0.9720 0.9720 0.9750 0.9780 0.9760
1880.805713 0.9780 0.9790 0.9790 0.9800 0.9800
1885.155906 0.9800 0.9800 0.9800 0.9800 0.9820
1889.506100 0.9820 0.9820 0.9820 0.9800 0.9800
1893.856293 0.9800 0.9800 0.9800 0.9800 0.9800
1898.206486 0.9800 0.9800 0.9820 0.9820 0.9830
1902.556680 0.9850 0.9850 0.9850 0.9860 0.9860
1906.906873 0.9860 0.9860 0.9860 0.9860 0.9860
1911.257066 0.9870 0.9870 0.9870 0.9870 0.9870
1915.607260 0.9870 0.9870 0.9860 0.9860 0.9860
1919.957453 0.9870 0.9870 0.9870 0.9870 0.9860
1924.307646 0.9850 0.9850 0.9850 0.9860 0.9860
1928.657840 0.9890 0.9890 0.9890 0.9890 0.9890
1933.008033 0.9890 0.9870 0.9860 0.9860 0.9860
1937.358227 0.9860 0.9860 0.9860 0.9860 0.9860
1941.708420 0.9860 0.9860 0.9860 0.9870 0.9870
1946.058613 0.9890 0.9890 0.9900 0.9910 0.9910
1950.408807 0.9930 0.9930 0.9930 0.9940 0.9940
1954.759000 0.9940 0.9940 0.9950 0.9970 0.9970
1959.109193 0.9970 0.9970 0.9970 0.9970 0.9980
1963.459387 0.9980 0.9980 0.9980 0.9980 0.9980
1967.809580 1.0000 1.0000 1.0000 1.0000 1.0000
1972.159774 1.0010 1.0010 1.0010 1.0010 1.0010
1976.509967 1.0010 1.0020 1.0020 1.0020 1.0020
1980.860160 1.0020 1.0020 1.0020 1.0020 1.0020
1985.210354 1.0020 1.0020 1.0020 1.0020 1.0020
1989.560547 1.0020 1.0020 1.0040 1.0040 1.0040
1993.910740 1.0040 1.0040 1.0040 1.0040 1.0040
1998.260934 1.0040 1.0040 1.0040 1.0040 1.0040
2002.611127 1.0040 1.0040 1.0040 1.0040 1.0040
2006.961321 1.0040 1.0040 1.0040 1.0040 1.0040
2011.311514 1.0040 1.0040 1.0040 1.0040 1.0040
2015.661707 1.0040 1.0040 1.0040 1.0040 1.0040
2020.011901 1.0040 1.0040 1.0040 1.0040 1.0040
2024.362094 1.0040 1.0040 1.0040 1.0040 1.0040
2028.712287 1.0040 1.0040 1.0040 1.0040 1.0040
2033.062481 1.0040 1.0040 1.0040 1.0040 1.0040
2037.412674 1.0040 1.0040 1.0040 1.0040 1.0040
2041.762867 1.0040 1.0040 1.0040 1.0040 1.0040
2046.113061 1.0040 1.0040 1.0045 1.0050 1.0050
2050.463254 1.0050 1.0050 1.0050 1.0045 1.0040
2054.813448 1.0040 1.0040 1.0030 1.0020 1.0030
2059.163641 1.0040 1.0030 1.0020 1.0020 1.0020
2063.513834 1.0020 1.0020 1.0015 1.0010 1.0010
2067.864028 1.0010 1.0005 1.0000 1.0005 1.0010
2072.214221 1.0024 1.0039 1.0040 1.0040 1.0040
2076.564414 1.0040 1.0040 1.0040 1.0045 1.0050
2080.914608 1.0050 1.0050 1.0050 1.0050 1.0050
2085.264801 1.0050 1.0050 1.0050 1.0050 1.0050
2089.614995 1.0055 1.0060 1.0060 1.0060 1.0051
2093.965188 1.0040 1.0040 1.0040 1.0031 1.0021
2098.315381 1.0020 1.0020 1.0034 1.0049 1.0055
2102.665575 1.0060 1.0060 1.0060 1.0060 1.0060
2107.015768 1.0060 1.0060 1.0060 1.0060 1.0055
2111.365961 1.0050 1.0036 1.0021 1.0020 1.0020
2115.716155 1.0029 1.0039 1.0040 1.0040 1.0031
2120.066348 1.0021 1.0020 1.0020 1.0015 1.0010
2124.416542 1.0010 1.0010 1.0010 1.0010 1.0010
2128.766735 1.0010 1.0005 1.0000 1.0000 1.0000
2133.116928 1.0000 1.0000 1.0005 1.0010 1.0010
2137.467122 1.0010 1.0010 1.0010 1.0010 1.0010
2141.817315 1.0010 1.0010 1.0010 1.0010 1.0005
2146.167508 1.0000 1.0000 1.0000 1.0000 1.0000
2150.517702 0.9991 0.9981 0.9980 0.9980 0.9975
2154.867895 0.9970 0.9961 0.9951 0.9945 0.9940
2159.218088 0.9940 0.9940 0.9940 0.9940 0.9945
2163.568282 0.9950 0.9959 0.9969 0.9961 0.9951
2167.918475 0.9945 0.9940 0.9940 0.9940 0.9935
2172.268669 0.9930 0.9930 0.9930 0.9930 0.9930
2176.618862 0.9930 0.9930 0.9930 0.9930 0.9930
2180.969055 0.9930 0.9921 0.9911 0.9905 0.9900
2185.319249 0.9896 0.9891 0.9881 0.9871 0.9870
2189.669442 0.9870 0.9870 0.9870 0.9870 0.9870
2194.019635 0.9870 0.9870 0.9870 0.9870 0.9870
2198.369829 0.9870 0.9866 0.9861 0.9860 0.9860
2202.720022 0.9860 0.9860 0.9860 0.9860 0.9860
2207.070216 0.9860 0.9864 0.9870 0.9870 0.9870
2211.420409 0.9879 0.9889 0.9894 0.9899 0.9900
2215.770602 0.9900 0.9896 0.9891 0.9890 0.9890
2220.120796 0.9881 0.9871 0.9870 0.9870 0.9870
2224.470989 0.9870 0.9879 0.9889 0.9890 0.9890
2228.821182 0.9890 0.9890 0.9881 0.9871 0.9870
2233.171376 0.9870 0.9866 0.9861 0.9860 0.9860
2237.521569 0.9860 0.9860 0.9860 0.9860 0.9860
2241.871763 0.9860 0.9856 0.9851 0.9850 0.9850
2246.221956 0.9854 0.9859 0.9860 0.9860 0.9856
2250.572149 0.9851 0.9841 0.9831 0.9826 0.9821
2254.922343 0.9811 0.9801 0.9796 0.9791 0.9790
2259.272536 0.9790 0.9790 0.9790 0.9786 0.9781
2263.622729 0.9780 0.9780 0.9771 0.9761 0.9756
2267.972923 0.9751 0.9746 0.9741 0.9740 0.9740
2272.323116 0.9731 0.9721 0.9716 0.9711 0.9710
2276.673309 0.9710 0.9697 0.9682 0.9680 0.9680
2281.023503 0.9667 0.9652 0.9641 0.9631 0.9621
2285.373696 0.9611 0.9606 0.9601 0.9596 0.9591
2289.723890 0.9582 0.9572 0.9566 0.9561 0.9543
2294.074083 0.9523 0.9503 0.9483 0.9467 0.9452
2298.424276 0.9446 0.9441 0.9440 0.9440 0.9448
2302.774470 0.9458 0.9485 0.9515 0.9524 0.9529
2307.124663 0.9530 0.9530 0.9538 0.9548 0.9554
2311.474856 0.9559 0.9560 0.9560 0.9564 0.9569
2315.825050 0.9570 0.9570 0.9578 0.9588 0.9590
2320.175243 0.9590 0.9590 0.9590 0.9577 0.9563
2324.525437 0.9560 0.9560 0.9564 0.9569 0.9570
2328.875630 0.9570 0.9578 0.9588 0.9582 0.9572
2333.225823 0.9562 0.9552 0.9550 0.9550 0.9550
2337.576017 0.9550 0.9550 0.9550 0.9554 0.9559
2341.926210 0.9560 0.9560 0.9572 0.9587 0.9594
2346.276403 0.9599 0.9612 0.9627 0.9630 0.9630
2350.626597 0.9638 0.9648 0.9658 0.9668 0.9674
2354.976790 0.9679 0.9680 0.9680 0.9676 0.9671
2359.326984 0.9670 0.9670 0.9670 0.9670 0.9662
2363.677177 0.9652 0.9650 0.9650 0.9650 0.9650
2368.027370 0.9650 0.9650 0.9650 0.9650 0.9658
2372.377564 0.9668 0.9670 0.9670 0.9674 0.9679
2376.727757 0.9680 0.9680 0.9688 0.9698 0.9704
2381.077950 0.9709 0.9714 0.9719 0.9728 0.9738
2385.428144 0.9740 0.9740 0.9744 0.9749 0.9750
2389.778337 0.9750 0.9750 0.9750 0.9750 0.9750
2394.128530 0.9746 0.9741 0.9740 0.9740 0.9732
2398.478724 0.9722 0.9720 0.9720 0.9716 0.9711
2402.828917 0.9710 0.9710 0.9710 0.9710 0.9710
2407.179111 0.9710 0.9710 0.9710 0.9710 0.9710
2411.529304 0.9714 0.9719 0.9728 0.9738 0.9740
2415.879497 0.9740 0.9732 0.9722 0.9720 0.9720
2420.229691 0.9716 0.9711 0.9706 0.9701 0.9700
2424.579884 0.9700 0.9700 0.9700 0.9704 0.9709
2428.930077 0.9710 0.9710 0.9706 0.9701 0.9700
2433.280271 0.9700 0.9700 0.9700 0.9700 0.9700
2437.630464 0.9700 0.9700 0.9700 0.9700 0.9692
2441.980658 0.9682 0.9676 0.9671 0.9670 0.9670
2446.330851 0.9662 0.9652 0.9650 0.9650 0.9650
2450.681044 0.9650 0.9650 0.9650 0.9650 0.9650
2455.031238 0.9650 0.9650 0.9650 0.9650 0.9658
2459.381431 0.9668 0.9670 0.9670 0.9670 0.9670
2463.731624 0.9662 0.9652 0.9650 0.9650 0.9650
2468.081818 0.9650 0.9650 0.9650 0.9646 0.9641
2472.432011 0.9640 0.9640 0.9640 0.9640 0.9640
2476.782205 0.9640 0.9640 0.9640 0.9640 0.9640
2481.132398 0.9640 0.9640 0.9640 0.9640 0.9644
2485.482591 0.9649 0.9650 0.9650 0.9650 0.9650
2489.832785 0.9650 0.9650 0.9650 0.9650 0.9658
2494.182978 0.9668 0.9670 0.9670 0.9670 0.9670
2498.533171 0.9670 0.9670 0.9670 0.9670 0.9670
2502.883365 0.9670 0.9663 0.9652 0.9650 0.9650
2507.233558 0.9650 0.9650 0.9650 0.9650 0.9650
2511.583751 0.9650 0.9650 0.9650 0.9650 0.9650
2515.933945 0.9650 0.9650 0.9650 0.9650 0.9650
2520.284138 0.9650 0.9650 0.9650 0.9646 0.9641
2524.634332 0.9640 0.9640 0.9640 0.9640 0.9640
2528.984525 0.9640 0.9640 0.9640 0.9644 0.9649
2533.334718 0.9650 0.9650 0.9643 0.9633 0.9630
2537.684912 0.9630 0.9630 0.9630 0.9630 0.9630
2542.035105 0.9623 0.9613 0.9606 0.9601 0.9596
2546.385298 0.9591 0.9590 0.9590 0.9590 0.9590
2550.735492 0.9590 0.9590 0.9594 0.9599 0.9600
2555.085685 0.9600 0.9600 0.9600 0.9596 0.9591
2559.435879 0.9590 0.9590 0.9594 0.9599 0.9589
2563.786072 0.9574 0.9570 0.9570 0.9577 0.9587
2568.136265 0.9590 0.9590 0.9594 0.9599 0.9596
2572.486459 0.9591 0.9579 0.9564 0.9560 0.9560
2576.836652 0.9560 0.9560 0.9560 0.9560 0.9560
2581.186845 0.9560 0.9560 0.9560 0.9546 0.9526
2585.537039 0.9509 0.9494 0.9490 0.9490 0.9490
2589.887232 0.9490 0.9490 0.9490 0.9497 0.9507
2594.237426 0.9517 0.9527 0.9537 0.9547 0.9554
2598.587619 0.9559 0.9560 0.9560 0.9564 0.9568
2602.937812 0.9577 0.9587 0.9590 0.9590 0.9583
2607.288006 0.9573 0.9570 0.9570 0.9566 0.9561
2611.638199 0.9564 0.9569 0.9570 0.9570 0.9567
2615.988392 0.9562 0.9560 0.9560 0.9560 0.9560
2620.338586 0.9557 0.9552 0.9550 0.9550 0.9550
2624.688779 0.9550 0.9550 0.9550 0.9550 0.9550
2629.038972 0.9550 0.9550 0.9553 0.9558 0.9563
2633.389166 0.9568 0.9570 0.9570 0.9577 0.9587
2637.739359 0.9590 0.9590 0.9583 0.9573 0.9570
2642.089553 0.9570 0.9577 0.9587 0.9590 0.9590
2646.439746 0.9590 0.9590 0.9590 0.9590 0.9590
2650.789939 0.9590 0.9583 0.9573 0.9570 0.9570
2655.140133 0.9567 0.9562 0.9560 0.9560 0.9563
2659.490326 0.9568 0.9570 0.9570 0.9570 0.9570
2663.840519 0.9570 0.9570 0.9570 0.9570 0.9570
2668.190713 0.9570 0.9570 0.9570 0.9570 0.9570
2672.540906 0.9567 0.9562 0.9560 0.9560 0.9563
2676.891100 0.9568 0.9570 0.9570 0.9570 0.9570
2681.241293 0.9570 0.9570 0.9567 0.9562 0.9557
2685.591486 0.9552 0.9550 0.9550 0.9553 0.9558
2689.941680 0.9560 0.9560 0.9557 0.9552 0.9550
2694.291873 0.9550 0.9550 0.9550 0.9550 0.9550
2698.642066 0.9550 0.9550 0.9550 0.9550 0.9550
2702.992260 0.9550 0.9550 0.9550 0.9550 0.9550
2707.342453 0.9550 0.9550 0.9550 0.9550 0.9550
2711.692647 0.9550 0.9550 0.9550 0.9550 0.9550
2716.042840 0.9543 0.9534 0.9527 0.9522 0.9520
2720.393033 0.9520 0.9520 0.9520 0.9520 0.9520
2724.743227 0.9520 0.9520 0.9520 0.9520 0.9520
2729.093420 0.9520 0.9520 0.9520 0.9523 0.9528
2733.443613 0.9530 0.9530 0.9527 0.9522 0.9520
2737.793807 0.9520 0.9520 0.9520 0.9520 0.9520
2742.144000 0.9517 0.9512 0.9510 0.9510 0.9510
2746.494193 0.9510 0.9513 0.9518 0.9520 0.9520
2750.844387 0.9520 0.9520 0.9520 0.9520 0.9517
2755.194580 0.9512 0.9510 0.9510 0.9510 0.9510
2759.544774 0.9510 0.9510 0.9510 0.9510 0.9510
2763.894967 0.9510 0.9510 0.9510 0.9510 0.9510
2768.245160 0.9510 0.9510 0.9504 0.9494 0.9490
2772.595354 0.9490 0.9487 0.9482 0.9480 0.9480
2776.945547 0.9480 0.9480 0.9483 0.9488 0.9490
2781.295740 0.9490 0.9490 0.9490 0.9496 0.9506
2785.645934 0.9510 0.9510 0.9504 0.9494 0.9487
2789.996127 0.9482 0.9483 0.9488 0.9496 0.9506
2794.346321 0.9510 0.9510 0.9510 0.9510 0.9510
2798.696514 0.9510 0.9504 0.9494 0.9490 0.9490
2803.046707 0.9490 0.9490 0.9487 0.9482 0.9480
2807.396901 0.9480 0.9474 0.9464 0.9460 0.9460
2811.747094 0.9460 0.9460 0.9457 0.9452 0.9450
2816.097287 0.9450 0.9447 0.9442 0.9440 0.9440
2820.447481 0.9434 0.9424 0.9417 0.9412 0.9407
2824.797674 0.9402 0.9391 0.9376 0.9367 0.9362
2829.147868 0.9354 0.9344 0.9340 0.9340 0.9340
2833.498061 0.9340 0.9328 0.9308 0.9300 0.9300
2837.848254 0.9297 0.9292 0.9290 0.9290 0.9293
2842.198448 0.9298 0.9303 0.9308 0.9310 0.9310
2846.548641 0.9316 0.9326 0.9330 0.9330 0.9333
2850.898834 0.9338 0.9340 0.9340 0.9325 0.9300
2855.249028 0.9281 0.9266 0.9257 0.9252 0.9241
2859.599221 0.9226 0.9220 0.9220 0.9217 0.9212
2863.949415 0.9204 0.9194 0.9190 0.9190 0.9196
2868.299608 0.9206 0.9216 0.9226 0.9239 0.9254
2872.649801 0.9263 0.9268 0.9279 0.9294 0.9309
2876.999995 0.9324 0.9324 0.9314 0.9316 0.9326
2881.350188 0.9338 0.9353 0.9371 0.9391 0.9403
2885.700381 0.9408 0.9410 0.9410 0.9410 0.9410
2890.050575 0.9410 0.9410 0.9407 0.9402 0.9394
2894.400768 0.9384 0.9377 0.9372 0.9370 0.9370
2898.750961 0.9370 0.9370 0.9378 0.9393 0.9400
2903.101155 0.9400 0.9392 0.9377 0.9370 0.9370
2907.451348 0.9370 0.9370 0.9367 0.9362 0.9360
2911.801542 0.9360 0.9371 0.9391 0.9403 0.9408
2916.151735 0.9413 0.9418 0.9420 0.9420 0.9417
2920.501928 0.9412 0.9407 0.9402 0.9394 0.9384
2924.852122 0.9375 0.9365 0.9360 0.9360 0.9355
2929.202315 0.9345 0.9340 0.9340 0.9340 0.9340
2933.552508 0.9337 0.9332 0.9319 0.9299 0.9285
2937.902702 0.9275 0.9267 0.9262 0.9252 0.9237
2942.252895 0.9219 0.9199 0.9187 0.9182 0.9172
2946.603089 0.9157 0.9147 0.9142 0.9140 0.9140
2950.953282 0.9132 0.9117 0.9100 0.9080 0.9060
2955.303475 0.9040 0.9012 0.8976 0.8952 0.8937
2959.653669 0.8906 0.8861 0.8811 0.8756 0.8693
2964.003862 0.8623 0.8559 0.8499 0.8452 0.8417
2968.354055 0.8387 0.8362 0.8358 0.8373 0.8390
2972.704249 0.8410 0.8441 0.8481 0.8524 0.8569
2977.054442 0.8595 0.8605 0.8610 0.8610 0.8589
2981.404636 0.8549 0.8504 0.8454 0.8417 0.8392
2985.754829 0.8370 0.8350 0.8343 0.8348 0.8388
2990.105022 0.8463 0.8523 0.8568 0.8629 0.8704
2994.455216 0.8776 0.8846 0.8901 0.8940 0.8968
2998.805409 0.8983 0.9013 0.9058 0.9085 0.9095
3003.155602 0.9095 0.9085 0.9075 0.9065 0.9055
3007.505796 0.9045 0.9030 0.9010 0.8987 0.8962
3011.855989 0.8940 0.8920 0.8902 0.8887 0.8870
3016.206182 0.8850 0.8842 0.8847 0.8855 0.8865
3020.556376 0.8882 0.8907 0.8930 0.8950 0.8975
3024.906569 0.9005 0.9030 0.9050 0.9073 0.9098
3029.256763 0.9117 0.9132 0.9147 0.9162 0.9185
3033.606956 0.9215 0.9235 0.9245 0.9250 0.9250
3037.957149 0.9250 0.9250 0.9245 0.9235 0.9225
3042.307343 0.9215 0.9200 0.9180 0.9158 0.9133
3046.657536 0.9108 0.9083 0.9070 0.9070 0.9051
3051.007729 0.9011 0.8976 0.8946 0.8935 0.8945
3055.357923 0.8962 0.8987 0.9014 0.9044 0.9074
3059.708116 0.9104 0.9125 0.9135 0.9140 0.9140
3064.058310 0.9135 0.9125 0.9115 0.9105 0.9095
3068.408503 0.9085 0.9075 0.9065 0.9039 0.8994
3072.758696 0.8956 0.8926 0.8877 0.8808 0.8754
3077.108890 0.8719 0.8691 0.8671 0.8650 0.8630
3081.459083 0.8601 0.8561 0.8521 0.8481 0.8434
3085.809276 0.8379 0.8343 0.8328 0.8278 0.8189
3090.159470 0.8103 0.8023 0.7953 0.7893 0.7860
3094.509663 0.7860 0.7901 0.7992 0.8096 0.8216
3098.859857 0.8308 0.8368 0.8423 0.8473 0.8562
3103.210050 0.8697 0.8813 0.8908 0.9003 0.9098
3107.560243 0.9159 0.9179 0.9206 0.9241 0.9276
3111.910437 0.9311 0.9337 0.9352 0.9378 0.9418
3116.260630 0.9442 0.9447 0.9452 0.9457 0.9465
3120.610823 0.9475 0.9482 0.9487 0.9494 0.9504
3124.961017 0.9512 0.9517 0.9522 0.9527 0.9530
3129.311210 0.9530 0.9530 0.9530 0.9535 0.9545
3133.661403 0.9552 0.9557 0.9560 0.9560 0.9560
3138.011597 0.9560 0.9560 0.9560 0.9560 0.9560
3142.361790 0.9562 0.9567 0.9570 0.9570 0.9570
3146.711984 0.9570 0.9568 0.9563 0.9560 0.9560
3151.062177 0.9560 0.9560 0.9562 0.9567 0.9570
3155.412370 0.9570 0.9570 0.9570 0.9570 0.9570
3159.762564 0.9570 0.9570 0.9574 0.9584 0.9590
3164.112757 0.9590 0.9586 0.9576 0.9570 0.9570
3168.462950 0.9570 0.9570 0.9570 0.9570 0.9570
3172.813144 0.9570 0.9570 0.9570 0.9570 0.9570
3177.163337 0.9570 0.9570 0.9570 0.9570 0.9570
3181.513531 0.9570 0.9568 0.9563 0.9560 0.9560
3185.863724 0.9562 0.9567 0.9570 0.9570 0.9570
3190.213917 0.9570 0.9570 0.9570 0.9568 0.9563
3194.564111 0.9558 0.9553 0.9550 0.9550 0.9550
3198.914304 0.9550 0.9550 0.9550 0.9554 0.9564
3203.264497 0.9566 0.9556 0.9550 0.9550 0.9550
3207.614691 0.9550 0.9550 0.9550 0.9550 0.9550
3211.964884 0.9546 0.9536 0.9528 0.9523 0.9520
3216.315078 0.9520 0.9520 0.9520 0.9520 0.9520
3220.665271 0.9520 0.9520 0.9520 0.9520 0.9520
3225.015464 0.9520 0.9520 0.9520 0.9520 0.9520
3229.365658 0.9520 0.9520 0.9522 0.9527 0.9530
3233.715851 0.9530 0.9528 0.9523 0.9518 0.9513
3238.066044 0.9510 0.9510 0.9510 0.9510 0.9512
3242.416238 0.9517 0.9520 0.9520 0.9520 0.9520
3246.766431 0.9520 0.9520 0.9522 0.9527 0.9530
3251.116624 0.9530 0.9530 0.9530 0.9534 0.9544
3255.466818 0.9550 0.9550 0.9550 0.9550 0.9550
3259.817011 0.9550 0.9550 0.9550 0.9550 0.9550
3264.167205 0.9550 0.9550 0.9550 0.9550 0.9550
3268.517398 0.9550 0.9550 0.9550 0.9546 0.9536
3272.867591 0.9530 0.9530 0.9530 0.9530 0.9530
3277.217785 0.9530 0.9530 0.9530 0.9530 0.9530
3281.567978 0.9530 0.9530 0.9530 0.9530 0.9530
3285.918171 0.9530 0.9530 0.9530 0.9530 0.9530
3290.268365 0.9530 0.9530 0.9530 0.9530 0.9530
3294.618558 0.9530 0.9530 0.9530 0.9530 0.9530
3298.968752 0.9530 0.9530 0.9530 0.9530 0.9528
3303.318945 0.9523 0.9520 0.9520 0.9520 0.9520
3307.669138 0.9520 0.9520 0.9520 0.9520 0.9520
3312.019332 0.9520 0.9520 0.9520 0.9518 0.9513
3316.369525 0.9510 0.9510 0.9510 0.9510 0.9510
3320.719718 0.9510 0.9510 0.9510 0.9510 0.9510
3325.069912 0.9506 0.9496 0.9490 0.9490 0.9490
3329.420105 0.9490 0.9490 0.9490 0.9490 0.9490
3333.770299 0.9490 0.9490 0.9490 0.9490 0.9490
3338.120492 0.9490 0.9490 0.9490 0.9494 0.9503
3342.470685 0.9510 0.9510 0.9507 0.9497 0.9490
3346.820879 0.9490 0.9490 0.9490 0.9490 0.9490
3351.171072 0.9488 0.9483 0.9480 0.9480 0.9482
3355.521265 0.9487 0.9490 0.9490 0.9490 0.9490
3359.871459 0.9493 0.9503 0.9512 0.9517 0.9520
3364.221652 0.9520 0.9518 0.9513 0.9510 0.9510
3368.571845 0.9510 0.9510 0.9510 0.9510 0.9510
3372.922039 0.9510 0.9512 0.9517 0.9520 0.9520
3377.272232 0.9520 0.9520 0.9520 0.9520 0.9522
3381.622426 0.9527 0.9530 0.9530 0.9530 0.9530
3385.972619 0.9530 0.9530 0.9533 0.9543 0.9550
3390.322812 0.9550 0.9550 0.9550 0.9550 0.9550
3394.673006 0.9550 0.9550 0.9552 0.9557 0.9560
3399.023199 0.9560 0.9562 0.9567 0.9568 0.9563
3403.373392 0.9560 0.9560 0.9560 0.9560 0.9560
3407.723586 0.9560 0.9558 0.9553 0.9550 0.9550
3412.073779 0.9552 0.9557 0.9560 0.9560 0.9560
3416.423973 0.9560 0.9555 0.9540 0.9530 0.9530
3420.774166 0.9530 0.9530 0.9530 0.9530 0.9534
3425.124359 0.9549 0.9560 0.9560 0.9560 0.9560
3429.474553 0.9560 0.9560 0.9562 0.9567 0.9570
3433.824746 0.9570 0.9567 0.9557 0.9550 0.9550
3438.174939 0.9550 0.9550 0.9550 0.9550 0.9547
3442.525133 0.9537 0.9530 0.9530 0.9530 0.9530
3446.875326 0.9530 0.9530 0.9533 0.9543 0.9551
3451.225520 0.9556 0.9560 0.9560 0.9560 0.9560
3455.575713 0.9561 0.9566 0.9569 0.9564 0.9560
3459.925906 0.9560 0.9560 0.9560 0.9560 0.9560
3464.276100 0.9559 0.9554 0.9550 0.9550 0.9551
3468.626293 0.9556 0.9560 0.9560 0.9561 0.9566
3472.976486 0.9570 0.9570 0.9570 0.9570 0.9570
3477.326680 0.9570 0.9569 0.9564 0.9560 0.9560
3481.676873 0.9560 0.9560 0.9560 0.9560 0.9560
3486.027066 0.9560 0.9560 0.9560 0.9560 0.9560
3490.377260 0.9561 0.9566 0.9573 0.9583 0.9591
3494.727453 0.9596 0.9600 0.9600 0.9599 0.9594
3499.077647 0.9591 0.9596 0.9601 0.9606 0.9610
3503.427840 0.9610 0.9610 0.9610 0.9610 0.9610
3507.778033 0.9610 0.9610 0.9610 0.9610 0.9613
3512.128227 0.9623 0.9631 0.9636 0.9640 0.9640
3516.478420 0.9640 0.9640 0.9640 0.9640 0.9640
3520.828613 0.9640 0.9641 0.9646 0.9650 0.9650
3525.178807 0.9649 0.9644 0.9641 0.9646 0.9650
3529.529000 0.9650 0.9652 0.9663 0.9671 0.9676
3533.879194 0.9683 0.9693 0.9700 0.9700 0.9700
3538.229387 0.9700 0.9700 0.9700 0.9698 0.9688
3542.579580 0.9680 0.9680 0.9680 0.9680 0.9680
3546.929774 0.9680 0.9680 0.9680 0.9680 0.9680
3551.279967 0.9680 0.9680 0.9680 0.9680 0.9682
3555.630160 0.9692 0.9700 0.9700 0.9700 0.9700
3559.980354 0.9701 0.9706 0.9711 0.9716 0.9720
3564.330547 0.9720 0.9718 0.9708 0.9696 0.9681
3568.680741 0.9670 0.9670 0.9671 0.9676 0.9685
3573.030934 0.9705 0.9722 0.9732 0.9740 0.9740
3577.381127 0.9740 0.9740 0.9740 0.9740 0.9741
3581.731321 0.9746 0.9749 0.9744 0.9738 0.9728
3586.081514 0.9718 0.9708 0.9694 0.9669 0.9652
3590.431707 0.9662 0.9671 0.9676 0.9684 0.9704
3594.781901 0.9722 0.9732 0.9740 0.9740 0.9741
3599.132094 0.9746 0.9751 0.9756 0.9762 0.9772
3603.482287 0.9780 0.9780 0.9780 0.9780 0.9781
3607.832481 0.9786 0.9790 0.9790 0.9789 0.9784
3612.182674 0.9781 0.9786 0.9789 0.9784 0.9777
3616.532868 0.9762 0.9749 0.9744 0.9741 0.9746
3620.883061 0.9751 0.9756 0.9763 0.9778 0.9791
3625.233254 0.9796 0.9798 0.9788 0.9780 0.9780
3629.583448 0.9780 0.9780 0.9781 0.9786 0.9791
3633.933641 0.9796 0.9802 0.9812 0.9823 0.9838
3638.283834 0.9851 0.9856 0.9861 0.9866 0.9873
3642.634028 0.9888 0.9899 0.9894 0.9888 0.9878
3646.984221 0.9868 0.9858 0.9850 0.9850 0.9848
3651.334415 0.9838 0.9832 0.9842 0.9850 0.9850
3655.684608 0.9851 0.9856 0.9861 0.9866 0.9872
3660.034801 0.9882 0.9892 0.9902 0.9913 0.9928
3664.384995 0.9941 0.9946 0.9949 0.9944 0.9940
3668.735188 0.9940 0.9937 0.9922 0.9908 0.9898
3673.085381 0.9890 0.9890 0.9888 0.9878 0.9870
3677.435575 0.9870 0.9873 0.9888 0.9904 0.9929
3681.785768 0.9955 0.9985 1.0010 1.0010 1.0009
3686.135962 1.0004 0.9998 0.9982 0.9970 0.9970
3690.486155 0.9968 0.9958 0.9952 0.9962 0.9971
3694.836348 0.9976 0.9983 0.9998 1.0013 1.0028
3699.186542 1.0040 1.0040 1.0038 1.0023 1.0008
3703.536735 0.9993 0.9980 0.9980 0.9980 0.9980
3707.886928 0.9980 0.9980 0.9980 0.9980 0.9979
3712.237122 0.9974 0.9968 0.9958 0.9952 0.9962
3716.587315 0.9973 0.9993 1.0011 1.0016 1.0019
3720.937508 1.0014 1.0011 1.0016 1.0020 1.0020
3725.287702 1.0019 1.0014 1.0010 1.0010 1.0009
3729.637895 1.0004 1.0000 1.0000 1.0000 1.0000
3733.988089 1.0001 1.0006 1.0009 1.0004 1.0001
3738.338282 1.0011 1.0019 1.0014 1.0010 1.0010
3742.688475 1.0009 1.0004 0.9998 0.9983 0.9968
3747.038669 0.9953 0.9939 0.9934 0.9930 0.9930
3751.388862 0.9930 0.9930 0.9931 0.9936 0.9945
3755.739055 0.9980 1.0012 1.0027 1.0040 1.0040
3760.089249 1.0041 1.0046 1.0051 1.0056 1.0060
3764.439442 1.0060 1.0060 1.0060 1.0060 1.0060
3768.789636 1.0060 1.0060 1.0060 1.0060 1.0060
3773.139829 1.0060 1.0061 1.0071 1.0081 1.0086
3777.490022 1.0090 1.0090 1.0090 1.0090 1.0090
3781.840216 1.0090 1.0090 1.0090 1.0089 1.0084
3786.190409 1.0080 1.0080 1.0080 1.0080 1.0079
3790.540602 1.0069 1.0060 1.0060 1.0060 1.0060
3794.890796 1.0059 1.0054 1.0050 1.0050
##END=
