##TITLE=1-BUTENE, 3,3-DIMETHYL-
##JCAMP-DX=4.24
##DATA TYPE=INFRARED SPECTRUM
##CLASS=COBLENTZ III
##ORIGIN=DOW CORNING CORP.
##OWNER=COBLENTZ SOCIETY
Collection (C) 2018 copyright by the U.S. Secretary of Commerce
on behalf of the United States of America. All rights reserved.
##DATE=1965/09/10
##NAMES=3,3-dimethyl-1-butene
##CAS REGISTRY NO=558-37-2
##MOLFORM=C6 H12
##SOURCE REFERENCE=COBLENTZ NO. 4270
##$NIST SOURCE=COBLENTZ
##$NIST IMAGE=cob4270
##SPECTROMETER/DATA SYSTEM=PERKIN-ELMER 521 (GRATING)
##INSTRUMENT PARAMETERS=FILTERS AT 3150, 2500, 2000, 1150, 700, 410; GRATING CHANGES AT 2000, 630 CM^-^1
##STATE=SOLUTION (10% IN CCl4 FOR 3800-1300, 10% IN CS2 FOR 1300-650, AND 10% IN CCl4 FOR 650-250 CM^-^1) VERSUS SOLVENT
##PATH LENGTH=0.011, 0.011, AND 0.010 CM (CsBr CELL)
##SAMPLING PROCEDURE=TRANSMISSION
##RESOLUTION=4
##DATA PROCESSING=DIGITIZED BY NIST FROM HARD COPY (FROM TWO SEGMENTS)
##XUNITS=1/CM
##YUNITS=TRANSMITTANCE
##XFACTOR=1.000000
##YFACTOR=1
##DELTAX=1.023018
##FIRSTX=250.639
##LASTX=3800.51
##FIRSTY=0.979
##MAXX=3800.51
##MINX=250.639
##MAXY=0.953
##MINY=0
##NPOINTS=3471
##XYDATA=(X++(Y..Y))
250.639000 0.9790 0.9770 0.9770 0.9760 0.9750
255.754091 0.9650 0.9580 0.9550 0.9540 0.9540
260.869181 0.9530 0.9530 0.9530 0.9530 0.9530
265.984272 0.9510 0.9510 0.9510 0.9490 0.9470
271.099363 0.9470 0.9470 0.9470 0.9470 0.9460
276.214453 0.9440 0.9440 0.9430 0.9420 0.9400
281.329544 0.9390 0.9360 0.9350 0.9330 0.9320
286.444635 0.9310 0.9310 0.9310 0.9310 0.9320
291.559725 0.9320 0.9320 0.9320 0.9310 0.9290
296.674816 0.9290 0.9290 0.9280 0.9280 0.9270
301.789906 0.9270 0.9250 0.9240 0.9220 0.9220
306.904997 0.9210 0.9210 0.9210 0.9210 0.9210
312.020088 0.9220 0.9240 0.9240 0.9270 0.9280
317.135178 0.9290 0.9310 0.9310 0.9310 0.9290
322.250269 0.9290 0.9280 0.9270 0.9250 0.9240
327.365360 0.9240 0.9240 0.9250 0.9270 0.9280
332.480450 0.9280 0.9290 0.9290 0.9290 0.9310
337.595541 0.9310 0.9310 0.9290 0.9290 0.9280
342.710632 0.9280 0.9280 0.9270 0.9270 0.9270
347.825722 0.9270 0.9250 0.9250 0.9240 0.9240
352.940813 0.9240 0.9250 0.9270 0.9270 0.9270
358.055904 0.9270 0.9270 0.9270 0.9250 0.9250
363.170994 0.9250 0.9250 0.9250 0.9270 0.9270
368.286085 0.9280 0.9280 0.9270 0.9270 0.9250
373.401175 0.9240 0.9220 0.9210 0.9170 0.9110
378.516266 0.9090 0.9100 0.9160 0.9210 0.9240
383.631357 0.9250 0.9270 0.9310 0.9320 0.9330
388.746447 0.9330 0.9350 0.9350 0.9350 0.9330
393.861538 0.9330 0.9320 0.9320 0.9310 0.9290
398.976629 0.9290 0.9290 0.9310 0.9310 0.9320
404.091719 0.9320 0.9330 0.9330 0.9350 0.9360
409.206810 0.9380 0.9390 0.9390 0.9390 0.9400
414.321901 0.9400 0.9420 0.9420 0.9420 0.9420
419.436991 0.9430 0.9430 0.9430 0.9440 0.9460
424.552082 0.9460 0.9470 0.9470 0.9470 0.9490
429.667173 0.9490 0.9500 0.9500 0.9510 0.9510
434.782263 0.9530 0.9530 0.9530 0.9530 0.9530
439.897354 0.9510 0.9510 0.9490 0.9490 0.9470
445.012444 0.9440 0.9420 0.9390 0.9360 0.9350
450.127535 0.9330 0.9330 0.9320 0.9320 0.9310
455.242626 0.9290 0.9280 0.9280 0.9280 0.9270
460.357716 0.9270 0.9270 0.9250 0.9250 0.9250
465.472807 0.9240 0.9240 0.9220 0.9220 0.9210
470.587898 0.9200 0.9200 0.9180 0.9170 0.9170
475.702988 0.9170 0.9170 0.9170 0.9180 0.9180
480.818079 0.9180 0.9180 0.9200 0.9200 0.9200
485.933170 0.9200 0.9200 0.9200 0.9200 0.9200
491.048260 0.9180 0.9180 0.9170 0.9170 0.9170
496.163351 0.9170 0.9160 0.9160 0.9160 0.9140
501.278442 0.9140 0.9140 0.9140 0.9140 0.9140
506.393532 0.9130 0.9110 0.9110 0.9090 0.9090
511.508623 0.9070 0.9070 0.9060 0.9050 0.9050
516.623713 0.9050 0.9050 0.9060 0.9060 0.9060
521.738804 0.9070 0.9070 0.9090 0.9090 0.9100
526.853895 0.9100 0.9110 0.9110 0.9110 0.9110
531.968985 0.9130 0.9130 0.9130 0.9130 0.9140
537.084076 0.9140 0.9140 0.9140 0.9140 0.9140
542.199167 0.9140 0.9140 0.9140 0.9140 0.9140
547.314257 0.9140 0.9140 0.9160 0.9160 0.9170
552.429348 0.9170 0.9170 0.9180 0.9180 0.9200
557.544439 0.9200 0.9200 0.9210 0.9210 0.9210
562.659529 0.9210 0.9210 0.9210 0.9210 0.9210
567.774620 0.9220 0.9220 0.9220 0.9220 0.9220
572.889711 0.9220 0.9220 0.9220 0.9240 0.9240
578.004801 0.9240 0.9240 0.9240 0.9240 0.9240
583.119892 0.9240 0.9240 0.9240 0.9240 0.9240
588.234982 0.9240 0.9250 0.9250 0.9250 0.9250
593.350073 0.9250 0.9250 0.9250 0.9250 0.9250
598.465164 0.9250 0.9250 0.9250 0.9250 0.9250
603.580254 0.9250 0.9250 0.9240 0.9240 0.9240
608.695345 0.9220 0.9220 0.9220 0.9220 0.9210
613.810436 0.9210 0.9210 0.9210 0.9180 0.9170
618.925526 0.9160 0.9140 0.9130 0.9090 0.9060
624.040617 0.9030 0.8980 0.8940 0.8910 0.8880
629.155708 0.8850 0.8830 0.8800 0.8770 0.8740
634.270798 0.8720 0.8670 0.8650 0.8620 0.8590
639.385889 0.8560 0.8540 0.8510 0.8480 0.8450
644.500980 0.8430 0.8360 0.8300 0.8260 0.8220
649.616070 0.8180 0.8140 0.8070 0.8010 0.7990
654.731161 0.7920 0.7860 0.7770 0.7680 0.7620
659.846251 0.7550 0.7370 0.7230 0.7080 0.7010
664.961342 0.6970 0.6910 0.6900 0.6870 0.6721
670.076433 0.6570 0.6180 0.5741 0.5550 0.5221
675.191523 0.4622 0.4112 0.3851 0.3571 0.3381
680.306614 0.2900 0.2880 0.3080 0.3210 0.4008
685.421705 0.4618 0.5038 0.5508 0.5918 0.6288
690.536795 0.6600 0.7080 0.7150 0.7330 0.7490
695.651886 0.7600 0.7739 0.7750 0.7770 0.7919
700.766977 0.7970 0.8000 0.8030 0.8060 0.8120
705.882067 0.8120 0.8150 0.8190 0.8210 0.8220
710.997158 0.8220 0.8250 0.8280 0.8300 0.8300
716.112249 0.8320 0.8360 0.8400 0.8410 0.8410
721.227339 0.8450 0.8470 0.8470 0.8470 0.8470
726.342430 0.8470 0.8470 0.8470 0.8470 0.8510
731.457520 0.8520 0.8540 0.8550 0.8550 0.8550
736.572611 0.8550 0.8550 0.8550 0.8560 0.8560
741.687702 0.8590 0.8590 0.8590 0.8590 0.8590
746.802792 0.8590 0.8590 0.8590 0.8590 0.8560
751.917883 0.8560 0.8560 0.8560 0.8580 0.8580
757.032974 0.8580 0.8580 0.8580 0.8560 0.8560
762.148064 0.8550 0.8550 0.8550 0.8550 0.8550
767.263155 0.8560 0.8560 0.8560 0.8550 0.8550
772.378246 0.8540 0.8510 0.8500 0.8500 0.8470
777.493336 0.8450 0.8450 0.8440 0.8440 0.8430
782.608427 0.8430 0.8430 0.8430 0.8410 0.8410
787.723518 0.8410 0.8410 0.8410 0.8410 0.8410
792.838608 0.8410 0.8410 0.8410 0.8410 0.8410
797.953699 0.8410 0.8410 0.8410 0.8430 0.8430
803.068789 0.8410 0.8410 0.8410 0.8410 0.8400
808.183880 0.8400 0.8400 0.8400 0.8400 0.8400
813.298971 0.8400 0.8400 0.8400 0.8400 0.8410
818.414061 0.8440 0.8440 0.8440 0.8450 0.8450
823.529152 0.8450 0.8470 0.8480 0.8520 0.8540
828.644243 0.8540 0.8550 0.8550 0.8560 0.8580
833.759333 0.8590 0.8610 0.8620 0.8630 0.8630
838.874424 0.8630 0.8630 0.8650 0.8650 0.8650
843.989515 0.8650 0.8630 0.8620 0.8610 0.8590
849.104605 0.8580 0.8520 0.8450 0.8360 0.8300
854.219696 0.8250 0.8170 0.8140 0.8120 0.8000
859.334787 0.7960 0.7850 0.7840 0.7780 0.7750
864.449877 0.7660 0.7600 0.7560 0.7510 0.7440
869.564968 0.7241 0.7021 0.6930 0.6830 0.6611
874.680058 0.6170 0.5940 0.5700 0.5470 0.5251
879.795149 0.5250 0.5439 0.5629 0.5958 0.5960
884.910240 0.5840 0.5770 0.5690 0.5610 0.5520
890.025330 0.5360 0.5061 0.4771 0.4262 0.4031
895.140421 0.3780 0.3370 0.2611 0.2500 0.1553
900.255512 0.1042 0.0522 0.0420 0.0112 0.0090
905.370602 0.0090 0.0130 0.0170 0.0220 0.0330
910.485693 0.0380 0.0699 0.0989 0.1298 0.1688
915.600784 0.2100 0.2510 0.2879 0.3229 0.3998
920.715874 0.4359 0.4509 0.4968 0.5030 0.5239
925.830965 0.5480 0.5700 0.5880 0.5920 0.6010
930.946056 0.6180 0.6339 0.6460 0.6500 0.6649
936.061146 0.6720 0.6800 0.6930 0.7010 0.7040
941.176237 0.7080 0.7080 0.7090 0.7110 0.7130
946.291327 0.7160 0.7190 0.7200 0.7220 0.7230
951.406418 0.7270 0.7290 0.7300 0.7300 0.7300
956.521509 0.7290 0.7290 0.7270 0.7260 0.7200
961.636599 0.7190 0.7180 0.7180 0.7160 0.7160
966.751690 0.7130 0.7090 0.7010 0.6980 0.6960
971.866781 0.6910 0.6800 0.6760 0.6710 0.6640
976.981871 0.6530 0.6400 0.6310 0.6160 0.6020
982.096962 0.5771 0.5481 0.5151 0.4712 0.4292
987.212053 0.4010 0.3740 0.3610 0.2751 0.2281
992.327143 0.1363 0.1071 0.1070 0.1269 0.1290
997.442234 0.1620 0.1770 0.1800 0.2769 0.3718
1002.557325 0.4249 0.4748 0.5278 0.5499 0.5719
1007.672415 0.5880 0.6050 0.6130 0.6170 0.6210
1012.787506 0.6210 0.6160 0.6090 0.5742 0.5631
1017.902596 0.5540 0.5440 0.5330 0.5330 0.5470
1023.017687 0.5620 0.5769 0.5919 0.6457 0.6500
1028.132778 0.6650 0.7050 0.7110 0.7150 0.7230
1033.247868 0.7260 0.7330 0.7400 0.7410 0.7440
1038.362959 0.7460 0.7460 0.7460 0.7450 0.7440
1043.478050 0.7440 0.7420 0.7420 0.7420 0.7410
1048.593140 0.7380 0.7330 0.7240 0.7110 0.7080
1053.708231 0.7000 0.6970 0.6940 0.6791 0.6362
1058.823322 0.6320 0.6090 0.5990 0.5870 0.5880
1063.938412 0.5960 0.5980 0.6060 0.6508 0.6759
1069.053503 0.6780 0.7070 0.7200 0.7350 0.7520
1074.168594 0.7590 0.7600 0.7660 0.7680 0.7730
1079.283684 0.7740 0.7750 0.7770 0.7780 0.7790
1084.398775 0.7820 0.7840 0.7850 0.7860 0.7880
1089.513865 0.7890 0.7890 0.7900 0.7920 0.7930
1094.628956 0.7950 0.7960 0.7970 0.7990 0.8000
1099.744047 0.8010 0.8030 0.8030 0.8030 0.8040
1104.859137 0.8040 0.8040 0.8040 0.8060 0.8060
1109.974228 0.8060 0.8060 0.8060 0.8060 0.8060
1115.089319 0.8060 0.8060 0.8060 0.8060 0.8060
1120.204409 0.8060 0.8060 0.8060 0.8060 0.8060
1125.319500 0.8060 0.8060 0.8060 0.8060 0.8060
1130.434591 0.8060 0.8040 0.8030 0.8030 0.8030
1135.549681 0.8040 0.8040 0.8040 0.8040 0.8040
1140.664772 0.8040 0.8030 0.8030 0.8030 0.8030
1145.779863 0.8010 0.7990 0.7990 0.7970 0.7950
1150.894953 0.7950 0.7930 0.7930 0.7920 0.7920
1156.010044 0.7900 0.7890 0.7860 0.7840 0.7810
1161.125135 0.7780 0.7770 0.7640 0.7630 0.7600
1166.240225 0.7590 0.7570 0.7570 0.7560 0.7550
1171.355316 0.7510 0.7480 0.7450 0.7410 0.7350
1176.470406 0.7270 0.7180 0.7090 0.7080 0.7020
1181.585497 0.6970 0.6890 0.6800 0.6780 0.6680
1186.700588 0.6491 0.6390 0.6271 0.6071 0.5633
1191.815678 0.5180 0.4810 0.4590 0.4341 0.4091
1196.930769 0.3970 0.3850 0.3601 0.3351 0.3101
1202.045860 0.3100 0.3250 0.3450 0.3460 0.4039
1207.160950 0.4339 0.4629 0.4929 0.5497 0.5510
1212.276041 0.5900 0.6070 0.6310 0.6460 0.6600
1217.391132 0.6650 0.6790 0.6929 0.7000 0.7090
1222.506222 0.7130 0.7190 0.7260 0.7290 0.7310
1227.621313 0.7340 0.7350 0.7350 0.7370 0.7380
1232.736404 0.7400 0.7400 0.7410 0.7410 0.7420
1237.851494 0.7420 0.7420 0.7420 0.7410 0.7410
1242.966585 0.7400 0.7380 0.7370 0.7350 0.7310
1248.081675 0.7230 0.7150 0.7070 0.7010 0.6940
1253.196766 0.6900 0.6780 0.6710 0.6610 0.6450
1258.311857 0.6291 0.6270 0.5941 0.5920 0.5940
1263.426947 0.6070 0.6170 0.6340 0.6619 0.7019
1268.542038 0.7289 0.7459 0.7480 0.7530 0.7570
1273.657129 0.7630 0.7670 0.7710 0.7770 0.7810
1278.772219 0.7860 0.7900 0.7950 0.8000 0.8040
1283.887310 0.8100 0.8140 0.8180 0.8230 0.8300
1289.002401 0.8320 0.8340 0.8360 0.8370 0.8390
1294.117491 0.8410 0.8430 0.8440 0.8450 0.8470
1299.232582 0.8470 0.8480 0.8480 0.8480 0.8500
1304.347673 0.8500 0.8500 0.8500 0.8500 0.8500
1309.462763 0.8500 0.8500 0.8500 0.8500 0.8500
1314.577854 0.8480 0.8480 0.8480 0.8470 0.8450
1319.692944 0.8450 0.8440 0.8410 0.8410 0.8400
1324.808035 0.8390 0.8360 0.8340 0.8330 0.8280
1329.923126 0.8260 0.8220 0.8190 0.8140 0.8120
1335.038216 0.7950 0.7930 0.7880 0.7850 0.7810
1340.153307 0.7740 0.7481 0.7420 0.7221 0.7081
1345.268398 0.6940 0.6790 0.6670 0.6391 0.5792
1350.383488 0.4714 0.4342 0.3972 0.2627 0.2481
1355.498579 0.1161 0.1160 0.1669 0.2199 0.2719
1360.613670 0.3238 0.4445 0.4958 0.5477 0.5808
1365.728760 0.6170 0.6380 0.6510 0.6560 0.6560
1370.843851 0.6540 0.6470 0.6351 0.6012 0.5960
1375.958942 0.5410 0.5110 0.4730 0.4490 0.4490
1381.074032 0.4969 0.5428 0.5629 0.6197 0.7085
1386.189123 0.7200 0.7310 0.7400 0.7400 0.7380
1391.304213 0.7370 0.7350 0.7340 0.7290 0.7240
1396.419304 0.7200 0.7120 0.7050 0.6980 0.6870
1401.534395 0.6680 0.6600 0.6341 0.6021 0.5761
1406.649485 0.5330 0.4880 0.4421 0.4201 0.3971
1411.764576 0.4359 0.5027 0.5408 0.5589 0.6018
1416.879667 0.6290 0.6390 0.6450 0.6500 0.6540
1421.994757 0.6600 0.6650 0.6789 0.6909 0.6960
1427.109848 0.6970 0.6970 0.6970 0.6960 0.6910
1432.224939 0.6900 0.6830 0.6681 0.6620 0.6580
1437.340029 0.6510 0.6350 0.6270 0.6030 0.5940
1442.455120 0.5880 0.5850 0.5730 0.5621 0.5371
1447.570211 0.5000 0.4710 0.4031 0.3900 0.3780
1452.685301 0.3092 0.2950 0.2870 0.2860 0.2870
1457.800392 0.3010 0.3130 0.3609 0.3999 0.4189
1462.915482 0.4330 0.4360 0.4330 0.4270 0.4051
1468.030573 0.3830 0.2801 0.2261 0.2001 0.1741
1473.145664 0.1740 0.2288 0.2838 0.3367 0.4305
1478.260754 0.5500 0.6010 0.6280 0.6510 0.6749
1483.375845 0.7079 0.7329 0.7449 0.7490 0.7510
1488.490936 0.7590 0.7660 0.7850 0.7950 0.8120
1493.606026 0.8190 0.8220 0.8320 0.8340 0.8400
1498.721117 0.8440 0.8470 0.8500 0.8520 0.8550
1503.836208 0.8590 0.8610 0.8650 0.8690 0.8700
1508.951298 0.8720 0.8720 0.8740 0.8760 0.8780
1514.066389 0.8850 0.8890 0.8890 0.8910 0.8910
1519.181480 0.8920 0.8920 0.8960 0.8980 0.9000
1524.296570 0.9030 0.9070 0.9100 0.9100 0.9100
1529.411661 0.9100 0.9110 0.9110 0.9110 0.9110
1534.526751 0.9110 0.9130 0.9130 0.9130 0.9110
1539.641842 0.9100 0.9100 0.9100 0.9100 0.9090
1544.756933 0.9070 0.9060 0.9060 0.9060 0.9050
1549.872023 0.9030 0.8990 0.8960 0.8950 0.8950
1554.987114 0.8940 0.8920 0.8910 0.8910 0.8890
1560.102205 0.8890 0.8880 0.8850 0.8830 0.8800
1565.217295 0.8780 0.8760 0.8720 0.8690 0.8660
1570.332386 0.8620 0.8590 0.8520 0.8450 0.8400
1575.447477 0.8330 0.8290 0.8250 0.8121 0.8011
1580.562567 0.7900 0.7880 0.7810 0.7780 0.7770
1585.677658 0.7780 0.7810 0.7900 0.7960 0.8030
1590.792749 0.8220 0.8280 0.8340 0.8360 0.8360
1595.907839 0.8360 0.8370 0.8390 0.8400 0.8410
1601.022930 0.8410 0.8410 0.8400 0.8370 0.8360
1606.138020 0.8330 0.8230 0.8220 0.8210 0.8180
1611.253111 0.8120 0.8110 0.8070 0.8060 0.8040
1616.368202 0.8010 0.7970 0.7920 0.7811 0.7671
1621.483292 0.7620 0.7570 0.7420 0.7230 0.7080
1626.598383 0.6930 0.6691 0.6092 0.5333 0.4196
1631.713474 0.3850 0.3490 0.2701 0.2061 0.1522
1636.828564 0.1520 0.2675 0.3048 0.4950 0.5537
1641.943655 0.6430 0.6620 0.7149 0.7419 0.7699
1647.058746 0.7770 0.7790 0.7929 0.7960 0.8059
1652.173836 0.8080 0.8110 0.8140 0.8150 0.8180
1657.288927 0.8190 0.8300 0.8320 0.8330 0.8340
1662.404018 0.8340 0.8340 0.8340 0.8340 0.8330
1667.519108 0.8330 0.8330 0.8330 0.8340 0.8360
1672.634199 0.8370 0.8370 0.8390 0.8390 0.8400
1677.749289 0.8410 0.8430 0.8440 0.8450 0.8510
1682.864380 0.8520 0.8560 0.8580 0.8590 0.8590
1687.979471 0.8610 0.8620 0.8620 0.8620 0.8610
1693.094561 0.8610 0.8610 0.8610 0.8620 0.8620
1698.209652 0.8620 0.8630 0.8630 0.8630 0.8620
1703.324743 0.8610 0.8610 0.8610 0.8620 0.8620
1708.439833 0.8630 0.8630 0.8630 0.8630 0.8620
1713.554924 0.8630 0.8630 0.8630 0.8630 0.8630
1718.670015 0.8650 0.8650 0.8630 0.8630 0.8630
1723.785105 0.8630 0.8630 0.8630 0.8630 0.8630
1728.900196 0.8630 0.8630 0.8630 0.8630 0.8620
1734.015287 0.8620 0.8610 0.8610 0.8610 0.8610
1739.130377 0.8620 0.8620 0.8630 0.8630 0.8650
1744.245468 0.8650 0.8650 0.8630 0.8620 0.8610
1749.360558 0.8590 0.8580 0.8560 0.8560 0.8550
1754.475649 0.8550 0.8550 0.8550 0.8560 0.8560
1759.590740 0.8580 0.8650 0.8660 0.8660 0.8670
1764.705830 0.8670 0.8700 0.8700 0.8700 0.8700
1769.820921 0.8700 0.8700 0.8700 0.8700 0.8700
1774.936012 0.8700 0.8700 0.8700 0.8700 0.8700
1780.051102 0.8700 0.8700 0.8700 0.8700 0.8700
1785.166193 0.8700 0.8690 0.8690 0.8670 0.8670
1790.281284 0.8670 0.8650 0.8650 0.8650 0.8630
1795.396374 0.8620 0.8590 0.8580 0.8560 0.8550
1800.511465 0.8520 0.8500 0.8480 0.8470 0.8450
1805.626556 0.8430 0.8360 0.8320 0.8250 0.8170
1810.741646 0.8140 0.8060 0.7960 0.7920 0.7840
1815.856737 0.7770 0.7630 0.7570 0.7530 0.7520
1820.971827 0.7530 0.7550 0.7560 0.7570 0.7620
1826.086918 0.7660 0.7680 0.7820 0.7930 0.8060
1831.202009 0.8150 0.8210 0.8339 0.8370 0.8430
1836.317099 0.8450 0.8480 0.8520 0.8550 0.8560
1841.432190 0.8610 0.8690 0.8700 0.8700 0.8700
1846.547281 0.8700 0.8720 0.8720 0.8720 0.8730
1851.662371 0.8760 0.8770 0.8770 0.8740 0.8730
1856.777462 0.8730 0.8730 0.8730 0.8730 0.8730
1861.892553 0.8730 0.8730 0.8730 0.8760 0.8760
1867.007643 0.8740 0.8730 0.8730 0.8730 0.8730
1872.122734 0.8730 0.8730 0.8730 0.8730 0.8730
1877.237825 0.8730 0.8730 0.8730 0.8730 0.8730
1882.352915 0.8730 0.8730 0.8730 0.8730 0.8740
1887.468006 0.8740 0.8760 0.8770 0.8770 0.8770
1892.583096 0.8760 0.8760 0.8730 0.8730 0.8730
1897.698187 0.8720 0.8720 0.8720 0.8720 0.8720
1902.813278 0.8720 0.8720 0.8720 0.8720 0.8720
1907.928368 0.8720 0.8720 0.8720 0.8720 0.8720
1913.043459 0.8730 0.8730 0.8730 0.8730 0.8730
1918.158550 0.8730 0.8720 0.8720 0.8730 0.8730
1923.273640 0.8730 0.8740 0.8740 0.8760 0.8760
1928.388731 0.8740 0.8760 0.8770 0.8770 0.8780
1933.503822 0.8800 0.8800 0.8770 0.8760 0.8760
1938.618912 0.8740 0.8730 0.8730 0.8730 0.8740
1943.734003 0.8740 0.8740 0.8740 0.8740 0.8740
1948.849094 0.8740 0.8730 0.8720 0.8720 0.8730
1953.964184 0.8740 0.8780 0.8780 0.8770 0.8740
1959.079275 0.8730 0.8730 0.8740 0.8770 0.8780
1964.194365 0.8780 0.8780 0.8780 0.8770 0.8770
1969.309456 0.8740 0.8740 0.8720 0.8700 0.8690
1974.424547 0.8660 0.8660 0.8650 0.8650 0.8650
1979.539637 0.8650 0.8630 0.8630 0.8650 0.8650
1984.654728 0.8670 0.8670 0.8690 0.8700 0.8700
1989.769819 0.8720 0.8720 0.8730 0.8730 0.8730
1994.884909 0.8730 0.8720 0.8720 0.8720 0.8730
2000.000000 0.8740 0.8750 0.8760 0.8770 0.8780
2005.115091 0.8796 0.8810 0.8821 0.8830 0.8830
2010.230181 0.8830 0.8835 0.8840 0.8840 0.8840
2015.345272 0.8840 0.8839 0.8834 0.8830 0.8830
2020.460363 0.8828 0.8818 0.8809 0.8804 0.8800
2025.575453 0.8800 0.8798 0.8788 0.8782 0.8792
2030.690544 0.8801 0.8806 0.8810 0.8810 0.8813
2035.805635 0.8823 0.8830 0.8830 0.8832 0.8837
2040.920725 0.8840 0.8840 0.8840 0.8840 0.8840
2046.035816 0.8840 0.8840 0.8840 0.8838 0.8833
2051.150906 0.8830 0.8830 0.8830 0.8830 0.8825
2056.265997 0.8815 0.8810 0.8810 0.8810 0.8810
2061.381088 0.8807 0.8802 0.8794 0.8784 0.8780
2066.496178 0.8780 0.8774 0.8764 0.8754 0.8744
2071.611269 0.8737 0.8732 0.8730 0.8730 0.8730
2076.726360 0.8730 0.8733 0.8738 0.8740 0.8740
2081.841450 0.8747 0.8757 0.8760 0.8760 0.8760
2086.956541 0.8760 0.8752 0.8742 0.8740 0.8740
2092.071632 0.8736 0.8731 0.8730 0.8730 0.8730
2097.186722 0.8730 0.8730 0.8730 0.8726 0.8721
2102.301813 0.8720 0.8720 0.8725 0.8730 0.8730
2107.416904 0.8730 0.8730 0.8730 0.8730 0.8730
2112.531994 0.8730 0.8730 0.8730 0.8730 0.8730
2117.647085 0.8730 0.8735 0.8740 0.8740 0.8740
2122.762175 0.8735 0.8730 0.8730 0.8730 0.8730
2127.877266 0.8730 0.8730 0.8730 0.8730 0.8730
2132.992357 0.8730 0.8732 0.8748 0.8760 0.8760
2138.107447 0.8760 0.8760 0.8760 0.8760 0.8760
2143.222538 0.8760 0.8760 0.8760 0.8760 0.8760
2148.337629 0.8757 0.8747 0.8740 0.8740 0.8743
2153.452719 0.8753 0.8760 0.8760 0.8762 0.8767
2158.567810 0.8770 0.8770 0.8770 0.8770 0.8772
2163.682901 0.8777 0.8780 0.8780 0.8780 0.8780
2168.797991 0.8778 0.8773 0.8768 0.8763 0.8760
2173.913082 0.8760 0.8760 0.8760 0.8760 0.8760
2179.028173 0.8760 0.8760 0.8760 0.8760 0.8760
2184.143263 0.8760 0.8754 0.8744 0.8740 0.8740
2189.258354 0.8740 0.8740 0.8737 0.8732 0.8730
2194.373444 0.8730 0.8730 0.8730 0.8741 0.8756
2199.488535 0.8764 0.8769 0.8774 0.8779 0.8788
2204.603626 0.8798 0.8800 0.8800 0.8800 0.8800
2209.718716 0.8792 0.8782 0.8780 0.8780 0.8780
2214.833807 0.8780 0.8780 0.8780 0.8776 0.8771
2219.948898 0.8770 0.8770 0.8765 0.8760 0.8760
2225.063988 0.8760 0.8760 0.8760 0.8750 0.8740
2230.179079 0.8735 0.8730 0.8730 0.8730 0.8730
2235.294170 0.8730 0.8735 0.8740 0.8740 0.8740
2240.409260 0.8740 0.8741 0.8751 0.8760 0.8760
2245.524351 0.8760 0.8760 0.8760 0.8760 0.8760
2250.639442 0.8760 0.8760 0.8760 0.8760 0.8760
2255.754532 0.8758 0.8748 0.8740 0.8740 0.8740
2260.869623 0.8740 0.8740 0.8740 0.8740 0.8740
2265.984713 0.8740 0.8740 0.8743 0.8753 0.8760
2271.099804 0.8760 0.8756 0.8746 0.8740 0.8740
2276.214895 0.8738 0.8733 0.8730 0.8730 0.8728
2281.329985 0.8723 0.8709 0.8683 0.8668 0.8663
2286.445076 0.8657 0.8652 0.8653 0.8658 0.8668
2291.560167 0.8683 0.8693 0.8698 0.8706 0.8716
2296.675257 0.8723 0.8728 0.8733 0.8738 0.8740
2301.790348 0.8740 0.8746 0.8757 0.8763 0.8768
2306.905439 0.8770 0.8770 0.8770 0.8770 0.8774
2312.020529 0.8779 0.8780 0.8780 0.8787 0.8798
2317.135620 0.8800 0.8800 0.8800 0.8800 0.8792
2322.250711 0.8782 0.8788 0.8798 0.8800 0.8800
2327.365801 0.8800 0.8800 0.8800 0.8800 0.8800
2332.480892 0.8800 0.8800 0.8800 0.8800 0.8800
2337.595982 0.8805 0.8810 0.8805 0.8800 0.8790
2342.711073 0.8780 0.8770 0.8760 0.8750 0.8740
2347.826164 0.8735 0.8730 0.8730 0.8730 0.8735
2352.941254 0.8740 0.8740 0.8740 0.8740 0.8740
2358.056345 0.8740 0.8740 0.8740 0.8740 0.8740
2363.171436 0.8739 0.8734 0.8730 0.8730 0.8729
2368.286526 0.8724 0.8720 0.8720 0.8720 0.8720
2373.401617 0.8717 0.8707 0.8700 0.8700 0.8700
2378.516708 0.8700 0.8700 0.8700 0.8705 0.8720
2383.631798 0.8730 0.8730 0.8730 0.8730 0.8730
2388.746889 0.8730 0.8728 0.8723 0.8720 0.8720
2393.861980 0.8716 0.8706 0.8698 0.8693 0.8690
2398.977070 0.8690 0.8690 0.8690 0.8690 0.8690
2404.092161 0.8693 0.8698 0.8700 0.8700 0.8706
2409.207251 0.8716 0.8720 0.8720 0.8723 0.8728
2414.322342 0.8730 0.8730 0.8730 0.8730 0.8730
2419.437433 0.8730 0.8727 0.8722 0.8720 0.8720
2424.552523 0.8724 0.8729 0.8730 0.8730 0.8730
2429.667614 0.8730 0.8730 0.8730 0.8730 0.8730
2434.782705 0.8730 0.8730 0.8734 0.8739 0.8740
2439.897795 0.8740 0.8748 0.8759 0.8760 0.8760
2445.012886 0.8760 0.8760 0.8760 0.8760 0.8760
2450.127977 0.8760 0.8751 0.8740 0.8735 0.8730
2455.243067 0.8715 0.8700 0.8685 0.8670 0.8685
2460.358158 0.8700 0.8715 0.8730 0.8730 0.8730
2465.473249 0.8730 0.8730 0.8725 0.8719 0.8709
2470.588339 0.8700 0.8700 0.8701 0.8711 0.8720
2475.703430 0.8720 0.8721 0.8726 0.8731 0.8736
2480.818520 0.8739 0.8734 0.8729 0.8724 0.8718
2485.933611 0.8708 0.8699 0.8694 0.8690 0.8690
2491.048702 0.8691 0.8697 0.8700 0.8700 0.8698
2496.163792 0.8693 0.8690 0.8690 0.8686 0.8676
2501.278883 0.8670 0.8670 0.8668 0.8663 0.8658
2506.393974 0.8653 0.8650 0.8650 0.8650 0.8650
2511.509064 0.8645 0.8635 0.8630 0.8630 0.8630
2516.624155 0.8630 0.8630 0.8630 0.8635 0.8645
2521.739246 0.8655 0.8666 0.8676 0.8686 0.8684
2526.854336 0.8674 0.8670 0.8670 0.8670 0.8670
2531.969427 0.8667 0.8662 0.8660 0.8660 0.8657
2537.084518 0.8652 0.8650 0.8650 0.8657 0.8667
2542.199608 0.8677 0.8687 0.8690 0.8690 0.8678
2547.314699 0.8663 0.8660 0.8660 0.8656 0.8651
2552.429789 0.8650 0.8650 0.8650 0.8650 0.8637
2557.544880 0.8622 0.8616 0.8611 0.8610 0.8610
2562.659971 0.8610 0.8610 0.8610 0.8610 0.8615
2567.775061 0.8620 0.8625 0.8630 0.8640 0.8650
2572.890152 0.8655 0.8660 0.8660 0.8660 0.8655
2578.005243 0.8650 0.8650 0.8650 0.8655 0.8660
2583.120333 0.8660 0.8660 0.8654 0.8650 0.8650
2588.235424 0.8650 0.8650 0.8650 0.8650 0.8650
2593.350515 0.8650 0.8648 0.8638 0.8630 0.8630
2598.465605 0.8632 0.8642 0.8650 0.8650 0.8650
2603.580696 0.8650 0.8650 0.8650 0.8647 0.8637
2608.695787 0.8630 0.8630 0.8628 0.8623 0.8620
2613.810877 0.8620 0.8618 0.8613 0.8610 0.8610
2618.925968 0.8610 0.8610 0.8606 0.8596 0.8590
2624.041058 0.8590 0.8590 0.8590 0.8590 0.8590
2629.156149 0.8590 0.8590 0.8590 0.8590 0.8587
2634.271240 0.8582 0.8574 0.8564 0.8557 0.8552
2639.386330 0.8550 0.8550 0.8547 0.8542 0.8540
2644.501421 0.8540 0.8540 0.8540 0.8533 0.8523
2649.616512 0.8520 0.8520 0.8520 0.8520 0.8516
2654.731602 0.8511 0.8510 0.8510 0.8506 0.8501
2659.846693 0.8500 0.8500 0.8504 0.8509 0.8510
2664.961784 0.8510 0.8510 0.8510 0.8510 0.8510
2670.076874 0.8510 0.8510 0.8514 0.8519 0.8520
2675.191965 0.8520 0.8529 0.8539 0.8531 0.8521
2680.307056 0.8520 0.8520 0.8520 0.8520 0.8520
2685.422146 0.8520 0.8515 0.8510 0.8505 0.8500
2690.537237 0.8490 0.8480 0.8480 0.8480 0.8475
2695.652327 0.8469 0.8459 0.8444 0.8378 0.8304
2700.767418 0.8163 0.8038 0.8023 0.8012 0.8027
2705.882509 0.8042 0.8057 0.8074 0.8100 0.8127
2710.997599 0.8163 0.8211 0.8301 0.8374 0.8389
2716.112690 0.8405 0.8425 0.8446 0.8466 0.8483
2721.227781 0.8493 0.8500 0.8500 0.8495 0.8480
2726.342871 0.8460 0.8430 0.8408 0.8403 0.8400
2731.457962 0.8400 0.8400 0.8400 0.8402 0.8407
2736.573053 0.8410 0.8410 0.8417 0.8432 0.8442
2741.688143 0.8447 0.8455 0.8465 0.8470 0.8470
2746.803234 0.8473 0.8478 0.8480 0.8480 0.8486
2751.918325 0.8496 0.8500 0.8500 0.8485 0.8460
2757.033415 0.8447 0.8442 0.8437 0.8432 0.8430
2762.148506 0.8430 0.8430 0.8430 0.8430 0.8430
2767.263596 0.8423 0.8413 0.8406 0.8401 0.8396
2772.378687 0.8391 0.8390 0.8390 0.8390 0.8390
2777.493778 0.8382 0.8372 0.8370 0.8370 0.8353
2782.608868 0.8333 0.8301 0.8265 0.8243 0.8223
2787.723959 0.8203 0.8182 0.8095 0.7998 0.7971
2792.839050 0.7951 0.7922 0.7891 0.7856 0.7821
2797.954140 0.7805 0.7790 0.7785 0.7780 0.7780
2803.069231 0.7780 0.7785 0.7790 0.7790 0.7790
2808.184322 0.7779 0.7769 0.7759 0.7748 0.7722
2813.299412 0.7694 0.7644 0.7597 0.7572 0.7545
2818.414503 0.7510 0.7480 0.7480 0.7478 0.7468
2823.529594 0.7459 0.7454 0.7446 0.7426 0.7403
2828.644684 0.7373 0.7348 0.7337 0.7324 0.7304
2833.759775 0.7271 0.7205 0.7138 0.7068 0.6996
2838.874865 0.6920 0.6839 0.6749 0.6647 0.6526
2843.989956 0.6424 0.6353 0.6242 0.6066 0.5900
2849.105047 0.5748 0.5525 0.5199 0.4874 0.4552
2854.220137 0.4229 0.3907 0.3394 0.2678 0.2219
2859.335228 0.2018 0.1751 0.1424 0.1235 0.1170
2864.450319 0.1140 0.1140 0.1228 0.1384 0.1491
2869.565409 0.1561 0.1647 0.1744 0.1837 0.1928
2874.680500 0.2019 0.2109 0.2173 0.2224 0.2243
2879.795591 0.2248 0.2302 0.2378 0.2446 0.2512
2884.910681 0.2545 0.2565 0.2570 0.2570 0.2521
2890.025772 0.2455 0.2420 0.2395 0.2366 0.2335
2895.140863 0.2189 0.2018 0.1851 0.1684 0.1518
2900.255953 0.1352 0.1317 0.1302 0.1309 0.1319
2905.371044 0.1370 0.1425 0.1481 0.1536 0.1592
2910.486135 0.1647 0.1727 0.1809 0.1949 0.2090
2915.601225 0.2075 0.2059 0.1973 0.1885 0.1739
2920.716316 0.1596 0.1521 0.1440 0.1273 0.1117
2925.831406 0.1082 0.1046 0.1006 0.0962 0.0886
2930.946497 0.0818 0.0803 0.0789 0.0784 0.0776
2936.061588 0.0756 0.0729 0.0674 0.0615 0.0545
2941.176678 0.0468 0.0373 0.0292 0.0256 0.0217
2946.291769 0.0167 0.0115 0.0060 0.0017 0.0007
2951.406860 0.0000 0.0000 0.0000 0.0000 0.0000
2956.521950 0.0000 0.0000 0.0000 0.0002 0.0007
2961.637041 0.0016 0.0031 0.0044 0.0054 0.0064
2966.752132 0.0074 0.0089 0.0109 0.0129 0.0150
2971.867222 0.0194 0.0266 0.0347 0.0438 0.0510
2976.982313 0.0565 0.0764 0.1082 0.1337 0.1543
2982.097404 0.1712 0.1853 0.2135 0.2513 0.2715
2987.212494 0.2806 0.2897 0.2987 0.3088 0.3194
2992.327585 0.3340 0.3509 0.3560 0.3560 0.3524
2997.442675 0.3474 0.3445 0.3425 0.3353 0.3262
3002.557766 0.3644 0.4178 0.4588 0.4961 0.5123
3007.672857 0.5229 0.5416 0.5623 0.5730 0.5816
3012.787947 0.5924 0.6036 0.6252 0.6484 0.6573
3017.903038 0.6643 0.6714 0.6784 0.6910 0.7041
3023.018129 0.7064 0.7079 0.7094 0.7109 0.7198
3028.133219 0.7288 0.7354 0.7420 0.7485 0.7550
3033.248310 0.7576 0.7601 0.7616 0.7630 0.7635
3038.363401 0.7640 0.7640 0.7640 0.7634 0.7628
3043.478491 0.7608 0.7588 0.7573 0.7557 0.7537
3048.593582 0.7518 0.7502 0.7486 0.7466 0.7433
3053.708673 0.7341 0.7257 0.7202 0.7147 0.7091
3058.823763 0.7036 0.6980 0.6888 0.6696 0.6513
3063.938854 0.6352 0.6225 0.6174 0.6138 0.6133
3069.053944 0.6128 0.6123 0.6109 0.6079 0.6019
3074.169035 0.5907 0.5758 0.5557 0.5281 0.4903
3079.284126 0.4593 0.4372 0.4150 0.3928 0.3951
3084.399216 0.4253 0.4420 0.4440 0.4458 0.4473
3089.514307 0.4661 0.5014 0.5335 0.5627 0.5877
3094.629398 0.6091 0.6327 0.6579 0.6867 0.7179
3099.744488 0.7402 0.7568 0.7646 0.7671 0.7709
3104.859579 0.7755 0.7886 0.8063 0.8140 0.8171
3109.974670 0.8194 0.8214 0.8231 0.8246 0.8276
3115.089760 0.8311 0.8324 0.8329 0.8342 0.8357
3120.204851 0.8380 0.8405 0.8422 0.8437 0.8444
3125.319942 0.8449 0.8450 0.8450 0.8471 0.8497
3130.435032 0.8509 0.8519 0.8529 0.8539 0.8540
3135.550123 0.8540 0.8545 0.8550 0.8550 0.8550
3140.665213 0.8545 0.8540 0.8540 0.8540 0.8540
3145.780304 0.8540 0.8540 0.8540 0.8540 0.8540
3150.895395 0.8529 0.8520 0.8520 0.8520 0.8515
3156.010485 0.8509 0.8504 0.8498 0.8483 0.8469
3161.125576 0.8458 0.8450 0.8450 0.8449 0.8444
3166.240667 0.8439 0.8434 0.8430 0.8430 0.8428
3171.355757 0.8418 0.8408 0.8398 0.8386 0.8371
3176.470848 0.8357 0.8347 0.8338 0.8333 0.8332
3181.585939 0.8337 0.8340 0.8340 0.8344 0.8354
3186.701029 0.8362 0.8367 0.8376 0.8391 0.8402
3191.816120 0.8407 0.8416 0.8431 0.8442 0.8447
3196.931211 0.8450 0.8450 0.8450 0.8450 0.8455
3202.046301 0.8465 0.8470 0.8470 0.8470 0.8470
3207.161392 0.8470 0.8470 0.8464 0.8454 0.8450
3212.276482 0.8450 0.8447 0.8442 0.8437 0.8432
3217.391573 0.8430 0.8430 0.8430 0.8430 0.8430
3222.506664 0.8430 0.8433 0.8439 0.8440 0.8440
3227.621754 0.8444 0.8449 0.8450 0.8450 0.8458
3232.736845 0.8468 0.8474 0.8479 0.8480 0.8480
3237.851936 0.8480 0.8480 0.8488 0.8499 0.8500
3242.967026 0.8500 0.8504 0.8509 0.8510 0.8510
3248.082117 0.8515 0.8520 0.8520 0.8520 0.8529
3253.197208 0.8539 0.8545 0.8550 0.8555 0.8560
3258.312298 0.8570 0.8580 0.8585 0.8590 0.8600
3263.427389 0.8610 0.8610 0.8610 0.8610 0.8610
3268.542480 0.8610 0.8610 0.8616 0.8621 0.8626
3273.657570 0.8633 0.8653 0.8672 0.8687 0.8700
3278.772661 0.8700 0.8702 0.8712 0.8720 0.8720
3283.887751 0.8721 0.8726 0.8730 0.8730 0.8730
3289.002842 0.8730 0.8730 0.8730 0.8730 0.8730
3294.117933 0.8730 0.8730 0.8730 0.8730 0.8728
3299.233023 0.8723 0.8720 0.8720 0.8720 0.8720
3304.348114 0.8716 0.8706 0.8700 0.8700 0.8698
3309.463205 0.8693 0.8690 0.8690 0.8690 0.8690
3314.578295 0.8690 0.8690 0.8690 0.8690 0.8690
3319.693386 0.8690 0.8690 0.8690 0.8690 0.8690
3324.808477 0.8690 0.8690 0.8690 0.8690 0.8690
3329.923567 0.8690 0.8690 0.8690 0.8690 0.8690
3335.038658 0.8690 0.8690 0.8690 0.8690 0.8690
3340.153749 0.8690 0.8690 0.8690 0.8690 0.8690
3345.268839 0.8682 0.8672 0.8670 0.8670 0.8666
3350.383930 0.8661 0.8660 0.8660 0.8656 0.8651
3355.499020 0.8650 0.8650 0.8650 0.8650 0.8650
3360.614111 0.8650 0.8655 0.8660 0.8674 0.8689
3365.729202 0.8695 0.8700 0.8710 0.8720 0.8720
3370.844292 0.8720 0.8725 0.8730 0.8730 0.8730
3375.959383 0.8735 0.8740 0.8750 0.8760 0.8760
3381.074474 0.8760 0.8760 0.8760 0.8760 0.8761
3386.189564 0.8766 0.8770 0.8770 0.8770 0.8770
3391.304655 0.8771 0.8776 0.8780 0.8780 0.8780
3396.419746 0.8780 0.8782 0.8792 0.8800 0.8800
3401.534836 0.8800 0.8800 0.8801 0.8806 0.8810
3406.649927 0.8810 0.8810 0.8810 0.8810 0.8810
3411.765018 0.8813 0.8823 0.8830 0.8830 0.8830
3416.880108 0.8830 0.8830 0.8830 0.8830 0.8830
3421.995199 0.8830 0.8830 0.8825 0.8815 0.8810
3427.110289 0.8810 0.8808 0.8803 0.8800 0.8800
3432.225380 0.8795 0.8785 0.8780 0.8780 0.8780
3437.340471 0.8780 0.8780 0.8780 0.8780 0.8780
3442.455561 0.8780 0.8780 0.8780 0.8780 0.8780
3447.570652 0.8780 0.8780 0.8780 0.8787 0.8797
3452.685743 0.8800 0.8800 0.8804 0.8809 0.8810
3457.800833 0.8810 0.8810 0.8810 0.8810 0.8810
3462.915924 0.8810 0.8810 0.8810 0.8810 0.8806
3468.031015 0.8801 0.8800 0.8800 0.8800 0.8800
3473.146105 0.8800 0.8800 0.8800 0.8800 0.8791
3478.261196 0.8781 0.8780 0.8780 0.8780 0.8780
3483.376287 0.8790 0.8800 0.8800 0.8800 0.8800
3488.491377 0.8800 0.8805 0.8810 0.8810 0.8810
3493.606468 0.8805 0.8800 0.8800 0.8800 0.8800
3498.721558 0.8800 0.8800 0.8800 0.8800 0.8800
3503.836649 0.8800 0.8800 0.8800 0.8800 0.8800
3508.951740 0.8800 0.8800 0.8801 0.8806 0.8810
3514.066830 0.8810 0.8810 0.8810 0.8810 0.8810
3519.181921 0.8810 0.8810 0.8813 0.8823 0.8830
3524.297012 0.8830 0.8830 0.8830 0.8832 0.8837
3529.412102 0.8842 0.8847 0.8850 0.8850 0.8850
3534.527193 0.8850 0.8850 0.8850 0.8854 0.8864
3539.642284 0.8870 0.8870 0.8870 0.8870 0.8873
3544.757374 0.8878 0.8880 0.8880 0.8880 0.8880
3549.872465 0.8883 0.8888 0.8890 0.8890 0.8890
3554.987556 0.8890 0.8890 0.8890 0.8890 0.8890
3560.102646 0.8890 0.8890 0.8890 0.8890 0.8890
3565.217737 0.8890 0.8887 0.8881 0.8880 0.8880
3570.332827 0.8884 0.8889 0.8901 0.8916 0.8920
3575.447918 0.8920 0.8928 0.8938 0.8940 0.8940
3580.563009 0.8940 0.8940 0.8927 0.8912 0.8901
3585.678099 0.8891 0.8886 0.8881 0.8876 0.8870
3590.793190 0.8870 0.8870 0.8870 0.8870 0.8870
3595.908281 0.8870 0.8870 0.8870 0.8870 0.8870
3601.023371 0.8870 0.8870 0.8875 0.8881 0.8896
3606.138462 0.8910 0.8910 0.8910 0.8910 0.8909
3611.253553 0.8899 0.8890 0.8890 0.8890 0.8890
3616.368643 0.8889 0.8884 0.8880 0.8880 0.8881
3621.483734 0.8886 0.8890 0.8890 0.8890 0.8890
3626.598825 0.8890 0.8890 0.8889 0.8884 0.8880
3631.713915 0.8880 0.8880 0.8880 0.8879 0.8874
3636.829006 0.8867 0.8857 0.8850 0.8850 0.8850
3641.944096 0.8850 0.8850 0.8850 0.8850 0.8850
3647.059187 0.8850 0.8850 0.8850 0.8850 0.8850
3652.174278 0.8850 0.8850 0.8850 0.8855 0.8865
3657.289368 0.8870 0.8870 0.8873 0.8878 0.8883
3662.404459 0.8888 0.8890 0.8890 0.8896 0.8906
3667.519550 0.8910 0.8910 0.8904 0.8894 0.8887
3672.634640 0.8882 0.8877 0.8872 0.8870 0.8870
3677.749731 0.8870 0.8870 0.8870 0.8870 0.8870
3682.864822 0.8870 0.8874 0.8879 0.8880 0.8880
3687.979912 0.8880 0.8880 0.8880 0.8880 0.8880
3693.095003 0.8880 0.8880 0.8880 0.8880 0.8880
3698.210094 0.8880 0.8880 0.8880 0.8880 0.8880
3703.325184 0.8880 0.8880 0.8880 0.8880 0.8880
3708.440275 0.8880 0.8880 0.8875 0.8870 0.8870
3713.555365 0.8870 0.8870 0.8870 0.8860 0.8850
3718.670456 0.8850 0.8850 0.8850 0.8850 0.8850
3723.785547 0.8851 0.8861 0.8872 0.8892 0.8910
3728.900637 0.8910 0.8911 0.8916 0.8920 0.8920
3734.015728 0.8920 0.8920 0.8919 0.8914 0.8910
3739.130819 0.8910 0.8910 0.8910 0.8908 0.8898
3744.245909 0.8889 0.8884 0.8879 0.8874 0.8867
3749.361000 0.8857 0.8850 0.8850 0.8848 0.8843
3754.476091 0.8840 0.8840 0.8840 0.8840 0.8840
3759.591181 0.8840 0.8840 0.8840 0.8840 0.8840
3764.706272 0.8840 0.8840 0.8840 0.8840 0.8840
3769.821363 0.8840 0.8840 0.8840 0.8840 0.8840
3774.936453 0.8837 0.8832 0.8830 0.8830 0.8830
3780.051544 0.8830 0.8830 0.8830 0.8830 0.8830
3785.166635 0.8830 0.8830 0.8830 0.8830 0.8830
3790.281725 0.8830 0.8830 0.8830 0.8830 0.8830
3795.396816 0.8830 0.8830 0.8830 0.8830 0.8830
3800.511906 0.8830
##END=
