##TITLE=PROPENE, 1-CHLORO- (ABOUT 90% TRANS)
$$ ABOUT 90% TRANS ISOMER
##JCAMP-DX=4.24
$$ By DXEDIT 1.05 (RS McDonald)
##DATA TYPE=INFRARED SPECTRUM
##CLASS=COBLENTZ III
##ORIGIN=DOW CHEMICAL COMPANY
##OWNER=COBLENTZ SOC.
Collection (C) 2018 copyright by the U.S. Secretary of Commerce
on behalf of the United States of America. All rights reserved.
##DATE=1968/10/27
##NAMES=(1E)-1-chloro-1-propene
##CAS REGISTRY NO=590-21-6
##MOLFORM=C3 H5 Cl
##SOURCE REFERENCE=COBLENTZ NO. 05694
##$NIST SOURCE=COBLENTZ
##$NIST IMAGE=cob5694
##SPECTROMETER/DATA SYSTEM=DOW KBr FOREPRISM-GRATING
##INSTRUMENT PARAMETERS=BLAZED AT 3.5, 12.0, 20.0 MICRON AND CHANGED AT 5.0, 7.5, 14.9 MICRON
##STATE=SOLUTION (10% CCl4 FOR 2.6-7.5, 10% CS2 FOR 7.5-22 MICRON)
##PATH LENGTH=0.011 CM, 0.011 CM
$$SPECTRAL CONTAMINATION DUE TO CS2 AROUND 850 AND CCl4 AROUND 1550 CM^-^1
##SAMPLING PROCEDURE=TRANSMISSION
##RESOLUTION=2
##DATA PROCESSING=DIGITIZED BY COBLENTZ SOCIETY (BATCH I) FROM HARD COPY
##XUNITS=1/CM
##YUNITS=TRANSMITTANCE
##XLABEL=Wavenumbers (cm-1)
##YLABEL=% Transmission
##XFACTOR=1
##YFACTOR=1
##DELTAX=1
##FIRSTX=3816
##LASTX=451
##FIRSTY=0.8941
##MAXX=3816
##MINX=451
##MAXY=0.9223
##MINY=0.0108
##NPOINTS=3366
##XYDATA=(X++(Y..Y))
3816.000000 0.8941 0.8940 0.8940 0.8938 0.8936
3811.000000 0.8934 0.8932 0.8930 0.8928 0.8925
3806.000000 0.8924 0.8921 0.8920 0.8918 0.8916
3801.000000 0.8914 0.8912 0.8910 0.8908 0.8906
3796.000000 0.8904 0.8903 0.8902 0.8906 0.8910
3791.000000 0.8914 0.8918 0.8921 0.8925 0.8930
3786.000000 0.8934 0.8938 0.8942 0.8946 0.8950
3781.000000 0.8953 0.8957 0.8960 0.8963 0.8966
3776.000000 0.8970 0.8973 0.8977 0.8980 0.8984
3771.000000 0.8987 0.8991 0.8994 0.8997 0.8997
3766.000000 0.8998 0.8998 0.8998 0.8998 0.8998
3761.000000 0.8998 0.8998 0.8998 0.8998 0.8998
3756.000000 0.8998 0.8998 0.8998 0.8994 0.8990
3751.000000 0.8984 0.8978 0.8973 0.8968 0.8962
3746.000000 0.8957 0.8951 0.8946 0.8940 0.8935
3741.000000 0.8928 0.8924 0.8920 0.8917 0.8915
3736.000000 0.8914 0.8912 0.8910 0.8908 0.8907
3731.000000 0.8905 0.8903 0.8901 0.8900 0.8898
3726.000000 0.8896 0.8894 0.8893 0.8891 0.8889
3721.000000 0.8887 0.8886 0.8885 0.8884 0.8888
3716.000000 0.8892 0.8896 0.8900 0.8904 0.8908
3711.000000 0.8912 0.8916 0.8918 0.8923 0.8927
3706.000000 0.8931 0.8935 0.8939 0.8943 0.8947
3701.000000 0.8947 0.8947 0.8946 0.8945 0.8943
3696.000000 0.8942 0.8941 0.8940 0.8938 0.8937
3691.000000 0.8934 0.8932 0.8930 0.8928 0.8925
3686.000000 0.8923 0.8921 0.8921 0.8921 0.8923
3681.000000 0.8924 0.8925 0.8925 0.8927 0.8927
3676.000000 0.8928 0.8928 0.8930 0.8931 0.8932
3671.000000 0.8933 0.8934 0.8935 0.8936 0.8936
3666.000000 0.8936 0.8935 0.8935 0.8934 0.8934
3661.000000 0.8933 0.8933 0.8935 0.8938 0.8940
3656.000000 0.8943 0.8946 0.8949 0.8951 0.8954
3651.000000 0.8955 0.8957 0.8958 0.8959 0.8960
3646.000000 0.8961 0.8962 0.8964 0.8965 0.8966
3641.000000 0.8967 0.8968 0.8968 0.8971 0.8971
3636.000000 0.8973 0.8974 0.8975 0.8975 0.8978
3631.000000 0.8978 0.8980 0.8981 0.8983 0.8984
3626.000000 0.8985 0.8986 0.8987 0.8988 0.8990
3621.000000 0.8990 0.8991 0.8991 0.8991 0.8990
3616.000000 0.8990 0.8990 0.8990 0.8990 0.8990
3611.000000 0.8990 0.8990 0.8989 0.8989 0.8989
3606.000000 0.8989 0.8989 0.8989 0.8988 0.8988
3601.000000 0.8988 0.8988 0.8988 0.8988 0.8987
3596.000000 0.8987 0.8987 0.8987 0.8987 0.8987
3591.000000 0.8987 0.8987 0.8986 0.8986 0.8986
3586.000000 0.8986 0.8986 0.8987 0.8987 0.8988
3581.000000 0.8988 0.8989 0.8989 0.8990 0.8990
3576.000000 0.8991 0.8991 0.8992 0.8992 0.8993
3571.000000 0.8993 0.8994 0.8994 0.8995 0.8995
3566.000000 0.8996 0.8996 0.8997 0.8997 0.8998
3561.000000 0.8998 0.8998 0.8999 0.9000 0.9001
3556.000000 0.9003 0.9004 0.9005 0.9006 0.9008
3551.000000 0.9009 0.9010 0.9011 0.9013 0.9014
3546.000000 0.9015 0.9016 0.9018 0.9018 0.9020
3541.000000 0.9021 0.9023 0.9024 0.9025 0.9025
3536.000000 0.9028 0.9028 0.9030 0.9031 0.9032
3531.000000 0.9033 0.9035 0.9036 0.9037 0.9038
3526.000000 0.9039 0.9040 0.9041 0.9042 0.9043
3521.000000 0.9044 0.9045 0.9046 0.9048 0.9049
3516.000000 0.9050 0.9051 0.9052 0.9053 0.9054
3511.000000 0.9055 0.9056 0.9057 0.9058 0.9059
3506.000000 0.9060 0.9061 0.9063 0.9064 0.9065
3501.000000 0.9066 0.9067 0.9068 0.9068 0.9070
3496.000000 0.9071 0.9071 0.9073 0.9074 0.9075
3491.000000 0.9075 0.9078 0.9078 0.9080 0.9081
3486.000000 0.9082 0.9083 0.9085 0.9086 0.9087
3481.000000 0.9088 0.9089 0.9090 0.9092 0.9093
3476.000000 0.9094 0.9095 0.9096 0.9097 0.9099
3471.000000 0.9100 0.9101 0.9102 0.9103 0.9104
3466.000000 0.9106 0.9107 0.9108 0.9109 0.9110
3461.000000 0.9111 0.9113 0.9115 0.9117 0.9118
3456.000000 0.9121 0.9123 0.9125 0.9128 0.9131
3451.000000 0.9133 0.9135 0.9137 0.9140 0.9142
3446.000000 0.9145 0.9147 0.9150 0.9152 0.9154
3441.000000 0.9156 0.9159 0.9161 0.9164 0.9166
3436.000000 0.9168 0.9171 0.9175 0.9178 0.9182
3431.000000 0.9185 0.9189 0.9192 0.9195 0.9198
3426.000000 0.9202 0.9204 0.9206 0.9207 0.9208
3421.000000 0.9209 0.9210 0.9211 0.9213 0.9214
3416.000000 0.9215 0.9216 0.9217 0.9218 0.9220
3411.000000 0.9221 0.9221 0.9223 0.9223 0.9223
3406.000000 0.9223 0.9221 0.9221 0.9221 0.9221
3401.000000 0.9220 0.9218 0.9218 0.9218 0.9217
3396.000000 0.9217 0.9215 0.9213 0.9211 0.9210
3391.000000 0.9208 0.9206 0.9204 0.9202 0.9200
3386.000000 0.9199 0.9197 0.9195 0.9193 0.9192
3381.000000 0.9190 0.9188 0.9186 0.9184 0.9182
3376.000000 0.9181 0.9178 0.9178 0.9175 0.9175
3371.000000 0.9173 0.9171 0.9168 0.9168 0.9166
3366.000000 0.9165 0.9163 0.9162 0.9160 0.9158
3361.000000 0.9156 0.9155 0.9153 0.9152 0.9151
3356.000000 0.9150 0.9149 0.9149 0.9148 0.9148
3351.000000 0.9147 0.9146 0.9145 0.9145 0.9144
3346.000000 0.9144 0.9143 0.9142 0.9141 0.9141
3341.000000 0.9140 0.9140 0.9139 0.9138 0.9137
3336.000000 0.9137 0.9136 0.9136 0.9135 0.9135
3331.000000 0.9134 0.9134 0.9134 0.9134 0.9133
3326.000000 0.9133 0.9132 0.9132 0.9131 0.9131
3321.000000 0.9131 0.9131 0.9130 0.9130 0.9128
3316.000000 0.9128 0.9128 0.9128 0.9125 0.9125
3311.000000 0.9121 0.9120 0.9117 0.9114 0.9111
3306.000000 0.9109 0.9106 0.9103 0.9100 0.9098
3301.000000 0.9095 0.9093 0.9090 0.9088 0.9083
3296.000000 0.9078 0.9070 0.9062 0.9053 0.9045
3291.000000 0.9040 0.9035 0.9031 0.9028 0.9024
3286.000000 0.9020 0.9016 0.9013 0.9011 0.9009
3281.000000 0.9007 0.9006 0.9004 0.9003 0.9001
3276.000000 0.9000 0.8998 0.8997 0.8995 0.8994
3271.000000 0.8992 0.8991 0.8990 0.8989 0.8987
3266.000000 0.8986 0.8985 0.8984 0.8982 0.8981
3261.000000 0.8978 0.8978 0.8977 0.8975 0.8974
3256.000000 0.8973 0.8971 0.8971 0.8968 0.8968
3251.000000 0.8967 0.8967 0.8967 0.8968 0.8968
3246.000000 0.8970 0.8971 0.8971 0.8973 0.8974
3241.000000 0.8974 0.8975 0.8975 0.8977 0.8978
3236.000000 0.8978 0.8978 0.8980 0.8981 0.8982
3231.000000 0.8983 0.8984 0.8984 0.8985 0.8986
3226.000000 0.8987 0.8988 0.8989 0.8990 0.8991
3221.000000 0.8992 0.8993 0.8994 0.8995 0.8996
3216.000000 0.8997 0.8998 0.8999 0.8999 0.9000
3211.000000 0.9001 0.9001 0.9001 0.9001 0.8999
3206.000000 0.8997 0.8995 0.8993 0.8991 0.8990
3201.000000 0.8988 0.8986 0.8984 0.8982 0.8980
3196.000000 0.8978 0.8975 0.8974 0.8971 0.8970
3191.000000 0.8968 0.8966 0.8964 0.8962 0.8960
3186.000000 0.8958 0.8956 0.8954 0.8952 0.8950
3181.000000 0.8947 0.8945 0.8943 0.8941 0.8939
3176.000000 0.8937 0.8934 0.8932 0.8930 0.8928
3171.000000 0.8925 0.8924 0.8921 0.8918 0.8916
3166.000000 0.8914 0.8911 0.8909 0.8906 0.8904
3161.000000 0.8901 0.8899 0.8896 0.8893 0.8890
3156.000000 0.8888 0.8885 0.8882 0.8878 0.8874
3151.000000 0.8868 0.8865 0.8861 0.8857 0.8853
3146.000000 0.8849 0.8844 0.8840 0.8836 0.8832
3141.000000 0.8828 0.8824 0.8818 0.8815 0.8811
3136.000000 0.8807 0.8803 0.8799 0.8794 0.8790
3131.000000 0.8785 0.8780 0.8775 0.8770 0.8765
3126.000000 0.8761 0.8756 0.8777 0.8747 0.8744
3121.000000 0.8740 0.8737 0.8734 0.8731 0.8727
3116.000000 0.8724 0.8718 0.8715 0.8711 0.8707
3111.000000 0.8703 0.8699 0.8693 0.8688 0.8668
3106.000000 0.8650 0.8625 0.8603 0.8577 0.8552
3101.000000 0.8525 0.8500 0.8467 0.8435 0.8402
3096.000000 0.8368 0.8353 0.8337 0.8320 0.8304
3091.000000 0.8288 0.8271 0.8256 0.8240 0.8193
3086.000000 0.8146 0.8115 0.8084 0.8053 0.8021
3081.000000 0.7962 0.7904 0.7843 0.7783 0.7718
3076.000000 0.7655 0.7465 0.7278 0.6818 0.6360
3071.000000 0.5902 0.5444 0.5060 0.4666 0.4676
3066.000000 0.4675 0.4674 0.4673 0.4871 0.5070
3061.000000 0.5296 0.5523 0.5750 0.5977 0.6203
3056.000000 0.6430 0.6657 0.6884 0.7111 0.7338
3051.000000 0.7508 0.7678 0.7684 0.7698 0.7695
3046.000000 0.7701 0.7701 0.7701 0.7637 0.7574
3041.000000 0.7505 0.7437 0.7368 0.7299 0.7245
3036.000000 0.7192 0.7169 0.7101 0.7134 0.7119
3031.000000 0.7121 0.7124 0.7149 0.7175 0.7200
3026.000000 0.7225 0.7251 0.7276 0.7301 0.7328
3021.000000 0.7349 0.7369 0.7389 0.7408 0.7425
3016.000000 0.7445 0.7462 0.7482 0.7501 0.7519
3011.000000 0.7539 0.7558 0.7578 0.7600 0.7621
3006.000000 0.7642 0.7662 0.7787 0.7707 0.7731
3001.000000 0.7728 0.7725 0.7721 0.7718 0.7714
2996.000000 0.7711 0.7678 0.7647 0.7487 0.7326
2991.000000 0.7191 0.7055 0.6918 0.6783 0.6647
2986.000000 0.6511 0.6374 0.6238 0.6102 0.5966
2981.000000 0.5830 0.5694 0.5558 0.5422 0.5285
2976.000000 0.5149 0.5023 0.4898 0.4894 0.4877
2971.000000 0.4888 0.4885 0.4902 0.4920 0.4951
2966.000000 0.4982 0.5008 0.5034 0.5031 0.5028
2961.000000 0.5028 0.5028 0.5019 0.5017 0.4953
2956.000000 0.4890 0.4819 0.4748 0.4676 0.4462
2951.000000 0.4553 0.4502 0.4505 0.4509 0.4524
2946.000000 0.4539 0.4645 0.4752 0.4962 0.5175
2941.000000 0.5386 0.5598 0.5809 0.6020 0.6127
2936.000000 0.6235 0.6250 0.6266 0.6270 0.6342
2931.000000 0.6277 0.6280 0.6164 0.6049 0.5347
2926.000000 0.4646 0.3944 0.3242 0.2863 0.2484
2921.000000 0.2478 0.2472 0.2787 0.3102 0.3554
2916.000000 0.4007 0.4459 0.4910 0.5362 0.5816
2911.000000 0.6268 0.6721 0.7007 0.7293 0.7346
2906.000000 0.7399 0.7447 0.7495 0.7546 0.7597
2901.000000 0.7648 0.7699 0.7771 0.7845 0.7869
2896.000000 0.7896 0.7906 0.7926 0.7915 0.7915
2891.000000 0.7915 0.7915 0.7882 0.7848 0.7810
2886.000000 0.7772 0.7736 0.7699 0.7539 0.6336
2881.000000 0.6922 0.6467 0.6407 0.6347 0.6347
2876.000000 0.6348 0.6415 0.6483 0.6601 0.6719
2871.000000 0.6838 0.6957 0.7064 0.7171 0.7171
2866.000000 0.7181 0.7157 0.7143 0.6898 0.6654
2861.000000 0.6408 0.6164 0.5919 0.5674 0.5429
2856.000000 0.5184 0.5072 0.4952 0.4962 0.4965
2851.000000 0.5388 0.5810 0.6661 0.7512 0.7749
2846.000000 0.7986 0.8031 0.8075 0.8118 0.8160
2841.000000 0.8201 0.8242 0.8282 0.8323 0.8362
2836.000000 0.8402 0.8430 0.8459 0.8466 0.8474
2831.000000 0.8477 0.8481 0.8484 0.8488 0.8489
2826.000000 0.8490 0.8491 0.8492 0.8493 0.8494
2821.000000 0.8497 0.8500 0.8510 0.8520 0.8530
2816.000000 0.8540 0.8550 0.8560 0.8570 0.8580
2811.000000 0.8591 0.8602 0.8613 0.8625 0.8636
2806.000000 0.8647 0.8658 0.8670 0.8678 0.8688
2801.000000 0.8696 0.8705 0.8713 0.8721 0.8730
2796.000000 0.8739 0.8747 0.8756 0.8763 0.8771
2791.000000 0.8775 0.8781 0.8786 0.8791 0.8795
2786.000000 0.8800 0.8805 0.8810 0.8815 0.8817
2781.000000 0.8821 0.8824 0.8824 0.8825 0.8825
2776.000000 0.8825 0.8825 0.8825 0.8825 0.8825
2771.000000 0.8825 0.8823 0.8821 0.8818 0.8817
2766.000000 0.8815 0.8813 0.8811 0.8809 0.8807
2761.000000 0.8805 0.8804 0.8802 0.8800 0.8798
2756.000000 0.8796 0.8794 0.8792 0.8785 0.8778
2751.000000 0.8768 0.8759 0.8749 0.8739 0.8721
2746.000000 0.8703 0.8678 0.8653 0.8615 0.8577
2741.000000 0.8542 0.8508 0.8484 0.8461 0.8436
2736.000000 0.8411 0.8371 0.8307 0.8323 0.8312
2731.000000 0.8320 0.8328 0.8390 0.8452 0.8530
2726.000000 0.8609 0.8637 0.8666 0.8688 0.8711
2721.000000 0.8728 0.8747 0.8762 0.8778 0.8784
2716.000000 0.8791 0.8797 0.8803 0.8809 0.8816
2711.000000 0.8820 0.8824 0.8825 0.8828 0.8831
2706.000000 0.8834 0.8836 0.8839 0.8839 0.8840
2701.000000 0.8841 0.8842 0.8843 0.8844 0.8845
2696.000000 0.8846 0.8847 0.8848 0.8848 0.8848
2691.000000 0.8848 0.8849 0.8849 0.8849 0.8849
2686.000000 0.8850 0.8850 0.8850 0.8850 0.8850
2681.000000 0.8850 0.8851 0.8852 0.8853 0.8855
2676.000000 0.8857 0.8858 0.8860 0.8862 0.8864
2671.000000 0.8866 0.8868 0.8870 0.8871 0.8873
2666.000000 0.8875 0.8877 0.8878 0.8880 0.8882
2661.000000 0.8882 0.8883 0.8883 0.8884 0.8884
2656.000000 0.8885 0.8885 0.8886 0.8887 0.8888
2651.000000 0.8888 0.8889 0.8889 0.8890 0.8890
2646.000000 0.8891 0.8891 0.8892 0.8893 0.8894
2641.000000 0.8894 0.8895 0.8896 0.8897 0.8898
2636.000000 0.8899 0.8899 0.8900 0.8901 0.8902
2631.000000 0.8903 0.8904 0.8904 0.8905 0.8906
2626.000000 0.8907 0.8908 0.8909 0.8909 0.8910
2621.000000 0.8911 0.8912 0.8913 0.8914 0.8914
2616.000000 0.8915 0.8916 0.8917 0.8918 0.8918
2611.000000 0.8918 0.8920 0.8921 0.8921 0.8923
2606.000000 0.8924 0.8924 0.8925 0.8925 0.8927
2601.000000 0.8928 0.8928 0.8928 0.8930 0.8931
2596.000000 0.8932 0.8933 0.8934 0.8934 0.8935
2591.000000 0.8936 0.8937 0.8938 0.8939 0.8939
2586.000000 0.8940 0.8941 0.8942 0.8943 0.8944
2581.000000 0.8944 0.8944 0.8942 0.8941 0.8940
2576.000000 0.8939 0.8937 0.8936 0.8935 0.8934
2571.000000 0.8933 0.8932 0.8930 0.8928 0.8928
2566.000000 0.8927 0.8925 0.8925 0.8924 0.8923
2561.000000 0.8921 0.8921 0.8921 0.8921 0.8921
2556.000000 0.8921 0.8920 0.8920 0.8920 0.8920
2551.000000 0.8918 0.8918 0.8918 0.8918 0.8914
2546.000000 0.8909 0.8903 0.8897 0.8891 0.8886
2541.000000 0.8880 0.8875 0.8868 0.8863 0.8857
2536.000000 0.8852 0.8847 0.8842 0.8836 0.8831
2531.000000 0.8825 0.8821 0.8818 0.8818 0.8818
2526.000000 0.8821 0.8821 0.8824 0.8828 0.8832
2521.000000 0.8836 0.8840 0.8844 0.8849 0.8853
2516.000000 0.8858 0.8861 0.8865 0.8867 0.8868
2511.000000 0.8870 0.8871 0.8874 0.8875 0.8878
2506.000000 0.8880 0.8881 0.8883 0.8885 0.8887
2501.000000 0.8889 0.8891 0.8892 0.8894 0.8896
2496.000000 0.8898 0.8899 0.8900 0.8901 0.8902
2491.000000 0.8903 0.8904 0.8905 0.8906 0.8907
2486.000000 0.8909 0.8902 0.8895 0.8887 0.8880
2481.000000 0.8871 0.8863 0.8854 0.8845 0.8836
2476.000000 0.8828 0.8820 0.8813 0.8805 0.8798
2471.000000 0.8790 0.8783 0.8775 0.8770 0.8771
2466.000000 0.8773 0.8777 0.8782 0.8789 0.8796
2461.000000 0.8803 0.8811 0.8818 0.8825 0.8832
2456.000000 0.8839 0.8843 0.8847 0.8850 0.8854
2451.000000 0.8857 0.8861 0.8864 0.8868 0.8871
2446.000000 0.8875 0.8878 0.8882 0.8885 0.8889
2441.000000 0.8891 0.8894 0.8895 0.8897 0.8898
2436.000000 0.8899 0.8900 0.8902 0.8903 0.8905
2431.000000 0.8906 0.8908 0.8909 0.8911 0.8912
2426.000000 0.8913 0.8914 0.8916 0.8917 0.8918
2421.000000 0.8918 0.8918 0.8918 0.8918 0.8918
2416.000000 0.8918 0.8918 0.8918 0.8918 0.8918
2411.000000 0.8918 0.8918 0.8918 0.8918 0.8918
2406.000000 0.8918 0.8918 0.8918 0.8918 0.8918
2401.000000 0.8918 0.8918 0.8917 0.8916 0.8914
2396.000000 0.8913 0.8912 0.8911 0.8909 0.8908
2391.000000 0.8906 0.8905 0.8903 0.8902 0.8899
2386.000000 0.8897 0.8894 0.8892 0.8890 0.8888
2381.000000 0.8886 0.8884 0.8882 0.8881 0.8880
2376.000000 0.8878 0.8877 0.8875 0.8874 0.8873
2371.000000 0.8871 0.8871 0.8873 0.8875 0.8875
2366.000000 0.8877 0.8878 0.8878 0.8880 0.8882
2361.000000 0.8884 0.8886 0.8888 0.8890 0.8892
2356.000000 0.8894 0.8896 0.8898 0.8899 0.8901
2351.000000 0.8903 0.8905 0.8907 0.8909 0.8911
2346.000000 0.8913 0.8915 0.8918 0.8920 0.8921
2341.000000 0.8924 0.8925 0.8928 0.8930 0.8930
2336.000000 0.8931 0.8931 0.8932 0.8932 0.8932
2331.000000 0.8923 0.8914 0.8897 0.8881 0.8863
2326.000000 0.8846 0.8813 0.8780 0.8746 0.8713
2321.000000 0.8668 0.8623 0.8617 0.8611 0.8621
2316.000000 0.8634 0.8645 0.8657 0.8668 0.8681
2311.000000 0.8694 0.8708 0.8724 0.8740 0.8755
2306.000000 0.8771 0.8787 0.8803 0.8807 0.8812
2301.000000 0.8809 0.8807 0.8804 0.8802 0.8799
2296.000000 0.8797 0.8795 0.8793 0.8790 0.8788
2291.000000 0.8786 0.8784 0.8781 0.8778 0.8777
2286.000000 0.8775 0.8773 0.8771 0.8768 0.8766
2281.000000 0.8766 0.8766 0.8766 0.8767 0.8768
2276.000000 0.8768 0.8770 0.8771 0.8771 0.8773
2271.000000 0.8773 0.8774 0.8775 0.8775 0.8777
2266.000000 0.8778 0.8778 0.8781 0.8782 0.8784
2261.000000 0.8786 0.8788 0.8790 0.8792 0.8793
2256.000000 0.8795 0.8797 0.8799 0.8801 0.8803
2251.000000 0.8804 0.8806 0.8808 0.8811 0.8813
2246.000000 0.8816 0.8818 0.8821 0.8824 0.8827
2241.000000 0.8830 0.8833 0.8835 0.8838 0.8841
2236.000000 0.8844 0.8846 0.8849 0.8851 0.8854
2231.000000 0.8854 0.8855 0.8855 0.8856 0.8856
2226.000000 0.8857 0.8858 0.8859 0.8859 0.8860
2221.000000 0.8860 0.8861 0.8861 0.8862 0.8862
2216.000000 0.8863 0.8863 0.8864 0.8864 0.8865
2211.000000 0.8865 0.8866 0.8866 0.8867 0.8867
2206.000000 0.8867 0.8866 0.8866 0.8866 0.8866
2201.000000 0.8865 0.8865 0.8865 0.8865 0.8865
2196.000000 0.8865 0.8864 0.8864 0.8864 0.8864
2191.000000 0.8864 0.8864 0.8863 0.8863 0.8863
2186.000000 0.8863 0.8863 0.8863 0.8862 0.8862
2181.000000 0.8862 0.8863 0.8863 0.8863 0.8863
2176.000000 0.8864 0.8864 0.8864 0.8864 0.8864
2171.000000 0.8864 0.8865 0.8865 0.8865 0.8865
2166.000000 0.8866 0.8866 0.8866 0.8866 0.8866
2161.000000 0.8866 0.8867 0.8867 0.8867 0.8867
2156.000000 0.8868 0.8868 0.8868 0.8868 0.8868
2151.000000 0.8868 0.8868 0.8868 0.8868 0.8868
2146.000000 0.8870 0.8870 0.8870 0.8870 0.8870
2141.000000 0.8870 0.8871 0.8871 0.8873 0.8874
2136.000000 0.8875 0.8875 0.8875 0.8877 0.8878
2131.000000 0.8878 0.8880 0.8881 0.8882 0.8882
2126.000000 0.8883 0.8884 0.8885 0.8886 0.8887
2121.000000 0.8887 0.8888 0.8889 0.8890 0.8891
2116.000000 0.8892 0.8892 0.8893 0.8893 0.8894
2111.000000 0.8894 0.8895 0.8896 0.8897 0.8897
2106.000000 0.8898 0.8898 0.8899 0.8899 0.8900
2101.000000 0.8901 0.8902 0.8902 0.8903 0.8903
2096.000000 0.8904 0.8904 0.8905 0.8906 0.8907
2091.000000 0.8907 0.8907 0.8907 0.8907 0.8907
2086.000000 0.8907 0.8907 0.8907 0.8907 0.8907
2081.000000 0.8907 0.8907 0.8907 0.8907 0.8906
2076.000000 0.8906 0.8906 0.8906 0.8906 0.8906
2071.000000 0.8906 0.8906 0.8906 0.8906 0.8906
2066.000000 0.8906 0.8906 0.8906 0.8906 0.8906
2061.000000 0.8906 0.8906 0.8905 0.8904 0.8902
2056.000000 0.8901 0.8900 0.8899 0.8898 0.8897
2051.000000 0.8896 0.8895 0.8895 0.8895 0.8894
2046.000000 0.8894 0.8894 0.8894 0.8894 0.8894
2041.000000 0.8894 0.8894 0.8894 0.8894 0.8894
2036.000000 0.8894 0.8894 0.8895 0.8896 0.8897
2031.000000 0.8898 0.8899 0.8899 0.8900 0.8901
2026.000000 0.8902 0.8903 0.8904 0.8904 0.8905
2021.000000 0.8906 0.8907 0.8907 0.8908 0.8908
2016.000000 0.8909 0.8909 0.8910 0.8910 0.8911
2011.000000 0.8911 0.8912 0.8912 0.8912 0.8912
2006.000000 0.8911 0.8907 0.8904 0.8875 0.8846
2001.000000 0.8717 0.8589 0.8460 0.8332 0.8373
1996.000000 0.8578 0.8667 0.8755 0.8809 0.8833
1991.000000 0.8843 0.8837 0.8830 0.8824 0.8818
1986.000000 0.8812 0.8806 0.8800 0.8794 0.8787
1981.000000 0.8781 0.8774 0.8768 0.8761 0.8754
1976.000000 0.8745 0.8735 0.8725 0.8708 0.8691
1971.000000 0.8674 0.8660 0.8650 0.8639 0.8628
1966.000000 0.8618 0.8608 0.8598 0.8624 0.8662
1961.000000 0.8736 0.8863 0.8989 0.9113 0.8981
1956.000000 0.8828 0.8740 0.8781 0.8808 0.8818
1951.000000 0.8828 0.8840 0.8852 0.8863 0.8857
1946.000000 0.8846 0.8838 0.8832 0.8832 0.8833
1941.000000 0.8834 0.8836 0.8837 0.8838 0.8840
1936.000000 0.8840 0.8839 0.8838 0.8837 0.8836
1931.000000 0.8835 0.8834 0.8834 0.8833 0.8833
1926.000000 0.8834 0.8835 0.8836 0.8837 0.8838
1921.000000 0.8839 0.8840 0.8840 0.8840 0.8836
1916.000000 0.8832 0.8828 0.8824 0.8820 0.8816
1911.000000 0.8812 0.8808 0.8804 0.8800 0.8796
1906.000000 0.8791 0.8787 0.8782 0.8778 0.8774
1901.000000 0.8768 0.8766 0.8767 0.8767 0.8768
1896.000000 0.8768 0.8768 0.8768 0.8768 0.8770
1891.000000 0.8770 0.8770 0.8771 0.8771 0.8771
1886.000000 0.8771 0.8771 0.8771 0.8771 0.8771
1881.000000 0.8771 0.8771 0.8771 0.8771 0.8771
1876.000000 0.8773 0.8774 0.8775 0.8775 0.8775
1871.000000 0.8777 0.8773 0.8768 0.8762 0.8756
1866.000000 0.8751 0.8747 0.8744 0.8740 0.8736
1861.000000 0.8734 0.8733 0.8732 0.8732 0.8731
1856.000000 0.8731 0.8732 0.8734 0.8736 0.8738
1851.000000 0.8740 0.8741 0.8743 0.8745 0.8747
1846.000000 0.8752 0.8759 0.8766 0.8771 0.8771
1841.000000 0.8773 0.8771 0.8770 0.8768 0.8768
1836.000000 0.8768 0.8771 0.8775 0.8778 0.8782
1831.000000 0.8786 0.8788 0.8790 0.8792 0.8793
1826.000000 0.8795 0.8795 0.8795 0.8789 0.8784
1821.000000 0.8784 0.8784 0.8785 0.8785 0.8785
1816.000000 0.8786 0.8786 0.8786 0.8787 0.8788
1811.000000 0.8788 0.8789 0.8789 0.8785 0.8781
1806.000000 0.8791 0.8824 0.8858 0.8892 0.8925
1801.000000 0.8958 0.8821 0.8683 0.8678 0.8673
1796.000000 0.8674 0.8675 0.8678 0.8681 0.8684
1791.000000 0.8686 0.8689 0.8691 0.8694 0.8697
1786.000000 0.8704 0.8711 0.8718 0.8725 0.8733
1781.000000 0.8740 0.8747 0.8754 0.8761 0.8768
1776.000000 0.8773 0.8777 0.8781 0.8785 0.8789
1771.000000 0.8793 0.8796 0.8797 0.8797 0.8798
1766.000000 0.8798 0.8799 0.8800 0.8800 0.8801
1761.000000 0.8801 0.8802 0.8803 0.8804 0.8805
1756.000000 0.8806 0.8807 0.8808 0.8809 0.8810
1751.000000 0.8810 0.8811 0.8811 0.8803 0.8796
1746.000000 0.8788 0.8782 0.8778 0.8773 0.8768
1741.000000 0.8765 0.8775 0.8786 0.8794 0.8803
1736.000000 0.8811 0.8820 0.8828 0.8823 0.8818
1731.000000 0.8805 0.8791 0.8775 0.8761 0.8749
1726.000000 0.8739 0.8728 0.8718 0.8711 0.8715
1721.000000 0.8718 0.8718 0.8718 0.8718 0.8717
1716.000000 0.8714 0.8712 0.8709 0.8706 0.8698
1711.000000 0.8690 0.8667 0.8666 0.8665 0.8657
1706.000000 0.8649 0.8639 0.8627 0.8616 0.8604
1701.000000 0.8591 0.8571 0.8552 0.8532 0.8511
1696.000000 0.8487 0.8451 0.8410 0.8366 0.8321
1691.000000 0.8263 0.8203 0.8118 0.8025 0.7928
1686.000000 0.7895 0.7868 0.7858 0.7847 0.7596
1681.000000 0.7330 0.7185 0.7031 0.7056 0.7047
1676.000000 0.7038 0.7038 0.7060 0.7115 0.7201
1671.000000 0.7289 0.7367 0.7445 0.7548 0.7665
1666.000000 0.7788 0.7894 0.7961 0.8026 0.8085
1661.000000 0.8118 0.8118 0.8117 0.8115 0.8115
1656.000000 0.8115 0.8117 0.8118 0.8119 0.8121
1651.000000 0.8124 0.7844 0.7165 0.6487 0.5808
1646.000000 0.5129 0.4450 0.3771 0.3092 0.2826
1641.000000 0.2807 0.2810 0.2813 0.3157 0.3590
1636.000000 0.4023 0.4456 0.4889 0.5323 0.5698
1631.000000 0.6119 0.6404 0.6636 0.6847 0.6971
1626.000000 0.7098 0.7211 0.7303 0.7395 0.7506
1621.000000 0.7639 0.7692 0.7728 0.7765 0.7768
1616.000000 0.7768 0.7768 0.7801 0.7771 0.7771
1611.000000 0.7771 0.7769 0.7768 0.7728 0.7688
1606.000000 0.7641 0.7587 0.7534 0.7481 0.7422
1601.000000 0.7350 0.7275 0.7203 0.7130 0.7058
1596.000000 0.6990 0.6922 0.6855 0.6788 0.6715
1591.000000 0.6644 0.6571 0.6499 0.6431 0.6366
1586.000000 0.6300 0.6229 0.6155 0.6086 0.6075
1581.000000 0.6069 0.6068 0.6067 0.6066 0.6064
1576.000000 0.6062 0.6060 0.6056 0.6052 0.6049
1571.000000 0.6032 0.6010 0.5991 0.5935 0.5844
1566.000000 0.5673 0.5527 0.5452 0.5410 0.5370
1561.000000 0.5359 0.5359 0.5359 0.5359 0.5351
1556.000000 0.4885 0.4739 0.4705 0.4671 0.4631
1551.000000 0.4587 0.4575 0.4568 0.4579 0.4600
1546.000000 0.4621 0.4642 0.4665 0.4701 0.4738
1541.000000 0.4775 0.4810 0.4868 0.4933 0.5056
1536.000000 0.5184 0.5304 0.5421 0.5503 0.5584
1531.000000 0.5665 0.5746 0.5828 0.5910 0.5995
1526.000000 0.6079 0.6159 0.6237 0.6268 0.6297
1521.000000 0.6326 0.6355 0.6383 0.6411 0.6439
1516.000000 0.6468 0.6496 0.6524 0.6567 0.6621
1511.000000 0.6676 0.6732 0.6803 0.6883 0.6955
1506.000000 0.7018 0.7071 0.7111 0.7149 0.7188
1501.000000 0.7228 0.7268 0.7305 0.7340 0.7353
1496.000000 0.7361 0.7371 0.7394 0.7421 0.7449
1491.000000 0.7475 0.7503 0.7530 0.7557 0.7584
1486.000000 0.7608 0.7628 0.7648 0.7665 0.7675
1481.000000 0.7685 0.7694 0.7703 0.7701 0.7701
1476.000000 0.7700 0.7690 0.7678 0.7664 0.7618
1471.000000 0.7571 0.7506 0.7441 0.7392 0.7344
1466.000000 0.7321 0.7300 0.7264 0.7158 0.7054
1461.000000 0.6889 0.6711 0.6693 0.6674 0.6655
1456.000000 0.6596 0.6333 0.6039 0.5745 0.5451
1451.000000 0.5157 0.4862 0.4569 0.4275 0.3584
1446.000000 0.3687 0.3630 0.3752 0.3974 0.4196
1441.000000 0.4418 0.4518 0.4510 0.4488 0.4451
1436.000000 0.4418 0.4434 0.4527 0.4633 0.4952
1431.000000 0.5329 0.5706 0.6083 0.6432 0.6537
1426.000000 0.6637 0.6736 0.6828 0.6908 0.6990
1421.000000 0.7069 0.7144 0.7218 0.7292 0.7368
1416.000000 0.7445 0.7518 0.7586 0.7653 0.7688
1411.000000 0.7719 0.7753 0.7785 0.7818 0.7850
1406.000000 0.7892 0.7918 0.7935 0.7948 0.7951
1401.000000 0.7957 0.7961 0.7964 0.7968 0.7968
1396.000000 0.7969 0.7958 0.7939 0.7919 0.7894
1391.000000 0.7868 0.7836 0.7801 0.7756 0.7696
1386.000000 0.7619 0.7499 0.7357 0.7215 0.7074
1381.000000 0.6932 0.6861 0.6858 0.6949 0.7089
1376.000000 0.7228 0.7369 0.7510 0.7656 0.7858
1371.000000 0.7939 0.8012 0.8087 0.8160 0.8193
1366.000000 0.8225 0.8257 0.8289 0.8321 0.8344
1361.000000 0.8367 0.8391 0.8404 0.8405 0.8406
1356.000000 0.8407 0.8410 0.8412 0.8415 0.8418
1351.000000 0.8421 0.8424 0.8428 0.8434 0.8440
1346.000000 0.8445 0.8451 0.8459 0.8459 0.8459
1341.000000 0.8459 0.8451 0.8436 0.8420 0.8391
1336.000000 0.8356 0.8323 0.8292 0.8259 0.8232
1331.000000 0.8085 0.7782 0.7480 0.7258 0.7208
1326.000000 0.7118 0.6848 0.6576 0.6359 0.6378
1321.000000 0.6545 0.6725 0.6907 0.7088 0.7260
1316.000000 0.7349 0.7419 0.7469 0.7504 0.7531
1311.000000 0.7548 0.7564 0.7564 0.7565 0.7565
1306.000000 0.7565 0.7565 0.7565 0.7562 0.7558
1301.000000 0.7557 0.7541 0.7515 0.7453 0.7365
1296.000000 0.7289 0.7044 0.6721 0.6399 0.6076
1291.000000 0.5577 0.5557 0.5605 0.6042 0.6478
1286.000000 0.6864 0.6992 0.7090 0.7160 0.7230
1281.000000 0.7288 0.7337 0.7386 0.7435 0.7478
1276.000000 0.7521 0.7557 0.7578 0.7600 0.7621
1271.000000 0.7643 0.7655 0.7667 0.7678 0.7688
1266.000000 0.7697 0.7706 0.7711 0.7711 0.7711
1261.000000 0.7698 0.7676 0.7657 0.7605 0.7538
1256.000000 0.7475 0.7415 0.7357 0.7298 0.7230
1251.000000 0.7160 0.7089 0.6969 0.6811 0.5356
1246.000000 0.4693 0.4029 0.3364 0.2702 0.2092
1241.000000 0.2074 0.2282 0.2951 0.3618 0.4288
1236.000000 0.4957 0.5250 0.5486 0.5993 0.6219
1231.000000 0.6486 0.6755 0.6917 0.7049 0.7128
1226.000000 0.7208 0.7287 0.7346 0.7401 0.7458
1221.000000 0.7515 0.7571 0.7635 0.7699 0.7764
1216.000000 0.7808 0.7846 0.7884 0.7921 0.7960
1211.000000 0.7992 0.8024 0.8055 0.8086 0.8118
1206.000000 0.8149 0.8176 0.8197 0.8217 0.8237
1201.000000 0.8257 0.8275 0.8296 0.8314 0.8331
1196.000000 0.8347 0.8363 0.8380 0.8396 0.8408
1191.000000 0.8414 0.8420 0.8425 0.8431 0.8431
1186.000000 0.8430 0.8447 0.8450 0.8453 0.8457
1181.000000 0.8460 0.8464 0.8467 0.8471 0.8474
1176.000000 0.8478 0.8481 0.8484 0.8488 0.8491
1171.000000 0.8495 0.8498 0.8502 0.8505 0.8508
1166.000000 0.8511 0.8514 0.8517 0.8520 0.8523
1161.000000 0.8517 0.8511 0.8505 0.8494 0.8483
1156.000000 0.8471 0.8460 0.8449 0.8438 0.8427
1151.000000 0.8418 0.8418 0.8418 0.8417 0.8417
1146.000000 0.8417 0.8417 0.8418 0.8423 0.8428
1141.000000 0.8433 0.8438 0.8443 0.8447 0.8450
1136.000000 0.8451 0.8452 0.8452 0.8453 0.8454
1131.000000 0.8455 0.8455 0.8437 0.8418 0.8402
1126.000000 0.8384 0.8364 0.8343 0.8321 0.8302
1121.000000 0.8284 0.8275 0.8267 0.8259 0.8253
1116.000000 0.8250 0.8248 0.8254 0.8267 0.8278
1111.000000 0.8289 0.8295 0.8301 0.8308 0.8314
1106.000000 0.8321 0.8328 0.8327 0.8327 0.8321
1101.000000 0.8315 0.8301 0.8287 0.8273 0.8249
1096.000000 0.8220 0.8190 0.8151 0.8112 0.8087
1091.000000 0.8064 0.8046 0.8015 0.8041 0.8044
1086.000000 0.8048 0.8126 0.8168 0.8211 0.8231
1081.000000 0.8243 0.8255 0.8267 0.8278 0.8290
1076.000000 0.8295 0.8298 0.8301 0.8304 0.8307
1071.000000 0.8310 0.8311 0.8312 0.8313 0.8315
1066.000000 0.8316 0.8317 0.8317 0.8318 0.8317
1061.000000 0.8316 0.8314 0.8312 0.8308 0.8304
1056.000000 0.8301 0.8297 0.8293 0.8285 0.8268
1051.000000 0.8253 0.8237 0.8221 0.8205 0.8191
1046.000000 0.8176 0.8162 0.8149 0.8136 0.8125
1041.000000 0.8115 0.8106 0.8095 0.8085 0.8075
1036.000000 0.8074 0.8074 0.8074 0.8075 0.8075
1031.000000 0.8075 0.8075 0.8075 0.8075 0.8078
1026.000000 0.8080 0.8082 0.8084 0.8086 0.8088
1021.000000 0.8090 0.8092 0.8094 0.8096 0.8092
1016.000000 0.8088 0.8083 0.8078 0.8074 0.8068
1011.000000 0.8065 0.8060 0.8051 0.8042 0.8033
1006.000000 0.8024 0.8015 0.8006 0.7997 0.7982
1001.000000 0.7965 0.7951 0.7935 0.7919 0.7905
996.000000 0.7891 0.7875 0.7861 0.7847 0.7832
991.000000 0.7817 0.7803 0.7788 0.7772 0.7738
986.000000 0.7701 0.7665 0.7630 0.7594 0.7558
981.000000 0.7522 0.7488 0.7446 0.7372 0.7300
976.000000 0.7128 0.6874 0.6687 0.6601 0.6517
971.000000 0.6093 0.5942 0.5790 0.5642 0.5493
966.000000 0.5329 0.5028 0.4669 0.4310 0.3950
961.000000 0.3592 0.3232 0.2874 0.2515 0.2283
956.000000 0.2170 0.2055 0.1989 0.1952 0.1933
951.000000 0.1916 0.1912 0.1908 0.1908 0.1909
946.000000 0.1913 0.1916 0.1923 0.1932 0.1942
941.000000 0.1940 0.1934 0.1899 0.1717 0.1542
936.000000 0.1368 0.1194 0.1019 0.0845 0.0670
931.000000 0.0496 0.0321 0.0173 0.0144 0.0125
926.000000 0.0116 0.0108 0.0111 0.0116 0.0139
921.000000 0.0247 0.0475 0.0631 0.0895 0.1407
916.000000 0.1793 0.2179 0.2566 0.2952 0.3338
911.000000 0.3725 0.4110 0.4479 0.4730 0.4951
906.000000 0.5136 0.5296 0.5470 0.5766 0.5964
901.000000 0.6119 0.6225 0.6332 0.6415 0.6475
896.000000 0.6534 0.6594 0.6653 0.6712 0.6771
891.000000 0.6821 0.6856 0.6891 0.6925 0.6958
886.000000 0.6991 0.7008 0.7021 0.6997 0.7028
881.000000 0.7028 0.7028 0.7025 0.7019 0.7015
876.000000 0.7010 0.7005 0.6994 0.6980 0.6965
871.000000 0.6949 0.6931 0.6911 0.6890 0.6861
866.000000 0.6832 0.6803 0.6772 0.6742 0.6711
861.000000 0.6684 0.6658 0.6633 0.6614 0.6608
856.000000 0.6625 0.6600 0.6600 0.6614 0.6645
851.000000 0.6710 0.6796 0.6883 0.6971 0.7051
846.000000 0.7118 0.7186 0.7250 0.7312 0.7375
841.000000 0.7422 0.7471 0.7518 0.7567 0.7601
836.000000 0.7633 0.7665 0.7698 0.7718 0.7739
831.000000 0.7758 0.7780 0.7794 0.7796 0.7775
826.000000 0.7801 0.7805 0.7800 0.7787 0.7774
821.000000 0.7761 0.7711 0.7662 0.7593 0.7521
816.000000 0.7451 0.7303 0.7139 0.7045 0.6951
811.000000 0.6858 0.6761 0.6665 0.6568 0.6403
806.000000 0.6196 0.5625 0.5242 0.4897 0.3688
801.000000 0.2684 0.1679 0.0675 0.0281 0.0215
796.000000 0.0201 0.0193 0.0206 0.0305 0.0682
791.000000 0.0849 0.1065 0.1508 0.2083 0.2659
786.000000 0.3234 0.3809 0.4385 0.4960 0.5536
781.000000 0.6112 0.6425 0.6521 0.6619 0.6740
776.000000 0.6875 0.6997 0.7117 0.7257 0.7398
771.000000 0.7476 0.7533 0.7580 0.7594 0.7606
766.000000 0.7614 0.7618 0.7621 0.7630 0.7628
761.000000 0.7606 0.7551 0.7467 0.7356 0.7251
756.000000 0.7158 0.7048 0.6918 0.6525 0.6123
751.000000 0.5720 0.5543 0.5547 0.5653 0.5882
746.000000 0.6110 0.6340 0.6568 0.6797 0.7025
741.000000 0.7255 0.7495 0.7665 0.7744 0.7822
736.000000 0.7885 0.7921 0.7958 0.7994 0.8028
731.000000 0.8049 0.8069 0.8091 0.8111 0.8130
726.000000 0.8146 0.8161 0.8176 0.8192 0.8208
721.000000 0.8212 0.8215 0.8218 0.8221 0.8225
716.000000 0.8227 0.8227 0.8228 0.8228 0.8228
711.000000 0.8228 0.8225 0.8225 0.8217 0.8204
706.000000 0.8172 0.8142 0.8111 0.8076 0.8040
701.000000 0.8003 0.7967 0.7911 0.7854 0.7796
696.000000 0.7739 0.7682 0.7625 0.7501 0.7339
691.000000 0.7161 0.6745 0.6284 0.5823 0.5362
686.000000 0.5081 0.5100 0.5217 0.5516 0.5814
681.000000 0.6112 0.6410 0.6708 0.7121 0.7219
676.000000 0.7318 0.7435 0.7555 0.7636 0.7715
671.000000 0.7792 0.7860 0.7925 0.7981 0.8025
666.000000 0.8061 0.8098 0.8146 0.8168 0.8186
661.000000 0.8186 0.8185 0.8183 0.8175 0.8168
656.000000 0.8160 0.8157 0.8153 0.8153 0.8153
651.000000 0.8178 0.8207 0.8235 0.8264 0.8292
646.000000 0.8323 0.8353 0.8382 0.8405 0.8427
641.000000 0.8450 0.8471 0.8494 0.8510 0.8525
636.000000 0.8542 0.8558 0.8574 0.8589 0.8597
631.000000 0.8606 0.8614 0.8621 0.8630 0.8633
626.000000 0.8635 0.8637 0.8640 0.8642 0.8645
621.000000 0.8647 0.8649 0.8652 0.8654 0.8657
616.000000 0.8659 0.8661 0.8664 0.8670 0.8677
611.000000 0.8689 0.8710 0.8731 0.8750 0.8767
606.000000 0.8783 0.8799 0.8807 0.8815 0.8823
601.000000 0.8831 0.8839 0.8848 0.8854 0.8860
596.000000 0.8867 0.8873 0.8878 0.8886 0.8891
591.000000 0.8894 0.8897 0.8886 0.8863 0.8796
586.000000 0.8759 0.8736 0.8723 0.8721 0.8754
581.000000 0.8805 0.8860 0.8871 0.8885 0.8898
576.000000 0.8903 0.8903 0.8902 0.8901 0.8901
571.000000 0.8900 0.8900 0.8902 0.8903 0.8905
566.000000 0.8906 0.8908 0.8909 0.8911 0.8912
561.000000 0.8894 0.8851 0.8807 0.8778 0.8768
556.000000 0.8768 0.8768 0.8770 0.8787 0.8813
551.000000 0.8839 0.8855 0.8860 0.8865 0.8870
546.000000 0.8875 0.8880 0.8886 0.8891 0.8896
541.000000 0.8901 0.8905 0.8910 0.8915 0.8918
536.000000 0.8924 0.8928 0.8932 0.8934 0.8935
531.000000 0.8937 0.8938 0.8940 0.8941 0.8943
526.000000 0.8944 0.8946 0.8947 0.8949 0.8950
521.000000 0.8952 0.8952 0.8953 0.8953 0.8954
516.000000 0.8954 0.8955 0.8956 0.8956 0.8957
511.000000 0.8957 0.8958 0.8958 0.8959 0.8959
506.000000 0.8960 0.8960 0.8958 0.8956 0.8954
501.000000 0.8952 0.8950 0.8948 0.8946 0.8944
496.000000 0.8942 0.8940 0.8938 0.8936 0.8933
491.000000 0.8928 0.8921 0.8917 0.8912 0.8906
486.000000 0.8901 0.8895 0.8890 0.8884 0.8878
481.000000 0.8868 0.8860 0.8850 0.8841 0.8832
476.000000 0.8823 0.8814 0.8805 0.8795 0.8786
471.000000 0.8777 0.8768 0.8759 0.8750 0.8741
466.000000 0.8732 0.8724 0.8715 0.8706 0.8697
461.000000 0.8688 0.8678 0.8671 0.8662 0.8652
456.000000 0.8643 0.8634 0.8625 0.8618 0.8611
451.000000 0.8604
##END=
