##TITLE=CARBONIC ACID, DIMETHYL ESTER
##JCAMP-DX=4.24
##DATA TYPE=INFRARED SPECTRUM
##CLASS=COBLENTZ III
##ORIGIN=DOW CHEMICAL COMPANY
##OWNER=COBLENTZ SOCIETY
Collection (C) 2018 copyright by the U.S. Secretary of Commerce
on behalf of the United States of America. All rights reserved.
##DATE=Not specified, most likely prior to 1970
##NAMES=dimethyl carbonate
DIMETHYL CARBONATE
##CAS REGISTRY NO=616-38-6
##MOLFORM=C3 H6 O3
##SOURCE REFERENCE=COBLENTZ NO. 1028
##$NIST SOURCE=COBLENTZ
##$NIST IMAGE=cob1028
##SPECTROMETER/DATA SYSTEM=Not specified, most likely a prism, grating, or hybrid spectrometer.
##STATE=SOLUTION (10% CCl4 FOR 3800-1333, 10% CS2 FOR 1333-430 CM^-^1)
##PATH LENGTH=0.011 CM, 0.011 CM
$$SPECTRAL CONTAMINATION DUE TO CCl4 AROUND 1550 CM^-^1
##SAMPLING PROCEDURE=TRANSMISSION
##RESOLUTION=4
##DATA PROCESSING=DIGITIZED BY NIST FROM HARD COPY (FROM TWO SEGMENTS)
##XUNITS=1/CM
##YUNITS=TRANSMITTANCE
##XFACTOR=1.000000
##YFACTOR=1
##DELTAX=1.142423
##FIRSTX=422.315
##LASTX=3793.61
##FIRSTY=0.911
##MAXX=3793.61
##MINX=422.315
##MAXY=1.008
##MINY=0
##NPOINTS=2952
##XYDATA=(X++(Y..Y))
422.315000 0.9110 0.9110 0.9110 0.9110 0.9110
428.027115 0.9110 0.9110 0.9110 0.9110 0.9120
433.739231 0.9120 0.9120 0.9140 0.9140 0.9180
439.451346 0.9180 0.9210 0.9250 0.9270 0.9270
445.163461 0.9270 0.9270 0.9270 0.9280 0.9280
450.875577 0.9300 0.9320 0.9340 0.9340 0.9350
456.587692 0.9370 0.9410 0.9440 0.9510 0.9530
462.299807 0.9530 0.9530 0.9530 0.9530 0.9550
468.011923 0.9550 0.9570 0.9590 0.9660 0.9690
473.724038 0.9710 0.9730 0.9750 0.9760 0.9780
479.436153 0.9800 0.9800 0.9820 0.9830 0.9850
485.148268 0.9870 0.9890 0.9890 0.9890 0.9890
490.860384 0.9890 0.9890 0.9870 0.9850 0.9850
496.572499 0.9850 0.9850 0.9850 0.9830 0.9830
502.284614 0.9820 0.9800 0.9760 0.9750 0.9670
507.996730 0.9640 0.9481 0.9341 0.8962 0.8503
513.708845 0.8070 0.8060 0.8070 0.8429 0.8998
519.420960 0.9279 0.9340 0.9658 0.9889 0.9960
525.133076 0.9980 1.0010 1.0050 1.0070 1.0070
530.845191 1.0070 1.0070 1.0070 1.0080 1.0080
536.557306 1.0080 1.0080 1.0080 1.0080 1.0080
542.269422 1.0080 1.0080 1.0080 1.0080 1.0080
547.981537 1.0080 1.0080 1.0080 1.0080 1.0080
553.693652 1.0080 1.0070 1.0070 1.0070 1.0050
559.405768 1.0050 1.0030 1.0010 1.0010 1.0010
565.117883 0.9980 0.9980 0.9960 0.9910 0.9821
570.829998 0.9690 0.9480 0.9140 0.8930 0.8910
576.542113 0.8930 0.9318 0.9599 0.9918 0.9960
582.254229 1.0000 1.0010 1.0010 1.0030 1.0030
587.966344 1.0030 1.0030 1.0030 1.0030 1.0030
593.678459 1.0030 1.0030 1.0030 1.0030 1.0030
599.390575 1.0030 1.0030 1.0030 1.0030 1.0030
605.102690 1.0030 1.0030 1.0030 1.0030 1.0030
610.814805 1.0030 1.0030 1.0030 1.0030 1.0010
616.526921 1.0010 1.0000 0.9980 0.9960 0.9920
622.239036 0.9890 0.9870 0.9850 0.9820 0.9820
627.951151 0.9800 0.9760 0.9690 0.9660 0.9640
633.663267 0.9600 0.9600 0.9590 0.9550 0.9510
639.375382 0.9480 0.9440 0.9390 0.9320 0.9280
645.087497 0.9250 0.9250 0.9210 0.9210 0.9230
650.799613 0.9250 0.9270 0.9280 0.9350 0.9370
656.511728 0.9390 0.9440 0.9460 0.9480 0.9510
662.223843 0.9510 0.9530 0.9550 0.9570 0.9590
667.935959 0.9590 0.9600 0.9620 0.9620 0.9640
673.648074 0.9660 0.9670 0.9670 0.9670 0.9690
679.360189 0.9690 0.9710 0.9710 0.9710 0.9710
685.072304 0.9670 0.9640 0.9570 0.9440 0.9280
690.784420 0.9210 0.9280 0.9409 0.9639 0.9670
696.496535 0.9690 0.9710 0.9730 0.9730 0.9750
702.208650 0.9750 0.9750 0.9750 0.9760 0.9750
707.920766 0.9750 0.9750 0.9750 0.9750 0.9750
713.632881 0.9750 0.9750 0.9750 0.9750 0.9750
719.344996 0.9750 0.9750 0.9750 0.9750 0.9750
725.057112 0.9730 0.9730 0.9730 0.9730 0.9730
730.769227 0.9710 0.9710 0.9710 0.9710 0.9710
736.481342 0.9710 0.9710 0.9690 0.9690 0.9690
742.193458 0.9690 0.9690 0.9640 0.9640 0.9620
747.905573 0.9600 0.9570 0.9550 0.9530 0.9510
753.617688 0.9510 0.9440 0.9390 0.9390 0.9320
759.329804 0.9250 0.9190 0.9120 0.9050 0.8931
765.041919 0.8890 0.8730 0.8620 0.8590 0.8480
770.754034 0.8410 0.8300 0.8220 0.8091 0.7931
776.466149 0.7820 0.7580 0.7250 0.6881 0.6451
782.178265 0.6151 0.5403 0.4912 0.4353 0.3823
787.890380 0.3270 0.2720 0.2181 0.0583 0.0191
793.602495 0.0210 0.0230 0.0330 0.0439 0.0549
799.314611 0.0710 0.1599 0.2488 0.3388 0.4247
805.026726 0.4937 0.5796 0.6078 0.6468 0.7056
810.738841 0.7450 0.7610 0.7750 0.7950 0.8110
816.450957 0.8180 0.8299 0.8449 0.8549 0.8620
822.163072 0.8680 0.8730 0.8860 0.8890 0.8890
827.875187 0.8910 0.8910 0.8910 0.8910 0.8910
833.587303 0.8890 0.8890 0.8860 0.8840 0.8820
839.299418 0.8800 0.8770 0.8710 0.8640 0.8521
845.011533 0.8460 0.8450 0.8340 0.8220 0.8060
850.723649 0.7910 0.7810 0.7750 0.7720 0.7720
856.435764 0.7720 0.7700 0.7700 0.7680 0.7680
862.147879 0.7680 0.7720 0.7750 0.7820 0.7880
867.859995 0.7930 0.7970 0.8000 0.8020 0.8060
873.572110 0.8090 0.8110 0.8110 0.8130 0.8130
879.284225 0.8140 0.8140 0.8160 0.8160 0.8140
884.996340 0.8140 0.8140 0.8140 0.8130 0.8110
890.708456 0.8090 0.8040 0.7970 0.7930 0.7900
896.420571 0.7820 0.7631 0.7431 0.7132 0.6862
902.132686 0.6560 0.6220 0.5851 0.5441 0.4942
907.844802 0.4412 0.3773 0.3064 0.1768 0.1313
913.556917 0.0640 0.0440 0.0420 0.0440 0.0510
919.269032 0.1098 0.1667 0.3123 0.3567 0.4474
924.981148 0.5100 0.5740 0.6449 0.6470 0.6650
930.693263 0.6829 0.7129 0.7150 0.7170 0.7170
936.405378 0.7170 0.7150 0.7130 0.7090 0.7020
942.117494 0.6920 0.6810 0.6720 0.6630 0.6560
947.829609 0.6450 0.6370 0.6220 0.6120 0.5970
953.541724 0.5810 0.5601 0.5391 0.5121 0.4832
959.253840 0.4500 0.4140 0.3751 0.3321 0.2861
964.965955 0.2202 0.1672 0.0586 0.0013 0.0000
970.678070 0.0000 0.0000 0.0000 0.0000 0.0000
976.390185 0.0000 0.0000 0.0000 0.0000 0.0010
982.102301 0.0100 0.0280 0.0719 0.1169 0.2127
987.814416 0.2289 0.2658 0.3675 0.4545 0.4888
993.526531 0.5370 0.6040 0.6380 0.6610 0.6969
999.238647 0.7289 0.7559 0.7749 0.7909 0.8019
1004.950762 0.8130 0.8180 0.8220 0.8270 0.8300
1010.662877 0.8320 0.8320 0.8320 0.8300 0.8300
1016.374993 0.8300 0.8290 0.8250 0.8200 0.8090
1022.087108 0.7970 0.7821 0.7740 0.7700 0.7680
1027.799223 0.7700 0.7790 0.7980 0.8359 0.8589
1033.511339 0.8710 0.8790 0.8820 0.8910 0.8999
1039.223454 0.9090 0.9120 0.9160 0.9180 0.9190
1044.935569 0.9190 0.9230 0.9250 0.9250 0.9280
1050.647685 0.9300 0.9320 0.9320 0.9320 0.9320
1056.359800 0.9320 0.9320 0.9320 0.9320 0.9320
1062.071915 0.9320 0.9320 0.9320 0.9300 0.9300
1067.784031 0.9280 0.9280 0.9280 0.9250 0.9210
1073.496146 0.9180 0.9160 0.9160 0.9160 0.9140
1079.208261 0.9110 0.9090 0.9020 0.8960 0.8930
1084.920376 0.8890 0.8860 0.8790 0.8680 0.8481
1090.632492 0.8271 0.8071 0.7901 0.7273 0.7250
1096.344607 0.7270 0.7540 0.7750 0.8089 0.8459
1102.056722 0.8839 0.8890 0.8890 0.8890 0.8890
1107.768838 0.8870 0.8870 0.8840 0.8800 0.8750
1113.480953 0.8710 0.8680 0.8590 0.8540 0.8500
1119.193068 0.8500 0.8480 0.8480 0.8500 0.8520
1124.905184 0.8570 0.8620 0.8710 0.8730 0.8750
1130.617299 0.8770 0.8770 0.8770 0.8770 0.8770
1136.329414 0.8770 0.8750 0.8750 0.8680 0.8660
1142.041530 0.8640 0.8620 0.8610 0.8590 0.8570
1147.753645 0.8550 0.8500 0.8450 0.8380 0.8320
1153.465760 0.8290 0.8200 0.8140 0.8130 0.8070
1159.177876 0.7930 0.7820 0.7770 0.7740 0.7720
1164.889991 0.7630 0.7560 0.7560 0.7540 0.7380
1170.602106 0.7221 0.6931 0.6850 0.6721 0.6372
1176.314221 0.6130 0.6060 0.6130 0.6310 0.6579
1182.026337 0.6670 0.6670 0.6650 0.6630 0.6610
1187.738452 0.6580 0.6510 0.6420 0.6330 0.6280
1193.450567 0.6150 0.6030 0.5881 0.5800 0.5561
1199.162683 0.5280 0.5080 0.4830 0.4600 0.4351
1204.874798 0.3772 0.3391 0.2653 0.2610 0.2650
1210.586913 0.3020 0.3620 0.4459 0.4480 0.4480
1216.299029 0.4460 0.4281 0.4250 0.3912 0.3661
1222.011144 0.3520 0.3360 0.3180 0.2970 0.2820
1227.723259 0.2680 0.2590 0.2291 0.2091 0.1951
1233.435375 0.1860 0.1760 0.1630 0.1540 0.1420
1239.147490 0.1290 0.1131 0.0941 0.0801 0.0671
1244.859605 0.0600 0.0580 0.0550 0.0460 0.0370
1250.571721 0.0330 0.0260 0.0170 0.0120 0.0100
1256.283836 0.0080 0.0080 0.0070 0.0050 0.0030
1261.995951 0.0030 0.0010 0.0010 0.0000 0.0000
1267.708066 0.0000 0.0000 0.0000 0.0000 0.0000
1273.420182 0.0000 0.0000 0.0000 0.0000 0.0000
1279.132297 0.0000 0.0000 0.0000 0.0000 0.0000
1284.844412 0.0000 0.0000 0.0000 0.0010 0.0010
1290.556528 0.0030 0.0030 0.0030 0.0050 0.0050
1296.268643 0.0070 0.0080 0.0100 0.0120 0.0229
1301.980758 0.0320 0.0420 0.0550 0.0810 0.0940
1307.692874 0.1040 0.1219 0.1648 0.1879 0.2337
1313.404989 0.2610 0.2930 0.3220 0.3380 0.3610
1319.117104 0.3819 0.4159 0.4548 0.4640 0.4759
1324.829220 0.4980 0.5100 0.5240 0.5330 0.5480
1330.541335 0.5600 0.5739 0.5879 0.5900 0.5920
1336.253450 0.5940 0.5960 0.5970 0.6259 0.6330
1341.965566 0.6539 0.6560 0.6600 0.6670 0.6740
1347.677681 0.6770 0.6900 0.6970 0.7060 0.7090
1353.389796 0.7150 0.7200 0.7270 0.7360 0.7400
1359.101912 0.7410 0.7450 0.7520 0.7560 0.7610
1364.814027 0.7630 0.7660 0.7680 0.7680 0.7720
1370.526142 0.7740 0.7750 0.7750 0.7770 0.7790
1376.238257 0.7820 0.7820 0.7820 0.7820 0.7840
1381.950373 0.7860 0.7880 0.7880 0.7880 0.7880
1387.662488 0.7900 0.7900 0.7910 0.7910 0.7930
1393.374603 0.7930 0.7950 0.7950 0.7970 0.7970
1399.086719 0.7980 0.7980 0.7980 0.7970 0.7900
1404.798834 0.7810 0.7750 0.7720 0.7650 0.7580
1410.510949 0.7430 0.7310 0.7250 0.7151 0.7041
1416.223065 0.6900 0.6720 0.6580 0.6131 0.5601
1421.935180 0.5480 0.4623 0.4182 0.3732 0.3302
1427.647295 0.2860 0.1970 0.1491 0.0492 0.0460
1433.359411 0.0480 0.0649 0.0799 0.1168 0.1528
1439.071526 0.2010 0.2060 0.2040 0.1990 0.1771
1444.783641 0.1511 0.0783 0.0581 0.0351 0.0231
1450.495757 0.0190 0.0190 0.0190 0.0190 0.0190
1456.207872 0.0190 0.0210 0.0230 0.0240 0.0240
1461.919987 0.0300 0.0400 0.0620 0.0970 0.1279
1467.632102 0.1559 0.1670 0.1949 0.2239 0.3016
1473.344218 0.3380 0.4160 0.4250 0.4340 0.4549
1479.056333 0.4759 0.4939 0.5139 0.5319 0.5330
1484.768448 0.5390 0.5460 0.5490 0.5550 0.5580
1490.480564 0.5580 0.5650 0.5710 0.5710 0.5740
1496.192679 0.5780 0.5960 0.6040 0.6130 0.6220
1501.904794 0.6290 0.6400 0.6420 0.6420 0.6420
1507.616910 0.6420 0.6420 0.6420 0.6420 0.6400
1513.329025 0.6400 0.6380 0.6380 0.6330 0.6290
1519.041140 0.6260 0.6220 0.6190 0.6190 0.6150
1524.753256 0.6120 0.6120 0.6060 0.5990 0.5811
1530.465371 0.5690 0.5650 0.5600 0.5530 0.5460
1536.177486 0.5370 0.5330 0.5141 0.5001 0.4851
1541.889602 0.4570 0.4530 0.4510 0.4500 0.4460
1547.601717 0.4370 0.4340 0.4340 0.4340 0.4340
1553.313832 0.4340 0.4350 0.4370 0.4440 0.4640
1559.025948 0.4750 0.4820 0.4850 0.4910 0.4999
1564.738063 0.5000 0.5080 0.5240 0.5280 0.5330
1570.450178 0.5480 0.5560 0.5560 0.5560 0.5560
1576.162293 0.5560 0.5560 0.5530 0.5510 0.5460
1581.874409 0.5440 0.5420 0.5370 0.5300 0.5280
1587.586524 0.5300 0.5370 0.5420 0.5460 0.5530
1593.298639 0.5560 0.5600 0.5650 0.5740 0.5810
1599.010755 0.5880 0.5800 0.5560 0.5490 0.5420
1604.722870 0.5330 0.5320 0.5320 0.5320 0.5598
1610.434985 0.6101 0.6880 0.7270 0.7490 0.7630
1616.147101 0.7999 0.8140 0.8160 0.8230 0.8270
1621.859216 0.8290 0.8320 0.8390 0.8450 0.8460
1627.571331 0.8460 0.8460 0.8450 0.8360 0.8141
1633.283447 0.8110 0.8000 0.7980 0.7950 0.7910
1638.995562 0.7900 0.7880 0.7880 0.7880 0.7880
1644.707677 0.7860 0.7860 0.7860 0.7860 0.7860
1650.419793 0.7860 0.7860 0.7860 0.7860 0.7860
1656.131908 0.7860 0.7860 0.7880 0.7900 0.7910
1661.844023 0.7910 0.7930 0.7950 0.7950 0.7970
1667.556138 0.8000 0.8020 0.8090 0.8160 0.8160
1673.268254 0.8180 0.8180 0.8160 0.8140 0.8130
1678.980369 0.8110 0.8090 0.7980 0.7930 0.7910
1684.692484 0.7880 0.7860 0.7820 0.7770 0.7720
1690.404600 0.7700 0.7560 0.7470 0.7400 0.7250
1696.116715 0.7081 0.7040 0.6921 0.6651 0.6441
1701.828830 0.6200 0.6130 0.5970 0.5601 0.5331
1707.540946 0.5051 0.4980 0.4641 0.4391 0.4340
1713.253061 0.4230 0.4120 0.3870 0.3750 0.3550
1718.965176 0.3291 0.3111 0.2791 0.2432 0.2251
1724.677292 0.2040 0.1860 0.1690 0.1560 0.1490
1730.389407 0.1380 0.1201 0.1080 0.0831 0.0711
1736.101522 0.0650 0.0640 0.0490 0.0370 0.0300
1741.813638 0.0210 0.0170 0.0140 0.0100 0.0070
1747.525753 0.0050 0.0050 0.0050 0.0050 0.0050
1753.237868 0.0050 0.0050 0.0050 0.0050 0.0050
1758.949984 0.0050 0.0050 0.0050 0.0030 0.0030
1764.662099 0.0030 0.0030 0.0050 0.0050 0.0070
1770.374214 0.0070 0.0140 0.0210 0.0280 0.0330
1776.086329 0.0370 0.0549 0.0809 0.0959 0.1079
1781.798445 0.1601 0.2060 0.2250 0.2540 0.2820
1787.510560 0.3299 0.3519 0.3769 0.4029 0.4279
1793.222675 0.4550 0.4750 0.4850 0.4920 0.5000
1798.934791 0.5140 0.5260 0.5489 0.5649 0.5710
1804.646906 0.5850 0.5920 0.5970 0.5970 0.5990
1810.359021 0.5990 0.5990 0.5990 0.6010 0.6030
1816.071137 0.6150 0.6350 0.6560 0.6900 0.7080
1821.783252 0.7270 0.7400 0.7450 0.7659 0.7720
1827.495367 0.7750 0.7810 0.7950 0.8090 0.8200
1833.207483 0.8220 0.8300 0.8380 0.8499 0.8520
1838.919598 0.8680 0.8700 0.8860 0.8870 0.8890
1844.631713 0.8950 0.9050 0.9090 0.9120 0.9160
1850.343829 0.9190 0.9250 0.9270 0.9300 0.9320
1856.055944 0.9340 0.9350 0.9390 0.9410 0.9410
1861.768059 0.9410 0.9410 0.9410 0.9410 0.9410
1867.480174 0.9410 0.9390 0.9390 0.9350 0.9350
1873.192290 0.9340 0.9320 0.9280 0.9280 0.9250
1878.904405 0.9210 0.9190 0.9160 0.9120 0.9090
1884.616520 0.9050 0.9020 0.8980 0.8980 0.8910
1890.328636 0.8860 0.8820 0.8820 0.8820 0.8820
1896.040751 0.8800 0.8800 0.8770 0.8680 0.8640
1901.752866 0.8660 0.8799 0.8929 0.9020 0.9109
1907.464982 0.9180 0.9300 0.9390 0.9460 0.9460
1913.177097 0.9530 0.9530 0.9550 0.9590 0.9620
1918.889212 0.9640 0.9660 0.9670 0.9670 0.9670
1924.601328 0.9690 0.9690 0.9690 0.9690 0.9690
1930.313443 0.9690 0.9690 0.9690 0.9690 0.9690
1936.025558 0.9690 0.9690 0.9690 0.9690 0.9710
1941.737674 0.9690 0.9690 0.9670 0.9670 0.9660
1947.449789 0.9660 0.9640 0.9620 0.9600 0.9600
1953.161904 0.9570 0.9570 0.9550 0.9530 0.9530
1958.874020 0.9510 0.9500 0.9480 0.9440 0.9351
1964.586135 0.9320 0.9280 0.9270 0.9210 0.9070
1970.298250 0.9070 0.9160 0.9250 0.9280 0.9300
1976.010365 0.9340 0.9350 0.9430 0.9480 0.9510
1981.722481 0.9530 0.9570 0.9590 0.9600 0.9620
1987.434596 0.9640 0.9660 0.9660 0.9670 0.9690
1993.146711 0.9710 0.9710 0.9730 0.9730 0.9750
1998.858827 0.9780 0.9800 0.9810 0.9820 0.9820
2004.570942 0.9820 0.9820 0.9820 0.9820 0.9820
2010.283057 0.9820 0.9820 0.9810 0.9800 0.9800
2015.995173 0.9800 0.9800 0.9800 0.9800 0.9800
2021.707288 0.9790 0.9780 0.9780 0.9780 0.9766
2027.419403 0.9751 0.9722 0.9692 0.9690 0.9690
2033.131519 0.9709 0.9729 0.9730 0.9730 0.9739
2038.843634 0.9749 0.9741 0.9731 0.9730 0.9730
2044.555749 0.9730 0.9730 0.9730 0.9730 0.9730
2050.267865 0.9730 0.9721 0.9711 0.9692 0.9672
2055.979980 0.9666 0.9661 0.9633 0.9603 0.9600
2061.692095 0.9600 0.9596 0.9591 0.9590 0.9590
2067.404210 0.9511 0.9420 0.9379 0.9344 0.9331
2073.116326 0.9321 0.9298 0.9273 0.9213 0.9149
2078.828441 0.9118 0.9093 0.9060 0.9025 0.8982
2084.540556 0.8937 0.8922 0.8912 0.8910 0.8910
2090.252672 0.8918 0.8929 0.8951 0.8976 0.9035
2095.964787 0.9100 0.9152 0.9202 0.9256 0.9311
2101.676902 0.9357 0.9402 0.9431 0.9456 0.9460
2107.389018 0.9460 0.9488 0.9523 0.9538 0.9548
2113.101133 0.9558 0.9568 0.9570 0.9570 0.9570
2118.813248 0.9570 0.9562 0.9552 0.9550 0.9550
2124.525364 0.9550 0.9550 0.9550 0.9550 0.9550
2130.237479 0.9550 0.9550 0.9550 0.9558 0.9568
2135.949594 0.9582 0.9597 0.9608 0.9618 0.9628
2141.661710 0.9638 0.9648 0.9658 0.9664 0.9669
2147.373825 0.9670 0.9670 0.9670 0.9670 0.9670
2153.085940 0.9670 0.9670 0.9670 0.9666 0.9661
2158.798056 0.9645 0.9625 0.9620 0.9620 0.9613
2164.510171 0.9603 0.9596 0.9591 0.9568 0.9538
2170.222286 0.9498 0.9453 0.9429 0.9414 0.9389
2175.934401 0.9359 0.9294 0.9214 0.9124 0.9029
2181.646517 0.8930 0.8829 0.8775 0.8740 0.8593
2187.358632 0.8399 0.8190 0.7976 0.7900 0.7885
2193.070747 0.7880 0.7880 0.7880 0.7880 0.7880
2198.782863 0.7880 0.7897 0.7922 0.7983 0.8063
2204.494978 0.8126 0.8182 0.8294 0.8434 0.8607
2210.207093 0.8796 0.8913 0.8993 0.9066 0.9136
2215.919209 0.9212 0.9292 0.9359 0.9418 0.9475
2221.631324 0.9530 0.9556 0.9566 0.9592 0.9627
2227.343439 0.9646 0.9656 0.9663 0.9668 0.9676
2233.055555 0.9686 0.9690 0.9690 0.9696 0.9706
2238.767670 0.9716 0.9726 0.9730 0.9730 0.9736
2244.479785 0.9746 0.9750 0.9750 0.9753 0.9758
2250.191901 0.9760 0.9760 0.9760 0.9760 0.9760
2255.904016 0.9760 0.9760 0.9760 0.9760 0.9760
2261.616131 0.9757 0.9752 0.9744 0.9734 0.9730
2267.328246 0.9730 0.9724 0.9714 0.9710 0.9710
2273.040362 0.9704 0.9694 0.9684 0.9674 0.9670
2278.752477 0.9670 0.9667 0.9662 0.9660 0.9660
2284.464592 0.9655 0.9645 0.9640 0.9640 0.9640
2290.176708 0.9640 0.9640 0.9640 0.9645 0.9655
2295.888823 0.9660 0.9660 0.9663 0.9668 0.9670
2301.600938 0.9670 0.9675 0.9685 0.9690 0.9690
2307.313054 0.9695 0.9705 0.9710 0.9710 0.9715
2313.025169 0.9725 0.9735 0.9745 0.9757 0.9772
2318.737284 0.9790 0.9810 0.9822 0.9827 0.9835
2324.449400 0.9845 0.9855 0.9865 0.9875 0.9885
2330.161515 0.9890 0.9890 0.9881 0.9861 0.9850
2335.873630 0.9850 0.9843 0.9828 0.9816 0.9806
2341.585746 0.9796 0.9785 0.9780 0.9780 0.9776
2347.297861 0.9766 0.9764 0.9774 0.9776 0.9766
2353.009976 0.9760 0.9760 0.9760 0.9760 0.9760
2358.722092 0.9760 0.9758 0.9753 0.9750 0.9750
2364.434207 0.9746 0.9736 0.9726 0.9716 0.9710
2370.146322 0.9710 0.9718 0.9738 0.9750 0.9750
2375.858437 0.9750 0.9750 0.9746 0.9736 0.9722
2381.570553 0.9702 0.9686 0.9676 0.9664 0.9649
2387.282668 0.9633 0.9612 0.9594 0.9579 0.9570
2392.994783 0.9570 0.9566 0.9556 0.9550 0.9550
2398.706899 0.9550 0.9550 0.9550 0.9550 0.9550
2404.419014 0.9550 0.9565 0.9610 0.9648 0.9673
2410.131129 0.9697 0.9717 0.9733 0.9743 0.9752
2415.843245 0.9757 0.9763 0.9773 0.9780 0.9780
2421.555360 0.9780 0.9780 0.9783 0.9793 0.9800
2427.267475 0.9800 0.9800 0.9800 0.9797 0.9787
2432.979591 0.9777 0.9767 0.9760 0.9760 0.9749
2438.691706 0.9714 0.9690 0.9690 0.9690 0.9690
2444.403821 0.9690 0.9690 0.9696 0.9716 0.9737
2450.115937 0.9762 0.9783 0.9793 0.9800 0.9800
2455.828052 0.9797 0.9787 0.9777 0.9767 0.9760
2461.540167 0.9760 0.9759 0.9754 0.9747 0.9737
2467.252282 0.9725 0.9705 0.9690 0.9690 0.9686
2472.964398 0.9671 0.9658 0.9648 0.9634 0.9609
2478.676513 0.9583 0.9553 0.9526 0.9511 0.9500
2484.388628 0.9500 0.9500 0.9500 0.9500 0.9500
2490.100744 0.9500 0.9500 0.9501 0.9506 0.9510
2495.812859 0.9510 0.9512 0.9522 0.9532 0.9542
2501.524974 0.9554 0.9574 0.9593 0.9608 0.9622
2507.237090 0.9632 0.9640 0.9640 0.9640 0.9640
2512.949205 0.9640 0.9640 0.9640 0.9640 0.9640
2518.661320 0.9640 0.9640 0.9640 0.9640 0.9640
2524.373436 0.9640 0.9640 0.9638 0.9628 0.9618
2530.085551 0.9608 0.9599 0.9594 0.9589 0.9579
2535.797666 0.9569 0.9559 0.9547 0.9527 0.9507
2541.509782 0.9482 0.9457 0.9432 0.9409 0.9399
2547.221897 0.9387 0.9362 0.9340 0.9340 0.9340
2552.934012 0.9340 0.9340 0.9340 0.9340 0.9340
2558.646128 0.9344 0.9379 0.9413 0.9437 0.9460
2564.358243 0.9460 0.9461 0.9471 0.9482 0.9507
2570.070358 0.9532 0.9552 0.9571 0.9581 0.9591
2575.782473 0.9606 0.9621 0.9631 0.9642 0.9667
2581.494589 0.9691 0.9701 0.9711 0.9721 0.9730
2587.206704 0.9730 0.9730 0.9730 0.9730 0.9730
2592.918819 0.9730 0.9730 0.9730 0.9730 0.9729
2598.630935 0.9709 0.9689 0.9674 0.9659 0.9639
2604.343050 0.9620 0.9620 0.9620 0.9630 0.9640
2610.055165 0.9650 0.9660 0.9665 0.9670 0.9670
2615.767281 0.9670 0.9670 0.9670 0.9680 0.9690
2621.479396 0.9690 0.9690 0.9700 0.9710 0.9700
2627.191511 0.9690 0.9690 0.9690 0.9690 0.9690
2632.903627 0.9690 0.9690 0.9690 0.9690 0.9680
2638.615742 0.9670 0.9665 0.9660 0.9650 0.9640
2644.327857 0.9630 0.9620 0.9605 0.9590 0.9571
2650.039973 0.9551 0.9531 0.9511 0.9496 0.9481
2655.752088 0.9456 0.9431 0.9369 0.9304 0.9193
2661.464203 0.9078 0.8962 0.8846 0.8831 0.8821
2667.176318 0.8829 0.8839 0.8891 0.8946 0.8987
2672.888434 0.9027 0.9122 0.9222 0.9322 0.9421
2678.600549 0.9517 0.9611 0.9643 0.9668 0.9688
2684.312664 0.9708 0.9710 0.9710 0.9719 0.9729
2690.024780 0.9739 0.9749 0.9750 0.9750 0.9754
2695.736895 0.9759 0.9760 0.9760 0.9760 0.9760
2701.449010 0.9769 0.9779 0.9780 0.9780 0.9771
2707.161126 0.9761 0.9756 0.9751 0.9741 0.9731
2712.873241 0.9730 0.9730 0.9730 0.9730 0.9730
2718.585356 0.9730 0.9721 0.9712 0.9710 0.9710
2724.297472 0.9710 0.9710 0.9710 0.9710 0.9718
2730.009587 0.9728 0.9730 0.9730 0.9738 0.9748
2735.721702 0.9750 0.9750 0.9750 0.9750 0.9754
2741.433818 0.9759 0.9760 0.9760 0.9768 0.9778
2747.145933 0.9780 0.9780 0.9780 0.9780 0.9780
2752.858048 0.9780 0.9780 0.9780 0.9780 0.9780
2758.570164 0.9780 0.9780 0.9780 0.9780 0.9780
2764.282279 0.9780 0.9780 0.9780 0.9780 0.9780
2769.994394 0.9772 0.9762 0.9760 0.9760 0.9760
2775.706509 0.9760 0.9749 0.9734 0.9730 0.9730
2781.418625 0.9738 0.9748 0.9750 0.9750 0.9750
2787.130740 0.9750 0.9743 0.9733 0.9730 0.9730
2792.842855 0.9730 0.9730 0.9716 0.9696 0.9683
2798.554971 0.9673 0.9666 0.9661 0.9660 0.9660
2804.267086 0.9653 0.9643 0.9640 0.9640 0.9615
2809.979201 0.9580 0.9563 0.9553 0.9550 0.9550
2815.691317 0.9550 0.9550 0.9536 0.9516 0.9493
2821.403432 0.9468 0.9450 0.9435 0.9423 0.9413
2827.115547 0.9372 0.9317 0.9245 0.9166 0.9116
2832.827663 0.9081 0.9033 0.8978 0.8920 0.8860
2838.539778 0.8735 0.8575 0.8364 0.8124 0.7791
2844.251893 0.7408 0.7001 0.6582 0.6147 0.5703
2849.964009 0.5263 0.4824 0.4395 0.3971 0.3810
2855.676124 0.3795 0.3793 0.3798 0.4387 0.5319
2861.388239 0.6112 0.6819 0.7509 0.8187 0.8453
2867.100354 0.8458 0.8460 0.8460 0.8460 0.8460
2872.812470 0.8460 0.8460 0.8460 0.8460 0.8436
2878.524585 0.8396 0.8368 0.8348 0.8340 0.8340
2884.236700 0.8340 0.8340 0.8334 0.8324 0.8274
2889.948816 0.8194 0.8100 0.7994 0.7903 0.7823
2895.660931 0.7764 0.7719 0.7668 0.7614 0.7525
2901.373046 0.7410 0.7301 0.7196 0.7150 0.7150
2907.085162 0.7150 0.7150 0.7155 0.7165 0.7183
2912.797277 0.7208 0.7239 0.7274 0.7304 0.7329
2918.509392 0.7359 0.7394 0.7426 0.7456 0.7499
2924.221508 0.7554 0.7580 0.7580 0.7580 0.7580
2929.933623 0.7570 0.7550 0.7505 0.7435 0.7377
2935.645738 0.7333 0.7074 0.6600 0.6331 0.6257
2941.357854 0.6190 0.6130 0.5922 0.5568 0.5234
2947.069969 0.4920 0.4613 0.4314 0.3824 0.3131
2952.782084 0.2574 0.2166 0.1569 0.0761 0.0323
2958.494199 0.0308 0.0305 0.0315 0.0464 0.0763
2964.206315 0.1022 0.1236 0.1448 0.1657 0.2110
2969.918430 0.2848 0.3566 0.4258 0.4880 0.5413
2975.630545 0.5792 0.5976 0.6084 0.6094 0.6100
2981.342661 0.6100 0.6091 0.6071 0.5985 0.5815
2987.054776 0.5639 0.5455 0.5270 0.5086 0.4899
2992.766891 0.4710 0.4523 0.4338 0.4154 0.3969
2998.479007 0.3783 0.3594 0.3406 0.3222 0.3106
3004.191122 0.3096 0.3094 0.3104 0.3114 0.3124
3009.903237 0.3190 0.3340 0.3489 0.3639 0.3788
3015.615353 0.3938 0.4089 0.4244 0.4389 0.4518
3021.327468 0.4604 0.4614 0.4611 0.4586 0.4558
3027.039583 0.4523 0.4496 0.4486 0.4480 0.4480
3032.751699 0.4484 0.4494 0.4518 0.4568 0.4619
3038.463814 0.4674 0.4729 0.4784 0.4867 0.5007
3044.175929 0.5298 0.5891 0.6368 0.6608 0.6802
3049.888045 0.6902 0.7007 0.7123 0.7260 0.7440
3055.600160 0.7642 0.7891 0.8099 0.8218 0.8332
3061.312275 0.8431 0.8511 0.8546 0.8584 0.8628
3067.024390 0.8667 0.8692 0.8732 0.8807 0.8867
3072.736506 0.8892 0.8913 0.8923 0.8934 0.8949
3078.448621 0.8979 0.9044 0.9093 0.9103 0.9111
3084.160736 0.9116 0.9123 0.9133 0.9140 0.9140
3089.872852 0.9145 0.9165 0.9189 0.9224 0.9254
3095.584967 0.9269 0.9282 0.9293 0.9305 0.9325
3101.297082 0.9341 0.9346 0.9353 0.9362 0.9372
3107.009198 0.9382 0.9390 0.9390 0.9395 0.9415
3112.721313 0.9430 0.9430 0.9433 0.9448 0.9467
3118.433428 0.9502 0.9532 0.9542 0.9552 0.9562
3124.145544 0.9572 0.9582 0.9590 0.9590 0.9593
3129.857659 0.9608 0.9622 0.9632 0.9640 0.9640
3135.569774 0.9642 0.9652 0.9660 0.9660 0.9660
3141.281890 0.9660 0.9660 0.9660 0.9663 0.9678
3146.994005 0.9690 0.9690 0.9692 0.9702 0.9712
3152.706120 0.9722 0.9732 0.9742 0.9750 0.9750
3158.418235 0.9750 0.9750 0.9750 0.9750 0.9750
3164.130351 0.9750 0.9751 0.9756 0.9760 0.9760
3169.842466 0.9759 0.9754 0.9749 0.9739 0.9730
3175.554581 0.9730 0.9729 0.9719 0.9710 0.9710
3181.266697 0.9710 0.9710 0.9710 0.9710 0.9710
3186.978812 0.9710 0.9711 0.9721 0.9731 0.9741
3192.690927 0.9750 0.9750 0.9751 0.9756 0.9762
3198.403043 0.9782 0.9800 0.9800 0.9800 0.9800
3204.115158 0.9800 0.9800 0.9801 0.9811 0.9820
3209.827273 0.9825 0.9831 0.9851 0.9871 0.9881
3215.539389 0.9890 0.9890 0.9890 0.9890 0.9889
3221.251504 0.9879 0.9870 0.9870 0.9870 0.9870
3226.963619 0.9870 0.9870 0.9870 0.9870 0.9870
3232.675735 0.9870 0.9870 0.9880 0.9890 0.9900
3238.387850 0.9910 0.9910 0.9910 0.9915 0.9920
3244.099965 0.9920 0.9920 0.9920 0.9920 0.9930
3249.812081 0.9940 0.9940 0.9940 0.9950 0.9960
3255.524196 0.9960 0.9960 0.9970 0.9980 0.9980
3261.236311 0.9980 0.9990 1.0000 1.0000 1.0000
3266.948426 1.0000 1.0000 1.0000 1.0000 1.0000
3272.660542 1.0000 1.0000 1.0000 1.0000 1.0000
3278.372657 1.0000 1.0000 1.0000 1.0000 1.0000
3284.084772 1.0000 1.0000 1.0000 1.0000 1.0000
3289.796888 1.0000 1.0000 1.0000 1.0000 1.0000
3295.509003 1.0000 1.0000 1.0000 1.0000 1.0000
3301.221118 1.0000 1.0000 1.0000 1.0000 1.0000
3306.933234 1.0000 1.0000 1.0000 1.0000 1.0000
3312.645349 1.0000 1.0000 1.0000 1.0000 1.0000
3318.357464 1.0000 1.0000 1.0000 1.0000 1.0000
3324.069580 1.0000 1.0000 1.0000 1.0000 1.0000
3329.781695 1.0000 0.9991 0.9981 0.9980 0.9980
3335.493810 0.9980 0.9980 0.9980 0.9980 0.9980
3341.205926 0.9980 0.9980 0.9980 0.9971 0.9961
3346.918041 0.9960 0.9960 0.9960 0.9960 0.9960
3352.630156 0.9960 0.9960 0.9960 0.9960 0.9960
3358.342271 0.9960 0.9960 0.9960 0.9960 0.9960
3364.054387 0.9960 0.9960 0.9960 0.9960 0.9960
3369.766502 0.9960 0.9960 0.9960 0.9960 0.9952
3375.478617 0.9942 0.9940 0.9940 0.9932 0.9922
3381.190733 0.9916 0.9911 0.9910 0.9910 0.9910
3386.902848 0.9910 0.9902 0.9892 0.9890 0.9890
3392.614963 0.9890 0.9890 0.9890 0.9890 0.9898
3398.327079 0.9908 0.9910 0.9910 0.9910 0.9910
3404.039194 0.9910 0.9910 0.9910 0.9910 0.9910
3409.751309 0.9910 0.9902 0.9893 0.9890 0.9890
3415.463425 0.9890 0.9890 0.9897 0.9908 0.9910
3421.175540 0.9910 0.9910 0.9910 0.9914 0.9919
3426.887655 0.9920 0.9920 0.9920 0.9920 0.9927
3432.599771 0.9937 0.9940 0.9940 0.9940 0.9940
3438.311886 0.9940 0.9940 0.9933 0.9923 0.9920
3444.024001 0.9920 0.9920 0.9920 0.9916 0.9911
3449.736117 0.9903 0.9893 0.9883 0.9873 0.9863
3455.448232 0.9853 0.9850 0.9850 0.9840 0.9825
3461.160347 0.9813 0.9803 0.9793 0.9783 0.9780
3466.872462 0.9780 0.9773 0.9763 0.9727 0.9677
3472.584578 0.9640 0.9610 0.9597 0.9592 0.9584
3478.296693 0.9574 0.9541 0.9496 0.9467 0.9447
3484.008808 0.9437 0.9432 0.9402 0.9356 0.9298
3489.720924 0.9233 0.9200 0.9185 0.9167 0.9147
3495.433039 0.9146 0.9156 0.9194 0.9249 0.9291
3501.145154 0.9326 0.9349 0.9364 0.9382 0.9402
3506.857270 0.9416 0.9426 0.9451 0.9486 0.9521
3512.569385 0.9556 0.9597 0.9642 0.9675 0.9700
3518.281500 0.9716 0.9726 0.9750 0.9785 0.9800
3523.993616 0.9800 0.9806 0.9816 0.9823 0.9828
3529.705731 0.9827 0.9822 0.9820 0.9820 0.9820
3535.417846 0.9820 0.9820 0.9820 0.9820 0.9820
3541.129962 0.9820 0.9820 0.9820 0.9820 0.9820
3546.842077 0.9820 0.9815 0.9805 0.9800 0.9800
3552.554192 0.9800 0.9800 0.9800 0.9800 0.9800
3558.266307 0.9800 0.9800 0.9800 0.9800 0.9800
3563.978423 0.9800 0.9800 0.9800 0.9800 0.9800
3569.690538 0.9800 0.9800 0.9800 0.9800 0.9800
3575.402653 0.9805 0.9815 0.9820 0.9820 0.9820
3581.114769 0.9820 0.9822 0.9827 0.9835 0.9845
3586.826884 0.9850 0.9850 0.9850 0.9850 0.9855
3592.538999 0.9865 0.9870 0.9870 0.9870 0.9870
3598.251115 0.9870 0.9870 0.9875 0.9885 0.9890
3603.963230 0.9890 0.9895 0.9905 0.9905 0.9896
3609.675345 0.9890 0.9890 0.9890 0.9890 0.9890
3615.387461 0.9890 0.9890 0.9890 0.9890 0.9890
3621.099576 0.9886 0.9876 0.9870 0.9870 0.9861
3626.811691 0.9842 0.9834 0.9844 0.9850 0.9850
3632.523807 0.9850 0.9850 0.9850 0.9850 0.9854
3638.235922 0.9864 0.9870 0.9870 0.9870 0.9870
3643.948037 0.9870 0.9870 0.9870 0.9870 0.9866
3649.660153 0.9856 0.9850 0.9850 0.9850 0.9850
3655.372268 0.9854 0.9864 0.9870 0.9870 0.9874
3661.084383 0.9884 0.9890 0.9890 0.9890 0.9890
3666.796498 0.9890 0.9890 0.9887 0.9876 0.9870
3672.508614 0.9870 0.9867 0.9857 0.9850 0.9850
3678.220729 0.9847 0.9837 0.9830 0.9830 0.9825
3683.932844 0.9810 0.9803 0.9813 0.9820 0.9820
3689.644960 0.9820 0.9820 0.9820 0.9820 0.9820
3695.357075 0.9820 0.9822 0.9827 0.9833 0.9843
3701.069190 0.9853 0.9863 0.9873 0.9883 0.9893
3706.781306 0.9903 0.9911 0.9916 0.9923 0.9933
3712.493421 0.9943 0.9953 0.9963 0.9973 0.9980
3718.205536 0.9980 0.9980 0.9980 0.9980 0.9980
3723.917652 0.9980 0.9980 0.9980 0.9980 0.9980
3729.629767 0.9980 0.9980 0.9980 0.9980 0.9980
3735.341882 0.9980 0.9980 0.9982 0.9992 1.0000
3741.053998 1.0000 1.0000 1.0000 1.0000 1.0000
3746.766113 1.0000 1.0000 1.0000 1.0000 1.0000
3752.478228 1.0000 1.0000 1.0000 1.0000 1.0000
3758.190343 1.0001 1.0006 1.0010 1.0010 1.0010
3763.902459 1.0010 1.0010 1.0010 1.0010 1.0010
3769.614574 1.0010 1.0010 1.0010 1.0010 1.0012
3775.326689 1.0022 1.0030 1.0030 1.0030 1.0030
3781.038805 1.0030 1.0030 1.0030 1.0030 1.0030
3786.750920 1.0030 1.0030 1.0030 1.0032 1.0042
3792.463035 1.0050 1.0050
##END=
