##TITLE=N-NITROSODIMETHYLAMINE
##JCAMP-DX=4.24
##DATA TYPE=INFRARED SPECTRUM
##CLASS=COBLENTZ
##ORIGIN=DOW CORNING CORP.
##OWNER=COBLENTZ SOCIETY
Collection (C) 2018 copyright by the U.S. Secretary of Commerce
on behalf of the United States of America. All rights reserved.
##DATE=Not specified, most likely prior to 1970
##NAMES=1,1-dimethyl-2-oxohydrazine
##CAS REGISTRY NO=62-75-9
##MOLFORM=C2 H6 N2 O
##SOURCE REFERENCE=COBLENTZ NO. 4837
##$NIST SOURCE=COBLENTZ
##$NIST IMAGE=cob4837
##SPECTROMETER/DATA SYSTEM=PERKIN-ELMER 521 (GRATING)
##INSTRUMENT PARAMETERS=FILTERS AT 3150, 2500, 2000, 1150, 700, 410; GRATING CHANGES AT 2000, 630 CM^-^1
##STATE=SOLUTION (11% IN CCl4 FOR 3800-1300, 2% IN CS2 FOR 1300-650, 11% IN CCl4 FOR 650-250 CM^-^1) VERSUS SOLVENT
##PATH LENGTH=0.011, 0.011, AND 0.011 CM (CsBr CELL)
##SAMPLING PROCEDURE=TRANSMISSION
##RESOLUTION=4
##DATA PROCESSING=DIGITIZED BY NIST FROM HARD COPY (FROM TWO SEGMENTS)
##XUNITS=1/CM
##YUNITS=TRANSMITTANCE
##XFACTOR=1.000000
##YFACTOR=1
##DELTAX=0.983607
##FIRSTX=246.23
##LASTX=3788.2
##FIRSTY=0.636
##MAXX=3788.2
##MINX=246.23
##MAXY=0.923
##MINY=0
##NPOINTS=3602
##XYDATA=(X++(Y..Y))
246.230000 0.6360 0.6370 0.6360 0.6370 0.6380
251.148036 0.6400 0.6410 0.6420 0.6420 0.6440
256.066071 0.6450 0.6460 0.6460 0.6480 0.6480
260.984107 0.6480 0.6450 0.6450 0.6450 0.6460
265.902142 0.6460 0.6460 0.6460 0.6450 0.6450
270.820178 0.6460 0.6480 0.6480 0.6490 0.6490
275.738213 0.6480 0.6480 0.6480 0.6460 0.6460
280.656249 0.6450 0.6450 0.6450 0.6440 0.6440
285.574284 0.6420 0.6420 0.6440 0.6480 0.6510
290.492320 0.6560 0.6610 0.6690 0.6760 0.6810
295.410355 0.6870 0.6920 0.6970 0.7030 0.7080
300.328391 0.7140 0.7200 0.7230 0.7240 0.7260
305.246427 0.7260 0.7240 0.7240 0.7230 0.7230
310.164462 0.7220 0.7220 0.7220 0.7220 0.7230
315.082498 0.7260 0.7280 0.7280 0.7300 0.7340
320.000533 0.7350 0.7360 0.7380 0.7380 0.7380
324.918569 0.7390 0.7390 0.7390 0.7390 0.7380
329.836604 0.7360 0.7350 0.7340 0.7310 0.7300
334.754640 0.7280 0.7270 0.7240 0.7160 0.7110
339.672675 0.7070 0.7040 0.7020 0.6990 0.6960
344.590711 0.6920 0.6870 0.6810 0.6720 0.6630
349.508746 0.6570 0.6510 0.6400 0.6370 0.6251
354.426782 0.6200 0.6170 0.6130 0.6100 0.6090
359.344818 0.6100 0.6130 0.6180 0.6220 0.6280
364.262853 0.6360 0.6440 0.6520 0.6570 0.6690
369.180889 0.6770 0.6830 0.6880 0.6920 0.6950
374.098924 0.6960 0.6990 0.7000 0.7000 0.7000
379.016960 0.7000 0.7000 0.6990 0.6990 0.6970
383.934995 0.6960 0.6930 0.6880 0.6830 0.6750
388.853031 0.6670 0.6590 0.6480 0.6380 0.6280
393.771066 0.6130 0.5910 0.5460 0.5270 0.5150
398.689102 0.5030 0.4671 0.4640 0.4670 0.4799
403.607137 0.4930 0.5070 0.5200 0.5320 0.5470
408.525173 0.5620 0.6019 0.6289 0.6479 0.6599
413.443209 0.6720 0.6870 0.7000 0.7110 0.7190
418.361244 0.7270 0.7320 0.7380 0.7420 0.7440
423.279280 0.7470 0.7500 0.7510 0.7530 0.7540
428.197315 0.7540 0.7550 0.7550 0.7540 0.7540
433.115351 0.7530 0.7510 0.7500 0.7480 0.7480
438.033386 0.7470 0.7460 0.7460 0.7440 0.7440
442.951422 0.7440 0.7440 0.7440 0.7440 0.7440
447.869457 0.7440 0.7440 0.7440 0.7430 0.7420
452.787493 0.7420 0.7400 0.7400 0.7380 0.7340
457.705528 0.7280 0.7280 0.7270 0.7270 0.7280
462.623564 0.7350 0.7390 0.7460 0.7500 0.7530
467.541600 0.7550 0.7570 0.7580 0.7580 0.7580
472.459635 0.7580 0.7570 0.7570 0.7550 0.7550
477.377671 0.7540 0.7540 0.7530 0.7530 0.7530
482.295706 0.7530 0.7510 0.7510 0.7530 0.7530
487.213742 0.7540 0.7550 0.7550 0.7580 0.7580
492.131777 0.7590 0.7610 0.7610 0.7620 0.7650
497.049813 0.7660 0.7670 0.7690 0.7700 0.7710
501.967848 0.7730 0.7730 0.7740 0.7740 0.7740
506.885884 0.7740 0.7740 0.7750 0.7750 0.7770
511.803919 0.7770 0.7780 0.7770 0.7780 0.7790
516.721955 0.7810 0.7820 0.7830 0.7850 0.7860
521.639991 0.7870 0.7890 0.7890 0.7900 0.7910
526.558026 0.7910 0.7910 0.7910 0.7910 0.7900
531.476062 0.7900 0.7900 0.7900 0.7900 0.7900
536.394097 0.7900 0.7900 0.7910 0.7910 0.7910
541.312133 0.7940 0.7950 0.7950 0.7970 0.7970
546.230168 0.7970 0.7970 0.7970 0.7970 0.7970
551.148204 0.7970 0.7970 0.7970 0.7970 0.7980
556.066239 0.7980 0.7980 0.7980 0.7980 0.7980
560.984275 0.7980 0.7980 0.7980 0.7980 0.8000
565.902310 0.8000 0.8000 0.8000 0.8010 0.8010
570.820346 0.8010 0.8010 0.8010 0.8010 0.8010
575.738382 0.8010 0.8010 0.8010 0.8010 0.8010
580.656417 0.8000 0.8000 0.8000 0.7980 0.7980
585.574453 0.7970 0.7970 0.7950 0.7940 0.7930
590.492488 0.7930 0.7910 0.7910 0.7900 0.7890
595.410524 0.7890 0.7870 0.7870 0.7860 0.7850
600.328559 0.7830 0.7810 0.7790 0.7780 0.7770
605.246595 0.7770 0.7750 0.7750 0.7740 0.7730
610.164630 0.7730 0.7730 0.7740 0.7740 0.7740
615.082666 0.7750 0.7750 0.7770 0.7780 0.7790
620.000701 0.7810 0.7820 0.7820 0.7830 0.7850
624.918737 0.7850 0.7860 0.7870 0.7890 0.7900
629.836773 0.7900 0.7910 0.7930 0.7940 0.7950
634.754808 0.7970 0.7970 0.8000 0.8020 0.8050
639.672844 0.8090 0.8120 0.8140 0.8180 0.8210
644.590879 0.8240 0.8280 0.8300 0.8340 0.8370
649.508915 0.8400 0.8440 0.8460 0.8490 0.8530
654.426950 0.8550 0.8560 0.8590 0.8610 0.8640
659.344986 0.8640 0.8670 0.8710 0.8720 0.8730
664.263021 0.8750 0.8750 0.8750 0.8760 0.8770
669.181057 0.8770 0.8770 0.8760 0.8750 0.8730
674.099092 0.8690 0.8680 0.8650 0.8401 0.8221
679.017128 0.8020 0.7810 0.7610 0.7400 0.7220
683.935164 0.7220 0.7869 0.7870 0.8049 0.8209
688.853199 0.8360 0.8710 0.8770 0.8810 0.8870
693.771235 0.8890 0.8930 0.8970 0.8990 0.9000
698.689270 0.9030 0.9030 0.9040 0.9070 0.9080
703.607306 0.9100 0.9100 0.9100 0.9100 0.9120
708.525341 0.9120 0.9120 0.9120 0.9120 0.9140
713.443377 0.9140 0.9140 0.9140 0.9140 0.9140
718.361412 0.9140 0.9140 0.9140 0.9120 0.9120
723.279448 0.9120 0.9120 0.9140 0.9150 0.9150
728.197483 0.9150 0.9160 0.9180 0.9180 0.9180
733.115519 0.9190 0.9190 0.9190 0.9190 0.9190
738.033555 0.9190 0.9200 0.9200 0.9190 0.9190
742.951590 0.9180 0.9180 0.9180 0.9190 0.9190
747.869626 0.9190 0.9190 0.9190 0.9190 0.9190
752.787661 0.9190 0.9190 0.9200 0.9200 0.9200
757.705697 0.9200 0.9200 0.9190 0.9190 0.9190
762.623732 0.9190 0.9190 0.9190 0.9190 0.9190
767.541768 0.9190 0.9190 0.9190 0.9200 0.9200
772.459803 0.9200 0.9200 0.9220 0.9220 0.9220
777.377839 0.9220 0.9220 0.9220 0.9220 0.9220
782.295874 0.9220 0.9220 0.9220 0.9220 0.9220
787.213910 0.9200 0.9200 0.9200 0.9200 0.9200
792.131946 0.9200 0.9200 0.9200 0.9200 0.9200
797.049981 0.9220 0.9220 0.9220 0.9230 0.9230
801.968017 0.9230 0.9230 0.9230 0.9230 0.9230
806.886052 0.9220 0.9220 0.9220 0.9200 0.9200
811.804088 0.9190 0.9190 0.9180 0.9180 0.9160
816.722123 0.9160 0.9160 0.9160 0.9150 0.9150
821.640159 0.9150 0.9140 0.9140 0.9140 0.9120
826.558194 0.9120 0.9120 0.9110 0.9080 0.9080
831.476230 0.9030 0.8950 0.8930 0.8910 0.8810
836.394265 0.8750 0.8650 0.8530 0.8410 0.8240
841.312301 0.8010 0.7930 0.7531 0.7201 0.7200
846.230337 0.7500 0.7571 0.8250 0.8290 0.8670
851.148372 0.8690 0.8800 0.8810 0.8880 0.8910
856.066408 0.8920 0.8920 0.8930 0.8970 0.9000
860.984443 0.9040 0.9060 0.9070 0.9080 0.9080
865.902479 0.9080 0.9080 0.9080 0.9070 0.9080
870.820514 0.9100 0.9100 0.9110 0.9110 0.9120
875.738550 0.9140 0.9140 0.9150 0.9150 0.9150
880.656585 0.9150 0.9150 0.9150 0.9150 0.9160
885.574621 0.9180 0.9190 0.9190 0.9180 0.9190
890.492656 0.9190 0.9200 0.9200 0.9200 0.9190
895.410692 0.9160 0.9150 0.9150 0.9150 0.9180
900.328728 0.9180 0.9160 0.9160 0.9150 0.9140
905.246763 0.9140 0.9140 0.9140 0.9140 0.9140
910.164799 0.9140 0.9140 0.9140 0.9140 0.9140
915.082834 0.9140 0.9150 0.9160 0.9180 0.9180
920.000870 0.9190 0.9190 0.9180 0.9180 0.9160
924.918905 0.9150 0.9150 0.9150 0.9140 0.9120
929.836941 0.9110 0.9100 0.9100 0.9080 0.9070
934.754976 0.9070 0.9060 0.9060 0.9040 0.9030
939.673012 0.9030 0.9020 0.9020 0.9000 0.9000
944.591047 0.8990 0.8970 0.8970 0.8970 0.8960
949.509083 0.8960 0.8950 0.8930 0.8910 0.8910
954.427119 0.8890 0.8890 0.8880 0.8880 0.8870
959.345154 0.8850 0.8840 0.8840 0.8830 0.8810
964.263190 0.8800 0.8770 0.8760 0.8720 0.8690
969.181225 0.8670 0.8650 0.8630 0.8600 0.8570
974.099261 0.8550 0.8530 0.8510 0.8480 0.8440
979.017296 0.8380 0.8340 0.8300 0.8290 0.8260
983.935332 0.8250 0.8220 0.8160 0.8130 0.8060
988.853367 0.8010 0.7940 0.7900 0.7850 0.7810
993.771403 0.7730 0.7630 0.7580 0.7480 0.7390
998.689438 0.7310 0.7190 0.7080 0.6951 0.6841
1003.607474 0.6730 0.6690 0.6570 0.6440 0.6280
1008.525510 0.6170 0.6100 0.5432 0.5360 0.5231
1013.443545 0.5070 0.4890 0.4690 0.4480 0.4280
1018.361581 0.4090 0.3901 0.3571 0.3271 0.3041
1023.279616 0.2840 0.2670 0.2530 0.2420 0.2330
1028.197652 0.2250 0.2220 0.2210 0.2210 0.2240
1033.115687 0.2280 0.2340 0.2520 0.2650 0.2790
1038.033723 0.2930 0.3139 0.3379 0.3888 0.4298
1042.951758 0.4640 0.4950 0.5230 0.5380 0.5510
1047.869794 0.5819 0.6169 0.6569 0.6809 0.6969
1052.787829 0.7100 0.7200 0.7480 0.7650 0.7750
1057.705865 0.7810 0.7860 0.7910 0.8000 0.8080
1062.623901 0.8140 0.8210 0.8260 0.8320 0.8370
1067.541936 0.8400 0.8440 0.8450 0.8460 0.8480
1072.459972 0.8490 0.8510 0.8520 0.8550 0.8570
1077.378007 0.8590 0.8630 0.8650 0.8690 0.8720
1082.296043 0.8730 0.8760 0.8800 0.8810 0.8830
1087.214078 0.8840 0.8850 0.8870 0.8890 0.8910
1092.132114 0.8920 0.8920 0.8930 0.8950 0.8950
1097.050149 0.8960 0.8960 0.8970 0.8970 0.8970
1101.968185 0.8970 0.8960 0.8960 0.8950 0.8950
1106.886220 0.8930 0.8920 0.8920 0.8930 0.8950
1111.804256 0.8970 0.8970 0.8990 0.9000 0.9020
1116.722292 0.9030 0.9040 0.9060 0.9060 0.9070
1121.640327 0.9070 0.9070 0.9070 0.9080 0.9080
1126.558363 0.9080 0.9080 0.9080 0.9080 0.9080
1131.476398 0.9080 0.9080 0.9080 0.9080 0.9080
1136.394434 0.9080 0.9080 0.9080 0.9100 0.9100
1141.312469 0.9110 0.9110 0.9120 0.9120 0.9140
1146.230505 0.9140 0.9140 0.9150 0.9150 0.9140
1151.148540 0.9120 0.9110 0.9110 0.9100 0.9080
1156.066576 0.9080 0.9080 0.9080 0.9080 0.9080
1160.984611 0.9080 0.9080 0.9070 0.9070 0.9060
1165.902647 0.9060 0.9030 0.9020 0.9000 0.9000
1170.820683 0.9000 0.8990 0.8990 0.8970 0.8970
1175.738718 0.8970 0.8960 0.8960 0.8960 0.8950
1180.656754 0.8930 0.8920 0.8910 0.8880 0.8870
1185.574789 0.8850 0.8840 0.8840 0.8840 0.8830
1190.492825 0.8810 0.8800 0.8790 0.8770 0.8760
1195.410860 0.8750 0.8730 0.8710 0.8710 0.8710
1200.328896 0.8690 0.8690 0.8680 0.8680 0.8680
1205.246931 0.8670 0.8670 0.8670 0.8650 0.8650
1210.164967 0.8640 0.8640 0.8630 0.8630 0.8610
1215.083002 0.8600 0.8590 0.8560 0.8560 0.8550
1220.001038 0.8550 0.8520 0.8520 0.8510 0.8480
1224.919074 0.8450 0.8360 0.8330 0.8300 0.8280
1229.837109 0.8250 0.8220 0.8210 0.8200 0.8180
1234.755145 0.8160 0.8120 0.8080 0.8050 0.8040
1239.673180 0.8000 0.8000 0.7970 0.7970 0.7950
1244.591216 0.7950 0.7940 0.7890 0.7860 0.7850
1249.509251 0.7810 0.7710 0.7620 0.7570 0.7510
1254.427287 0.7440 0.7400 0.7350 0.7320 0.7280
1259.345322 0.7240 0.7200 0.7100 0.6990 0.6910
1264.263358 0.6810 0.6650 0.6550 0.6420 0.6290
1269.181393 0.6200 0.5970 0.5400 0.5200 0.5040
1274.099429 0.4890 0.4720 0.4521 0.4360 0.4051
1279.017465 0.3579 0.3060 0.2960 0.2840 0.2720
1283.935500 0.2600 0.2480 0.2360 0.2240 0.2120
1288.853536 0.2000 0.1870 0.1750 0.1630 0.1510
1293.771571 0.1390 0.1270 0.1150 0.0911 0.0791
1298.689607 0.0670 0.0550 0.0420 0.0300 0.0180
1303.607642 0.0160 0.0120 0.0120 0.0090 0.0090
1308.525678 0.0080 0.0080 0.0080 0.0080 0.0090
1313.443713 0.0100 0.0120 0.0130 0.0160 0.0220
1318.361749 0.0260 0.0290 0.0340 0.0370 0.0630
1323.279784 0.0840 0.0950 0.1040 0.1299 0.1549
1328.197820 0.1890 0.2240 0.2550 0.2800 0.3030
1333.115856 0.3230 0.3420 0.3570 0.3729 0.3859
1338.033891 0.4000 0.4120 0.4220 0.4360 0.4450
1342.951927 0.4520 0.4590 0.4640 0.4680 0.4730
1347.869962 0.4790 0.4850 0.4870 0.4870 0.4840
1352.787998 0.4810 0.4770 0.4730 0.4710 0.4670
1357.706033 0.4630 0.4570 0.4490 0.4360 0.4320
1362.624069 0.4320 0.4340 0.4370 0.4490 0.4570
1367.542104 0.4630 0.4640 0.4640 0.4610 0.4590
1372.460140 0.4590 0.4570 0.4560 0.4510 0.4400
1377.378175 0.4320 0.4250 0.4140 0.3980 0.3710
1382.296211 0.3610 0.3480 0.3320 0.3121 0.2931
1387.214247 0.2770 0.2600 0.2440 0.2250 0.2180
1392.132282 0.2180 0.2250 0.2300 0.2320 0.2320
1397.050318 0.2300 0.2260 0.2130 0.1890 0.1670
1401.968353 0.1350 0.0681 0.0441 0.0300 0.0240
1406.886389 0.0130 0.0100 0.0120 0.0210 0.0300
1411.804424 0.0400 0.0490 0.0630 0.0839 0.0999
1416.722460 0.1161 0.1590 0.2000 0.2050 0.2080
1421.640495 0.2080 0.2060 0.2040 0.2000 0.1900
1426.558531 0.1810 0.1700 0.1620 0.1540 0.1240
1431.476567 0.0811 0.0650 0.0520 0.0410 0.0320
1436.394602 0.0220 0.0120 0.0000 0.0000 0.0000
1441.312638 0.0000 0.0000 0.0000 0.0000 0.0000
1446.230673 0.0000 0.0000 0.0000 0.0000 0.0000
1451.148709 0.0000 0.0000 0.0000 0.0000 0.0000
1456.066744 0.0000 0.0000 0.0000 0.0000 0.0000
1460.984780 0.0000 0.0010 0.0080 0.0090 0.0140
1465.902815 0.0180 0.0240 0.0240 0.0280 0.0370
1470.820851 0.0450 0.0520 0.0520 0.0560 0.0600
1475.738886 0.0650 0.0690 0.0730 0.0790 0.0930
1480.656922 0.1070 0.1319 0.1549 0.1779 0.1999
1485.574958 0.2200 0.2400 0.2600 0.2790 0.2990
1490.492993 0.3200 0.3419 0.3629 0.3770 0.3890
1495.411029 0.4040 0.4170 0.4290 0.4410 0.4530
1500.329064 0.4640 0.4730 0.4830 0.4910 0.4990
1505.247100 0.5060 0.5120 0.5180 0.5230 0.5270
1510.165135 0.5300 0.5340 0.5360 0.5380 0.5420
1515.083171 0.5470 0.5480 0.5500 0.5540 0.5580
1520.001206 0.5620 0.5670 0.5730 0.5780 0.5820
1524.919242 0.5860 0.5900 0.5940 0.6090 0.6200
1529.837277 0.6380 0.6590 0.6690 0.6800 0.6870
1534.755313 0.7000 0.7160 0.7300 0.7380 0.7460
1539.673349 0.7540 0.7620 0.7670 0.7750 0.7790
1544.591384 0.7810 0.7850 0.7860 0.7860 0.7870
1549.509420 0.7870 0.7890 0.7890 0.7900 0.7900
1554.427455 0.7890 0.7890 0.7870 0.7870 0.7860
1559.345491 0.7860 0.7860 0.7850 0.7850 0.7830
1564.263526 0.7830 0.7850 0.7850 0.7850 0.7850
1569.181562 0.7860 0.7870 0.7870 0.7870 0.7870
1574.099597 0.7860 0.7860 0.7860 0.7850 0.7830
1579.017633 0.7820 0.7820 0.7810 0.7790 0.7780
1583.935668 0.7770 0.7770 0.7750 0.7740 0.7730
1588.853704 0.7710 0.7690 0.7660 0.7620 0.7590
1593.771740 0.7580 0.7570 0.7570 0.7550 0.7550
1598.689775 0.7540 0.7540 0.7530 0.7530 0.7510
1603.607811 0.7510 0.7500 0.7500 0.7500 0.7500
1608.525846 0.7510 0.7510 0.7530 0.7530 0.7530
1613.443882 0.7530 0.7540 0.7540 0.7540 0.7540
1618.361917 0.7550 0.7550 0.7570 0.7580 0.7590
1623.279953 0.7590 0.7610 0.7610 0.7620 0.7630
1628.197988 0.7630 0.7650 0.7660 0.7660 0.7670
1633.116024 0.7670 0.7690 0.7700 0.7700 0.7710
1638.034059 0.7710 0.7710 0.7730 0.7730 0.7740
1642.952095 0.7740 0.7750 0.7750 0.7750 0.7770
1647.870131 0.7770 0.7770 0.7770 0.7780 0.7780
1652.788166 0.7780 0.7790 0.7790 0.7790 0.7790
1657.706202 0.7790 0.7790 0.7790 0.7780 0.7770
1662.624237 0.7770 0.7750 0.7740 0.7740 0.7700
1667.542273 0.7650 0.7620 0.7580 0.7510 0.7440
1672.460308 0.7380 0.7310 0.7240 0.7190 0.7140
1677.378344 0.7070 0.7060 0.7060 0.7070 0.7070
1682.296379 0.7100 0.7120 0.7150 0.7190 0.7260
1687.214415 0.7350 0.7350 0.7400 0.7470 0.7570
1692.132450 0.7650 0.7660 0.7710 0.7770 0.7850
1697.050486 0.7910 0.7980 0.8000 0.8040 0.8050
1701.968522 0.8060 0.8080 0.8080 0.8090 0.8090
1706.886557 0.8100 0.8100 0.8100 0.8100 0.8120
1711.804593 0.8120 0.8130 0.8130 0.8130 0.8140
1716.722628 0.8140 0.8160 0.8170 0.8180 0.8180
1721.640664 0.8200 0.8200 0.8210 0.8250 0.8260
1726.558699 0.8260 0.8290 0.8300 0.8330 0.8340
1731.476735 0.8360 0.8360 0.8370 0.8380 0.8400
1736.394770 0.8420 0.8440 0.8490 0.8530 0.8550
1741.312806 0.8560 0.8590 0.8590 0.8600 0.8600
1746.230841 0.8610 0.8630 0.8640 0.8650 0.8680
1751.148877 0.8690 0.8690 0.8690 0.8710 0.8710
1756.066913 0.8710 0.8710 0.8710 0.8720 0.8720
1760.984948 0.8720 0.8720 0.8730 0.8730 0.8730
1765.902984 0.8730 0.8730 0.8730 0.8730 0.8730
1770.821019 0.8730 0.8730 0.8730 0.8730 0.8730
1775.739055 0.8730 0.8730 0.8730 0.8730 0.8750
1780.657090 0.8750 0.8750 0.8750 0.8750 0.8750
1785.575126 0.8750 0.8750 0.8750 0.8750 0.8750
1790.493161 0.8750 0.8750 0.8750 0.8750 0.8750
1795.411197 0.8750 0.8750 0.8750 0.8750 0.8750
1800.329232 0.8750 0.8750 0.8750 0.8750 0.8750
1805.247268 0.8750 0.8750 0.8760 0.8760 0.8760
1810.165304 0.8760 0.8760 0.8770 0.8770 0.8770
1815.083339 0.8790 0.8790 0.8790 0.8790 0.8790
1820.001375 0.8790 0.8790 0.8790 0.8790 0.8790
1824.919410 0.8800 0.8800 0.8790 0.8790 0.8790
1829.837446 0.8790 0.8790 0.8790 0.8800 0.8800
1834.755481 0.8800 0.8800 0.8800 0.8810 0.8810
1839.673517 0.8810 0.8810 0.8810 0.8810 0.8810
1844.591552 0.8810 0.8810 0.8800 0.8800 0.8800
1849.509588 0.8810 0.8810 0.8800 0.8800 0.8800
1854.427623 0.8800 0.8800 0.8790 0.8800 0.8790
1859.345659 0.8790 0.8790 0.8770 0.8760 0.8760
1864.263695 0.8750 0.8750 0.8750 0.8730 0.8730
1869.181730 0.8720 0.8720 0.8720 0.8720 0.8720
1874.099766 0.8720 0.8720 0.8720 0.8720 0.8720
1879.017801 0.8720 0.8730 0.8730 0.8730 0.8730
1883.935837 0.8730 0.8730 0.8730 0.8750 0.8750
1888.853872 0.8760 0.8760 0.8770 0.8790 0.8790
1893.771908 0.8800 0.8800 0.8800 0.8830 0.8830
1898.689943 0.8830 0.8840 0.8840 0.8840 0.8840
1903.607979 0.8840 0.8850 0.8870 0.8870 0.8870
1908.526014 0.8870 0.8870 0.8870 0.8870 0.8870
1913.444050 0.8870 0.8870 0.8870 0.8870 0.8870
1918.362086 0.8870 0.8870 0.8870 0.8870 0.8870
1923.280121 0.8870 0.8870 0.8870 0.8870 0.8870
1928.198157 0.8870 0.8870 0.8870 0.8870 0.8870
1933.116192 0.8850 0.8850 0.8850 0.8840 0.8840
1938.034228 0.8840 0.8840 0.8830 0.8830 0.8830
1942.952263 0.8830 0.8800 0.8800 0.8800 0.8800
1947.870299 0.8800 0.8810 0.8810 0.8810 0.8810
1952.788334 0.8810 0.8800 0.8800 0.8790 0.8770
1957.706370 0.8770 0.8750 0.8750 0.8750 0.8730
1962.624405 0.8720 0.8710 0.8710 0.8710 0.8690
1967.542441 0.8690 0.8690 0.8690 0.8690 0.8690
1972.460477 0.8710 0.8720 0.8730 0.8730 0.8720
1977.378512 0.8730 0.8750 0.8750 0.8750 0.8730
1982.296548 0.8720 0.8720 0.8720 0.8720 0.8720
1987.214583 0.8720 0.8720 0.8750 0.8750 0.8750
1992.132619 0.8730 0.8730 0.8730 0.8750 0.8760
1997.050654 0.8760 0.8790 0.8850 0.8880 0.8885
2001.968690 0.8890 0.8910 0.8930 0.8940 0.8950
2006.886725 0.8950 0.8950 0.8950 0.8950 0.8950
2011.804761 0.8950 0.8950 0.8950 0.8950 0.8950
2016.722796 0.8940 0.8930 0.8930 0.8930 0.8930
2021.640832 0.8930 0.8925 0.8920 0.8915 0.8910
2026.558868 0.8900 0.8890 0.8890 0.8890 0.8885
2031.476903 0.8880 0.8880 0.8880 0.8875 0.8870
2036.394939 0.8870 0.8870 0.8860 0.8850 0.8850
2041.312974 0.8850 0.8845 0.8840 0.8840 0.8840
2046.231010 0.8840 0.8840 0.8835 0.8830 0.8830
2051.149045 0.8830 0.8815 0.8800 0.8800 0.8800
2056.067081 0.8800 0.8800 0.8800 0.8800 0.8795
2060.985116 0.8790 0.8790 0.8790 0.8780 0.8770
2065.903152 0.8770 0.8770 0.8765 0.8760 0.8760
2070.821187 0.8760 0.8760 0.8760 0.8760 0.8760
2075.739223 0.8760 0.8760 0.8760 0.8760 0.8760
2080.657259 0.8760 0.8760 0.8760 0.8765 0.8770
2085.575294 0.8780 0.8790 0.8795 0.8800 0.8805
2090.493330 0.8810 0.8810 0.8810 0.8820 0.8830
2095.411365 0.8835 0.8840 0.8845 0.8850 0.8850
2100.329401 0.8850 0.8850 0.8850 0.8850 0.8850
2105.247436 0.8850 0.8850 0.8850 0.8850 0.8850
2110.165472 0.8850 0.8845 0.8840 0.8835 0.8830
2115.083507 0.8835 0.8840 0.8840 0.8840 0.8835
2120.001543 0.8830 0.8820 0.8810 0.8805 0.8800
2124.919578 0.8795 0.8790 0.8780 0.8770 0.8770
2129.837614 0.8770 0.8780 0.8790 0.8800 0.8810
2134.755650 0.8810 0.8810 0.8820 0.8830 0.8820
2139.673685 0.8810 0.8820 0.8830 0.8830 0.8830
2144.591721 0.8820 0.8810 0.8810 0.8810 0.8810
2149.509756 0.8810 0.8805 0.8800 0.8800 0.8800
2154.427792 0.8800 0.8800 0.8800 0.8800 0.8805
2159.345827 0.8810 0.8825 0.8840 0.8845 0.8850
2164.263863 0.8860 0.8870 0.8870 0.8870 0.8870
2169.181898 0.8870 0.8875 0.8880 0.8880 0.8880
2174.099934 0.8880 0.8880 0.8885 0.8890 0.8890
2179.017969 0.8890 0.8900 0.8910 0.8915 0.8920
2183.936005 0.8920 0.8920 0.8920 0.8920 0.8920
2188.854041 0.8920 0.8915 0.8910 0.8910 0.8910
2193.772076 0.8910 0.8910 0.8900 0.8890 0.8890
2198.690112 0.8890 0.8890 0.8890 0.8885 0.8880
2203.608147 0.8880 0.8880 0.8880 0.8880 0.8875
2208.526183 0.8870 0.8870 0.8870 0.8870 0.8870
2213.444218 0.8860 0.8850 0.8850 0.8850 0.8840
2218.362254 0.8830 0.8820 0.8810 0.8805 0.8800
2223.280289 0.8800 0.8800 0.8800 0.8800 0.8800
2228.198325 0.8800 0.8800 0.8800 0.8800 0.8800
2233.116360 0.8805 0.8810 0.8820 0.8830 0.8830
2238.034396 0.8830 0.8830 0.8830 0.8830 0.8830
2242.952432 0.8835 0.8840 0.8845 0.8850 0.8860
2247.870467 0.8870 0.8870 0.8870 0.8875 0.8880
2252.788503 0.8880 0.8880 0.8885 0.8890 0.8900
2257.706538 0.8910 0.8910 0.8910 0.8900 0.8890
2262.624574 0.8890 0.8890 0.8890 0.8890 0.8890
2267.542609 0.8890 0.8890 0.8890 0.8890 0.8890
2272.460645 0.8890 0.8890 0.8885 0.8880 0.8880
2277.378680 0.8880 0.8880 0.8880 0.8880 0.8880
2282.296716 0.8880 0.8880 0.8880 0.8880 0.8880
2287.214751 0.8880 0.8880 0.8880 0.8875 0.8870
2292.132787 0.8860 0.8850 0.8850 0.8850 0.8845
2297.050823 0.8840 0.8840 0.8840 0.8840 0.8840
2301.968858 0.8840 0.8840 0.8835 0.8830 0.8830
2306.886894 0.8830 0.8830 0.8830 0.8830 0.8830
2311.804929 0.8820 0.8810 0.8810 0.8810 0.8810
2316.722965 0.8810 0.8805 0.8800 0.8795 0.8790
2321.641000 0.8790 0.8790 0.8780 0.8770 0.8770
2326.559036 0.8770 0.8765 0.8760 0.8760 0.8760
2331.477071 0.8760 0.8760 0.8765 0.8770 0.8770
2336.395107 0.8770 0.8780 0.8790 0.8795 0.8800
2341.313142 0.8805 0.8810 0.8810 0.8810 0.8810
2346.231178 0.8810 0.8805 0.8800 0.8805 0.8810
2351.149214 0.8820 0.8830 0.8835 0.8840 0.8835
2356.067249 0.8830 0.8830 0.8830 0.8830 0.8830
2360.985285 0.8830 0.8830 0.8830 0.8830 0.8830
2365.903320 0.8830 0.8835 0.8840 0.8845 0.8850
2370.821356 0.8845 0.8840 0.8840 0.8840 0.8840
2375.739391 0.8840 0.8840 0.8840 0.8840 0.8840
2380.657427 0.8840 0.8840 0.8840 0.8840 0.8840
2385.575462 0.8840 0.8825 0.8810 0.8805 0.8800
2390.493498 0.8800 0.8800 0.8795 0.8790 0.8790
2395.411533 0.8790 0.8790 0.8790 0.8780 0.8770
2400.329569 0.8765 0.8760 0.8755 0.8750 0.8740
2405.247605 0.8730 0.8730 0.8730 0.8725 0.8720
2410.165640 0.8720 0.8720 0.8715 0.8710 0.8695
2415.083676 0.8680 0.8665 0.8650 0.8640 0.8630
2420.001711 0.8620 0.8610 0.8605 0.8600 0.8600
2424.919747 0.8600 0.8600 0.8600 0.8595 0.8590
2429.837782 0.8580 0.8570 0.8565 0.8560 0.8555
2434.755818 0.8550 0.8540 0.8530 0.8520 0.8510
2439.673853 0.8500 0.8490 0.8485 0.8480 0.8480
2444.591889 0.8480 0.8480 0.8480 0.8485 0.8490
2449.509924 0.8505 0.8520 0.8540 0.8560 0.8575
2454.427960 0.8590 0.8590 0.8590 0.8595 0.8600
2459.345996 0.8605 0.8610 0.8610 0.8610 0.8620
2464.264031 0.8630 0.8630 0.8630 0.8635 0.8640
2469.182067 0.8640 0.8640 0.8640 0.8640 0.8640
2474.100102 0.8640 0.8640 0.8640 0.8640 0.8640
2479.018138 0.8625 0.8610 0.8605 0.8600 0.8595
2483.936173 0.8590 0.8595 0.8600 0.8595 0.8590
2488.854209 0.8590 0.8590 0.8580 0.8570 0.8570
2493.772244 0.8570 0.8570 0.8570 0.8570 0.8570
2498.690280 0.8570 0.8570 0.8570 0.8570 0.8570
2503.608315 0.8570 0.8570 0.8570 0.8570 0.8570
2508.526351 0.8570 0.8570 0.8565 0.8560 0.8560
2513.444387 0.8560 0.8560 0.8560 0.8560 0.8560
2518.362422 0.8565 0.8570 0.8580 0.8590 0.8595
2523.280458 0.8600 0.8600 0.8600 0.8605 0.8610
2528.198493 0.8610 0.8610 0.8610 0.8610 0.8620
2533.116529 0.8630 0.8635 0.8640 0.8645 0.8650
2538.034564 0.8660 0.8670 0.8670 0.8670 0.8670
2542.952600 0.8670 0.8670 0.8670 0.8670 0.8670
2547.870635 0.8670 0.8670 0.8660 0.8650 0.8640
2552.788671 0.8630 0.8620 0.8610 0.8605 0.8600
2557.706706 0.8595 0.8590 0.8575 0.8560 0.8545
2562.624742 0.8530 0.8510 0.8490 0.8475 0.8460
2567.542778 0.8455 0.8450 0.8435 0.8420 0.8415
2572.460813 0.8410 0.8410 0.8410 0.8425 0.8440
2577.378849 0.8450 0.8460 0.8475 0.8490 0.8490
2582.296884 0.8490 0.8500 0.8510 0.8510 0.8510
2587.214920 0.8515 0.8520 0.8525 0.8530 0.8530
2592.132955 0.8530 0.8540 0.8550 0.8550 0.8550
2597.050991 0.8550 0.8550 0.8555 0.8560 0.8565
2601.969026 0.8570 0.8580 0.8590 0.8590 0.8590
2606.887062 0.8595 0.8600 0.8615 0.8630 0.8630
2611.805097 0.8630 0.8620 0.8610 0.8610 0.8610
2616.723133 0.8605 0.8600 0.8585 0.8570 0.8565
2621.641169 0.8560 0.8545 0.8530 0.8530 0.8530
2626.559204 0.8525 0.8520 0.8520 0.8520 0.8525
2631.477240 0.8530 0.8530 0.8530 0.8530 0.8530
2636.395275 0.8530 0.8530 0.8530 0.8530 0.8530
2641.313311 0.8530 0.8525 0.8520 0.8520 0.8520
2646.231346 0.8515 0.8510 0.8510 0.8510 0.8510
2651.149382 0.8510 0.8500 0.8490 0.8490 0.8490
2656.067417 0.8475 0.8460 0.8455 0.8450 0.8435
2660.985453 0.8420 0.8415 0.8410 0.8395 0.8380
2665.903488 0.8370 0.8360 0.8345 0.8330 0.8315
2670.821524 0.8300 0.8290 0.8280 0.8270 0.8260
2675.739560 0.8260 0.8260 0.8250 0.8240 0.8225
2680.657595 0.8210 0.8190 0.8170 0.8155 0.8140
2685.575631 0.8130 0.8120 0.8105 0.8090 0.8070
2690.493666 0.8050 0.8035 0.8020 0.8020 0.8020
2695.411702 0.8015 0.8010 0.8005 0.8000 0.8000
2700.329737 0.8000 0.8000 0.8000 0.8000 0.8000
2705.247773 0.8000 0.8000 0.8000 0.8000 0.7990
2710.165808 0.7980 0.7980 0.7980 0.7975 0.7970
2715.083844 0.7955 0.7940 0.7925 0.7910 0.7890
2720.001879 0.7870 0.7850 0.7830 0.7820 0.7810
2724.919915 0.7795 0.7780 0.7775 0.7770 0.7760
2729.837951 0.7750 0.7745 0.7740 0.7740 0.7740
2734.755986 0.7740 0.7740 0.7735 0.7730 0.7730
2739.674022 0.7730 0.7730 0.7730 0.7735 0.7740
2744.592057 0.7740 0.7740 0.7745 0.7750 0.7750
2749.510093 0.7750 0.7745 0.7740 0.7725 0.7710
2754.428128 0.7700 0.7690 0.7670 0.7650 0.7620
2759.346164 0.7590 0.7585 0.7580 0.7555 0.7530
2764.264199 0.7515 0.7500 0.7490 0.7480 0.7475
2769.182235 0.7470 0.7465 0.7460 0.7450 0.7440
2774.100270 0.7440 0.7440 0.7435 0.7430 0.7415
2779.018306 0.7400 0.7390 0.7380 0.7346 0.7311
2783.936342 0.7285 0.7260 0.7230 0.7200 0.7190
2788.854377 0.7180 0.7165 0.7150 0.7145 0.7140
2793.772413 0.7140 0.7140 0.7150 0.7160 0.7175
2798.690448 0.7190 0.7210 0.7230 0.7235 0.7240
2803.608484 0.7240 0.7240 0.7240 0.7240 0.7235
2808.526519 0.7230 0.7225 0.7220 0.7210 0.7200
2813.444555 0.7195 0.7190 0.7185 0.7180 0.7165
2818.362590 0.7150 0.7130 0.7110 0.7105 0.7100
2823.280626 0.7080 0.7060 0.7025 0.6990 0.6955
2828.198661 0.6920 0.6895 0.6870 0.6830 0.6790
2833.116697 0.6755 0.6720 0.6680 0.6640 0.6595
2838.034733 0.6550 0.6481 0.6411 0.6346 0.6281
2842.952768 0.6206 0.6131 0.6075 0.6020 0.5985
2847.870804 0.5950 0.5925 0.5900 0.5895 0.5890
2852.788839 0.5890 0.5890 0.5890 0.5890 0.5895
2857.706875 0.5900 0.5920 0.5940 0.5999 0.6059
2862.624910 0.6080 0.6100 0.6135 0.6170 0.6175
2867.542946 0.6180 0.6190 0.6200 0.6190 0.6180
2872.460981 0.6180 0.6180 0.6175 0.6170 0.6150
2877.379017 0.6130 0.6125 0.6120 0.6105 0.6090
2882.297052 0.6065 0.6040 0.6010 0.5980 0.5940
2887.215088 0.5900 0.5860 0.5820 0.5760 0.5700
2892.133124 0.5571 0.5441 0.5356 0.5271 0.5156
2897.051159 0.5041 0.4917 0.4792 0.4637 0.4482
2901.969195 0.4328 0.4173 0.3996 0.3820 0.3765
2906.887230 0.3710 0.3650 0.3590 0.3530 0.3470
2911.805266 0.3336 0.3201 0.3190 0.3180 0.3185
2916.723301 0.3190 0.3225 0.3260 0.3285 0.3310
2921.641337 0.3344 0.3379 0.3400 0.3420 0.3425
2926.559372 0.3430 0.3430 0.3430 0.3410 0.3390
2931.477408 0.3370 0.3350 0.3315 0.3280 0.3270
2936.395443 0.3260 0.3245 0.3230 0.3230 0.3230
2941.313479 0.3215 0.3200 0.3195 0.3190 0.3175
2946.231515 0.3160 0.3155 0.3150 0.3135 0.3120
2951.149550 0.3120 0.3120 0.3115 0.3110 0.3110
2956.067586 0.3110 0.3110 0.3110 0.3115 0.3120
2960.985621 0.3130 0.3140 0.3145 0.3150 0.3165
2965.903657 0.3180 0.3190 0.3200 0.3255 0.3310
2970.821692 0.3404 0.3499 0.3584 0.3669 0.3764
2975.739728 0.3859 0.4112 0.4367 0.4577 0.4787
2980.657763 0.4967 0.5147 0.5304 0.5460 0.5525
2985.575799 0.5590 0.5660 0.5730 0.5840 0.5949
2990.493834 0.6044 0.6139 0.6229 0.6319 0.6389
2995.411870 0.6459 0.6534 0.6609 0.6620 0.6630
3000.329906 0.6630 0.6630 0.6620 0.6610 0.6610
3005.247941 0.6610 0.6600 0.6590 0.6575 0.6560
3010.165977 0.6540 0.6520 0.6515 0.6510 0.6515
3015.084012 0.6520 0.6545 0.6570 0.6609 0.6649
3020.002048 0.6738 0.6828 0.6909 0.6990 0.7050
3024.920083 0.7110 0.7170 0.7230 0.7275 0.7320
3029.838119 0.7360 0.7400 0.7430 0.7460 0.7485
3034.756154 0.7510 0.7525 0.7540 0.7574 0.7609
3039.674190 0.7630 0.7650 0.7655 0.7660 0.7680
3044.592225 0.7700 0.7715 0.7730 0.7740 0.7750
3049.510261 0.7760 0.7770 0.7775 0.7780 0.7785
3054.428297 0.7790 0.7810 0.7830 0.7840 0.7850
3059.346332 0.7855 0.7860 0.7865 0.7870 0.7885
3064.264368 0.7900 0.7915 0.7930 0.7935 0.7940
3069.182403 0.7945 0.7950 0.7960 0.7970 0.7985
3074.100439 0.8000 0.8005 0.8010 0.8015 0.8020
3079.018474 0.8035 0.8050 0.8065 0.8080 0.8080
3083.936510 0.8080 0.8085 0.8090 0.8090 0.8090
3088.854545 0.8095 0.8100 0.8110 0.8120 0.8125
3093.772581 0.8130 0.8135 0.8140 0.8150 0.8160
3098.690616 0.8165 0.8170 0.8175 0.8180 0.8190
3103.608652 0.8200 0.8205 0.8210 0.8215 0.8220
3108.526688 0.8230 0.8240 0.8240 0.8240 0.8245
3113.444723 0.8250 0.8250 0.8250 0.8250 0.8250
3118.362759 0.8245 0.8240 0.8240 0.8240 0.8230
3123.280794 0.8220 0.8220 0.8220 0.8215 0.8210
3128.198830 0.8205 0.8200 0.8200 0.8200 0.8200
3133.116865 0.8200 0.8200 0.8200 0.8205 0.8210
3138.034901 0.8210 0.8210 0.8215 0.8220 0.8220
3142.952936 0.8220 0.8230 0.8240 0.8240 0.8240
3147.870972 0.8240 0.8240 0.8240 0.8240 0.8240
3152.789007 0.8240 0.8245 0.8250 0.8250 0.8250
3157.707043 0.8250 0.8250 0.8250 0.8250 0.8255
3162.625079 0.8260 0.8260 0.8260 0.8260 0.8260
3167.543114 0.8260 0.8260 0.8260 0.8260 0.8260
3172.461150 0.8260 0.8260 0.8260 0.8260 0.8260
3177.379185 0.8270 0.8280 0.8280 0.8280 0.8285
3182.297221 0.8290 0.8290 0.8290 0.8290 0.8290
3187.215256 0.8290 0.8290 0.8290 0.8290 0.8290
3192.133292 0.8290 0.8290 0.8290 0.8290 0.8290
3197.051327 0.8290 0.8290 0.8290 0.8290 0.8295
3201.969363 0.8300 0.8300 0.8300 0.8300 0.8300
3206.887398 0.8295 0.8290 0.8290 0.8290 0.8290
3211.805434 0.8290 0.8305 0.8320 0.8320 0.8320
3216.723470 0.8320 0.8320 0.8320 0.8320 0.8320
3221.641505 0.8320 0.8320 0.8320 0.8320 0.8320
3226.559541 0.8310 0.8300 0.8300 0.8300 0.8300
3231.477576 0.8300 0.8300 0.8300 0.8310 0.8320
3236.395612 0.8320 0.8320 0.8320 0.8320 0.8320
3241.313647 0.8320 0.8320 0.8320 0.8320 0.8320
3246.231683 0.8320 0.8320 0.8320 0.8320 0.8320
3251.149718 0.8320 0.8320 0.8320 0.8320 0.8320
3256.067754 0.8320 0.8320 0.8310 0.8300 0.8300
3260.985789 0.8300 0.8300 0.8300 0.8295 0.8290
3265.903825 0.8290 0.8290 0.8285 0.8280 0.8280
3270.821861 0.8280 0.8280 0.8280 0.8280 0.8280
3275.739896 0.8270 0.8260 0.8260 0.8260 0.8260
3280.657932 0.8260 0.8255 0.8250 0.8250 0.8250
3285.575967 0.8250 0.8250 0.8245 0.8240 0.8240
3290.494003 0.8240 0.8240 0.8240 0.8230 0.8220
3295.412038 0.8215 0.8210 0.8205 0.8200 0.8190
3300.330074 0.8180 0.8175 0.8170 0.8170 0.8170
3305.248109 0.8165 0.8160 0.8160 0.8160 0.8150
3310.166145 0.8140 0.8140 0.8140 0.8135 0.8130
3315.084180 0.8125 0.8120 0.8120 0.8120 0.8110
3320.002216 0.8100 0.8100 0.8100 0.8100 0.8100
3324.920252 0.8095 0.8090 0.8090 0.8090 0.8085
3329.838287 0.8080 0.8070 0.8060 0.8055 0.8050
3334.756323 0.8035 0.8020 0.8020 0.8020 0.8015
3339.674358 0.8010 0.7995 0.7980 0.7980 0.7980
3344.592394 0.7965 0.7950 0.7950 0.7950 0.7945
3349.510429 0.7940 0.7940 0.7940 0.7935 0.7930
3354.428465 0.7920 0.7910 0.7910 0.7910 0.7905
3359.346500 0.7900 0.7900 0.7900 0.7895 0.7890
3364.264536 0.7880 0.7870 0.7865 0.7860 0.7860
3369.182571 0.7860 0.7860 0.7860 0.7855 0.7850
3374.100607 0.7850 0.7850 0.7850 0.7850 0.7840
3379.018643 0.7830 0.7830 0.7830 0.7825 0.7820
3383.936678 0.7820 0.7820 0.7820 0.7820 0.7815
3388.854714 0.7810 0.7810 0.7810 0.7810 0.7810
3393.772749 0.7800 0.7790 0.7790 0.7790 0.7785
3398.690785 0.7780 0.7780 0.7780 0.7780 0.7780
3403.608820 0.7775 0.7770 0.7770 0.7770 0.7770
3408.526856 0.7770 0.7770 0.7770 0.7760 0.7750
3413.444891 0.7750 0.7750 0.7750 0.7750 0.7745
3418.362927 0.7740 0.7740 0.7740 0.7740 0.7740
3423.280962 0.7740 0.7740 0.7740 0.7740 0.7740
3428.198998 0.7740 0.7740 0.7740 0.7740 0.7740
3433.117034 0.7740 0.7740 0.7735 0.7730 0.7730
3438.035069 0.7730 0.7730 0.7730 0.7730 0.7730
3442.953105 0.7730 0.7730 0.7730 0.7730 0.7730
3447.871140 0.7730 0.7730 0.7730 0.7730 0.7730
3452.789176 0.7720 0.7710 0.7710 0.7710 0.7710
3457.707211 0.7710 0.7710 0.7710 0.7710 0.7710
3462.625247 0.7710 0.7710 0.7710 0.7710 0.7710
3467.543282 0.7710 0.7720 0.7730 0.7730 0.7730
3472.461318 0.7730 0.7730 0.7730 0.7730 0.7730
3477.379353 0.7730 0.7730 0.7730 0.7730 0.7730
3482.297389 0.7730 0.7730 0.7730 0.7730 0.7730
3487.215425 0.7730 0.7730 0.7730 0.7730 0.7730
3492.133460 0.7730 0.7730 0.7730 0.7730 0.7730
3497.051496 0.7730 0.7730 0.7730 0.7735 0.7740
3501.969531 0.7740 0.7740 0.7745 0.7750 0.7750
3506.887567 0.7750 0.7750 0.7750 0.7760 0.7770
3511.805602 0.7770 0.7770 0.7775 0.7780 0.7785
3516.723638 0.7790 0.7790 0.7790 0.7790 0.7790
3521.641673 0.7800 0.7810 0.7810 0.7810 0.7810
3526.559709 0.7810 0.7815 0.7820 0.7825 0.7830
3531.477744 0.7845 0.7860 0.7865 0.7870 0.7870
3536.395780 0.7870 0.7880 0.7890 0.7895 0.7900
3541.313816 0.7905 0.7910 0.7910 0.7910 0.7920
3546.231851 0.7930 0.7935 0.7940 0.7940 0.7940
3551.149887 0.7945 0.7950 0.7965 0.7980 0.7980
3556.067922 0.7980 0.8000 0.8020 0.8035 0.8050
3560.985958 0.8055 0.8060 0.8070 0.8080 0.8080
3565.903993 0.8080 0.8085 0.8090 0.8090 0.8090
3570.822029 0.8095 0.8100 0.8120 0.8140 0.8140
3575.740064 0.8140 0.8155 0.8170 0.8185 0.8200
3580.658100 0.8205 0.8210 0.8210 0.8210 0.8215
3585.576135 0.8220 0.8230 0.8240 0.8245 0.8250
3590.494171 0.8250 0.8250 0.8250 0.8250 0.8255
3595.412207 0.8260 0.8260 0.8260 0.8270 0.8280
3600.330242 0.8285 0.8290 0.8295 0.8300 0.8310
3605.248278 0.8320 0.8320 0.8320 0.8325 0.8330
3610.166313 0.8335 0.8340 0.8340 0.8340 0.8350
3615.084349 0.8360 0.8365 0.8370 0.8375 0.8380
3620.002384 0.8395 0.8410 0.8410 0.8410 0.8415
3624.920420 0.8420 0.8420 0.8420 0.8430 0.8440
3629.838455 0.8440 0.8440 0.8440 0.8440 0.8440
3634.756491 0.8440 0.8445 0.8450 0.8455 0.8460
3639.674526 0.8470 0.8480 0.8480 0.8480 0.8480
3644.592562 0.8480 0.8485 0.8490 0.8485 0.8480
3649.510598 0.8480 0.8480 0.8480 0.8480 0.8480
3654.428633 0.8480 0.8470 0.8460 0.8460 0.8460
3659.346669 0.8460 0.8460 0.8455 0.8450 0.8445
3664.264704 0.8440 0.8440 0.8440 0.8430 0.8420
3669.182740 0.8415 0.8410 0.8390 0.8370 0.8355
3674.100775 0.8340 0.8295 0.8250 0.8245 0.8240
3679.018811 0.8240 0.8240 0.8245 0.8250 0.8265
3683.936846 0.8280 0.8305 0.8330 0.8369 0.8409
3688.854882 0.8444 0.8479 0.8515 0.8550 0.8570
3693.772917 0.8590 0.8615 0.8640 0.8655 0.8670
3698.690953 0.8690 0.8710 0.8730 0.8750 0.8760
3703.608989 0.8770 0.8785 0.8800 0.8805 0.8810
3708.527024 0.8820 0.8830 0.8830 0.8830 0.8835
3713.445060 0.8840 0.8845 0.8850 0.8850 0.8850
3718.363095 0.8860 0.8870 0.8875 0.8880 0.8885
3723.281131 0.8890 0.8890 0.8890 0.8890 0.8890
3728.199166 0.8890 0.8890 0.8890 0.8890 0.8900
3733.117202 0.8910 0.8910 0.8910 0.8910 0.8910
3738.035237 0.8910 0.8910 0.8910 0.8910 0.8910
3742.953273 0.8910 0.8910 0.8910 0.8910 0.8910
3747.871308 0.8910 0.8910 0.8910 0.8910 0.8910
3752.789344 0.8910 0.8910 0.8910 0.8910 0.8910
3757.707380 0.8910 0.8910 0.8910 0.8910 0.8910
3762.625415 0.8910 0.8910 0.8910 0.8910 0.8910
3767.543451 0.8910 0.8910 0.8910 0.8910 0.8910
3772.461486 0.8910 0.8910 0.8910 0.8910 0.8910
3777.379522 0.8910 0.8910 0.8900 0.8890 0.8890
3782.297557 0.8890 0.8890 0.8890 0.8885 0.8880
3787.215593 0.8880 0.8880
##END=
