##TITLE=METHYL ISOCYANATE
##JCAMP-DX=4.24
##DATA TYPE=INFRARED SPECTRUM
##CLASS=COBLENTZ
##ORIGIN=DOW CHEMICAL COMPANY
##OWNER=COBLENTZ SOCIETY
Collection (C) 2018 copyright by the U.S. Secretary of Commerce
on behalf of the United States of America. All rights reserved.
##DATE=1971/04/13
##NAMES=(methylimino)(oxo)methane
##CAS REGISTRY NO=624-83-9
##MOLFORM=C2 H3 N O
##SOURCE REFERENCE=COBLENTZ NO. 10485
##$NIST SOURCE=COBLENTZ
##$NIST IMAGE=cob10485
##SPECTROMETER/DATA SYSTEM=BECKMAN IR-9 (GRATING)
##INSTRUMENT PARAMETERS=ORDER CHANGES AT 670, 1200, 2000 CM^-^1
##STATE=GAS (6 mmHg DILUTED WITH N2)
##PATH LENGTH=5 CM CELL
##SAMPLING PROCEDURE=TRANSMISSION
##RESOLUTION=4
##DATA PROCESSING=DIGITIZED BY NIST FROM HARD COPY (FROM TWO SEGMENTS)
##XUNITS=1/CM
##YUNITS=TRANSMITTANCE
##XFACTOR=1.000000
##YFACTOR=1
##DELTAX=0.874636
##FIRSTX=396.793
##LASTX=3793.01
##FIRSTY=0.723
##MAXX=3793.01
##MINX=396.793
##MAXY=1.009
##MINY=0.079
##NPOINTS=3884
##XYDATA=(X++(Y..Y))
396.793000 0.7230 0.7220 0.7190 0.7120 0.7050
401.166182 0.7010 0.6990 0.6960 0.6940 0.6920
405.539363 0.6880 0.6850 0.6830 0.6780 0.6680
409.912545 0.6620 0.6590 0.6590 0.6580 0.6580
414.285726 0.6560 0.6560 0.6550 0.6550 0.6550
418.658908 0.6550 0.6560 0.6560 0.6580 0.6590
423.032089 0.6590 0.6620 0.6640 0.6680 0.6740
427.405271 0.6790 0.6880 0.6920 0.7010 0.7080
431.778452 0.7110 0.7180 0.7250 0.7270 0.7330
436.151634 0.7400 0.7440 0.7460 0.7570 0.7610
440.524815 0.7700 0.7710 0.7750 0.7790 0.7830
444.897997 0.7870 0.7900 0.7940 0.7970 0.8030
449.271178 0.8080 0.8130 0.8160 0.8190 0.8200
453.644360 0.8240 0.8300 0.8330 0.8350 0.8410
458.017541 0.8420 0.8480 0.8520 0.8540 0.8560
462.390723 0.8570 0.8570 0.8610 0.8630 0.8670
466.763904 0.8700 0.8710 0.8720 0.8750 0.8760
471.137086 0.8780 0.8790 0.8820 0.8830 0.8850
475.510267 0.8870 0.8900 0.8910 0.8930 0.8930
479.883449 0.8960 0.8980 0.9010 0.9040 0.9050
484.256630 0.9060 0.9060 0.9060 0.9080 0.9110
488.629812 0.9120 0.9130 0.9150 0.9150 0.9160
493.002993 0.9170 0.9190 0.9220 0.9240 0.9260
497.376175 0.9260 0.9270 0.9270 0.9270 0.9270
501.749356 0.9280 0.9300 0.9310 0.9310 0.9320
506.122538 0.9340 0.9340 0.9350 0.9350 0.9370
510.495719 0.9380 0.9380 0.9390 0.9410 0.9410
514.868901 0.9410 0.9420 0.9420 0.9420 0.9430
519.242082 0.9430 0.9430 0.9430 0.9450 0.9450
523.615264 0.9450 0.9450 0.9460 0.9460 0.9480
527.988445 0.9480 0.9480 0.9490 0.9500 0.9520
532.361627 0.9530 0.9530 0.9530 0.9530 0.9530
536.734808 0.9530 0.9540 0.9540 0.9540 0.9540
541.107990 0.9540 0.9540 0.9540 0.9540 0.9540
545.481171 0.9540 0.9540 0.9540 0.9540 0.9540
549.854353 0.9540 0.9540 0.9540 0.9540 0.9530
554.227534 0.9530 0.9530 0.9530 0.9530 0.9530
558.600716 0.9530 0.9530 0.9530 0.9530 0.9530
562.973897 0.9520 0.9500 0.9500 0.9500 0.9500
567.347079 0.9490 0.9490 0.9480 0.9460 0.9450
571.720260 0.9430 0.9430 0.9420 0.9420 0.9420
576.093442 0.9410 0.9410 0.9410 0.9410 0.9390
580.466623 0.9390 0.9380 0.9380 0.9380 0.9370
584.839805 0.9350 0.9340 0.9320 0.9310 0.9270
589.212986 0.9220 0.9120 0.9050 0.9040 0.9020
593.586168 0.9020 0.9010 0.9010 0.9010 0.9010
597.959349 0.9010 0.9000 0.9000 0.8930 0.8900
602.332531 0.8900 0.8860 0.8850 0.8820 0.8820
606.705712 0.8800 0.8790 0.8790 0.8760 0.8740
611.078894 0.8720 0.8720 0.8720 0.8720 0.8720
615.452075 0.8720 0.8720 0.8720 0.8720 0.8710
619.825257 0.8700 0.8700 0.8680 0.8650 0.8640
624.198438 0.8610 0.8590 0.8530 0.8530 0.8570
628.571620 0.8700 0.8800 0.8860 0.8960 0.9010
632.944801 0.9040 0.9050 0.9060 0.9090 0.9110
637.317983 0.9110 0.9120 0.9120 0.9150 0.9160
641.691164 0.9190 0.9200 0.9220 0.9220 0.9230
646.064346 0.9240 0.9240 0.9260 0.9260 0.9270
650.437527 0.9310 0.9320 0.9320 0.9320 0.9320
654.810709 0.9320 0.9310 0.9310 0.9310 0.9300
659.183890 0.9300 0.9300 0.9300 0.9310 0.9310
663.557072 0.9320 0.9340 0.9350 0.9390 0.9430
667.930253 0.9450 0.9460 0.9480 0.9490 0.9490
672.303435 0.9490 0.9490 0.9490 0.9480 0.9450
676.676616 0.9420 0.9390 0.9370 0.9340 0.9320
681.049798 0.9310 0.9300 0.9300 0.9280 0.9280
685.422979 0.9280 0.9280 0.9300 0.9300 0.9310
689.796161 0.9310 0.9320 0.9320 0.9320 0.9320
694.169342 0.9320 0.9320 0.9320 0.9320 0.9320
698.542524 0.9320 0.9320 0.9320 0.9320 0.9340
702.915705 0.9340 0.9340 0.9340 0.9340 0.9340
707.288887 0.9340 0.9340 0.9340 0.9340 0.9340
711.662068 0.9340 0.9340 0.9340 0.9340 0.9340
716.035250 0.9340 0.9340 0.9340 0.9350 0.9340
720.408431 0.9320 0.9320 0.9320 0.9320 0.9320
724.781613 0.9320 0.9320 0.9320 0.9310 0.9310
729.154794 0.9310 0.9310 0.9310 0.9310 0.9310
733.527976 0.9310 0.9320 0.9310 0.9310 0.9310
737.901157 0.9310 0.9310 0.9320 0.9320 0.9320
742.274339 0.9320 0.9320 0.9320 0.9320 0.9320
746.647520 0.9320 0.9320 0.9320 0.9320 0.9320
751.020702 0.9320 0.9340 0.9340 0.9340 0.9340
755.393883 0.9340 0.9340 0.9340 0.9340 0.9340
759.767065 0.9340 0.9340 0.9340 0.9340 0.9340
764.140246 0.9340 0.9340 0.9340 0.9340 0.9340
768.513428 0.9320 0.9320 0.9320 0.9320 0.9320
772.886609 0.9310 0.9310 0.9310 0.9310 0.9310
777.259791 0.9310 0.9320 0.9340 0.9340 0.9340
781.632972 0.9340 0.9340 0.9340 0.9340 0.9350
786.006154 0.9350 0.9370 0.9370 0.9380 0.9380
790.379335 0.9380 0.9390 0.9380 0.9380 0.9380
794.752517 0.9380 0.9380 0.9380 0.9380 0.9380
799.125698 0.9380 0.9380 0.9380 0.9370 0.9370
803.498880 0.9370 0.9370 0.9350 0.9350 0.9350
807.872061 0.9350 0.9350 0.9350 0.9350 0.9350
812.245243 0.9350 0.9350 0.9350 0.9350 0.9350
816.618424 0.9350 0.9350 0.9350 0.9350 0.9350
820.991606 0.9350 0.9350 0.9370 0.9370 0.9370
825.364787 0.9370 0.9370 0.9370 0.9380 0.9380
829.737969 0.9380 0.9380 0.9380 0.9380 0.9380
834.111150 0.9380 0.9380 0.9380 0.9380 0.9380
838.484332 0.9380 0.9370 0.9370 0.9370 0.9370
842.857513 0.9370 0.9370 0.9370 0.9370 0.9370
847.230695 0.9350 0.9350 0.9340 0.9310 0.9280
851.603876 0.9260 0.9240 0.9220 0.9200 0.9170
855.977058 0.9150 0.9120 0.9110 0.9080 0.9060
860.350239 0.9060 0.9040 0.9040 0.9020 0.9010
864.723421 0.9010 0.9000 0.9000 0.8980 0.8980
869.096602 0.9000 0.9040 0.9090 0.9120 0.9120
873.469784 0.9120 0.9110 0.9080 0.9060 0.9040
877.842965 0.9020 0.9010 0.9000 0.9010 0.9020
882.216147 0.9040 0.9090 0.9120 0.9160 0.9240
886.589328 0.9270 0.9320 0.9340 0.9380 0.9430
890.962510 0.9480 0.9520 0.9530 0.9570 0.9600
895.335691 0.9630 0.9640 0.9640 0.9640 0.9650
899.708873 0.9670 0.9670 0.9680 0.9680 0.9680
904.082054 0.9680 0.9690 0.9710 0.9720 0.9740
908.455236 0.9740 0.9750 0.9750 0.9750 0.9750
912.828417 0.9760 0.9760 0.9760 0.9760 0.9760
917.201599 0.9780 0.9780 0.9780 0.9780 0.9780
921.574780 0.9790 0.9790 0.9790 0.9790 0.9790
925.947962 0.9800 0.9800 0.9800 0.9820 0.9820
930.321143 0.9830 0.9830 0.9830 0.9840 0.9840
934.694325 0.9840 0.9840 0.9840 0.9860 0.9860
939.067506 0.9860 0.9860 0.9860 0.9860 0.9860
943.440688 0.9860 0.9860 0.9860 0.9860 0.9870
947.813869 0.9870 0.9870 0.9870 0.9890 0.9890
952.187051 0.9890 0.9890 0.9900 0.9900 0.9900
956.560232 0.9900 0.9910 0.9910 0.9930 0.9930
960.933414 0.9940 0.9940 0.9940 0.9940 0.9940
965.306595 0.9940 0.9940 0.9940 0.9940 0.9940
969.679777 0.9940 0.9950 0.9950 0.9970 0.9970
974.052958 0.9970 0.9970 0.9970 0.9970 0.9970
978.426140 0.9970 0.9970 0.9970 0.9970 0.9970
982.799321 0.9970 0.9970 0.9970 0.9970 0.9970
987.172503 0.9970 0.9970 0.9970 0.9970 0.9970
991.545684 0.9970 0.9970 0.9970 0.9970 0.9970
995.918866 0.9950 0.9950 0.9950 0.9950 0.9950
1000.292047 0.9950 0.9950 0.9950 0.9940 0.9940
1004.665229 0.9940 0.9940 0.9950 0.9940 0.9940
1009.038410 0.9940 0.9940 0.9930 0.9940 0.9940
1013.411592 0.9940 0.9930 0.9910 0.9910 0.9900
1017.784773 0.9900 0.9900 0.9900 0.9900 0.9900
1022.157955 0.9910 0.9910 0.9930 0.9930 0.9930
1026.531136 0.9930 0.9930 0.9930 0.9910 0.9910
1030.904318 0.9910 0.9910 0.9900 0.9900 0.9900
1035.277499 0.9900 0.9900 0.9900 0.9900 0.9900
1039.650681 0.9900 0.9900 0.9900 0.9900 0.9900
1044.023862 0.9890 0.9890 0.9890 0.9890 0.9890
1048.397044 0.9890 0.9890 0.9900 0.9900 0.9900
1052.770225 0.9900 0.9890 0.9890 0.9890 0.9870
1057.143407 0.9870 0.9870 0.9870 0.9870 0.9860
1061.516588 0.9860 0.9860 0.9860 0.9840 0.9840
1065.889770 0.9860 0.9860 0.9860 0.9860 0.9860
1070.262951 0.9840 0.9840 0.9830 0.9830 0.9830
1074.636133 0.9800 0.9790 0.9780 0.9780 0.9760
1079.009314 0.9760 0.9750 0.9760 0.9760 0.9780
1083.382496 0.9790 0.9790 0.9790 0.9790 0.9800
1087.755677 0.9800 0.9800 0.9820 0.9820 0.9820
1092.128859 0.9830 0.9830 0.9830 0.9830 0.9830
1096.502040 0.9830 0.9830 0.9830 0.9830 0.9830
1100.875222 0.9830 0.9830 0.9830 0.9830 0.9830
1105.248403 0.9820 0.9820 0.9820 0.9820 0.9820
1109.621585 0.9820 0.9820 0.9820 0.9820 0.9820
1113.994766 0.9820 0.9820 0.9820 0.9820 0.9820
1118.367948 0.9820 0.9820 0.9830 0.9820 0.9820
1122.741129 0.9800 0.9800 0.9800 0.9800 0.9800
1127.114311 0.9800 0.9800 0.9790 0.9790 0.9790
1131.487492 0.9790 0.9790 0.9790 0.9790 0.9780
1135.860674 0.9760 0.9760 0.9750 0.9750 0.9740
1140.233855 0.9740 0.9720 0.9690 0.9680 0.9670
1144.607037 0.9650 0.9650 0.9670 0.9670 0.9670
1148.980219 0.9680 0.9680 0.9680 0.9680 0.9690
1153.353400 0.9690 0.9690 0.9690 0.9710 0.9720
1157.726582 0.9720 0.9740 0.9750 0.9750 0.9760
1162.099763 0.9780 0.9780 0.9780 0.9780 0.9790
1166.472945 0.9790 0.9800 0.9800 0.9800 0.9800
1170.846126 0.9800 0.9820 0.9820 0.9830 0.9830
1175.219308 0.9830 0.9820 0.9820 0.9820 0.9800
1179.592489 0.9790 0.9750 0.9720 0.9690 0.9710
1183.965671 0.9750 0.9790 0.9800 0.9800 0.9820
1188.338852 0.9830 0.9860 0.9870 0.9890 0.9890
1192.712034 0.9890 0.9900 0.9900 0.9900 0.9910
1197.085215 0.9930 0.9930 0.9930 0.9940 0.9940
1201.458397 0.9940 0.9940 0.9940 0.9930 0.9930
1205.831578 0.9910 0.9910 0.9910 0.9910 0.9940
1210.204760 0.9940 0.9940 0.9940 0.9940 0.9940
1214.577941 0.9940 0.9930 0.9930 0.9930 0.9930
1218.951123 0.9910 0.9910 0.9910 0.9930 0.9930
1223.324304 0.9930 0.9940 0.9940 0.9940 0.9950
1227.697486 0.9950 0.9950 0.9970 0.9970 0.9970
1232.070667 0.9970 0.9980 0.9980 0.9980 0.9980
1236.443849 0.9980 0.9980 0.9980 0.9980 0.9980
1240.817030 0.9980 0.9980 0.9980 0.9980 0.9980
1245.190212 0.9980 0.9980 0.9980 0.9980 0.9980
1249.563393 0.9980 0.9980 0.9980 1.0000 1.0000
1253.936575 1.0000 1.0000 1.0000 1.0000 1.0000
1258.309756 1.0000 1.0000 1.0000 1.0000 1.0000
1262.682938 1.0000 1.0000 1.0000 1.0000 1.0010
1267.056119 1.0010 1.0010 1.0010 1.0010 1.0010
1271.429301 1.0010 1.0010 1.0010 1.0010 1.0010
1275.802482 1.0010 1.0010 1.0010 1.0010 1.0010
1280.175664 1.0010 1.0010 1.0010 1.0010 1.0010
1284.548845 1.0010 1.0010 1.0010 1.0010 1.0010
1288.922027 1.0010 1.0010 1.0010 1.0010 1.0010
1293.295208 1.0000 1.0000 1.0000 1.0000 1.0000
1297.668390 1.0000 1.0010 1.0020 1.0010 1.0010
1302.041571 1.0010 1.0010 1.0020 1.0020 1.0020
1306.414753 1.0020 1.0020 1.0020 1.0020 1.0020
1310.787934 1.0040 1.0040 1.0040 1.0040 1.0040
1315.161116 1.0020 1.0020 1.0020 1.0010 1.0020
1319.534297 1.0020 1.0040 1.0040 1.0040 1.0040
1323.907479 1.0040 1.0040 1.0040 1.0040 1.0040
1328.280660 1.0040 1.0040 1.0040 1.0040 1.0040
1332.653842 1.0040 1.0040 1.0040 1.0040 1.0040
1337.027023 1.0040 1.0040 1.0040 1.0040 1.0020
1341.400205 1.0020 1.0020 1.0020 1.0020 1.0020
1345.773386 1.0010 1.0010 1.0010 1.0010 1.0020
1350.146568 1.0020 1.0020 1.0020 1.0020 1.0020
1354.519749 1.0020 1.0020 1.0010 1.0010 1.0010
1358.892931 1.0010 1.0010 1.0000 1.0000 1.0000
1363.266112 1.0000 1.0000 0.9980 0.9980 0.9980
1367.639294 0.9980 0.9970 0.9970 0.9970 0.9950
1372.012475 0.9950 0.9950 0.9940 0.9940 0.9940
1376.385657 0.9930 0.9910 0.9890 0.9890 0.9870
1380.758838 0.9860 0.9830 0.9820 0.9790 0.9780
1385.132020 0.9760 0.9710 0.9650 0.9630 0.9630
1389.505201 0.9640 0.9650 0.9680 0.9680 0.9680
1393.878383 0.9680 0.9680 0.9680 0.9680 0.9670
1398.251564 0.9670 0.9640 0.9610 0.9580 0.9560
1402.624746 0.9560 0.9560 0.9540 0.9530 0.9450
1406.997927 0.9380 0.9350 0.9310 0.9270 0.9200
1411.371109 0.9160 0.9110 0.9040 0.8980 0.8910
1415.744290 0.8850 0.8800 0.8760 0.8740 0.8740
1420.117472 0.8700 0.8680 0.8680 0.8710 0.8740
1424.490653 0.8760 0.8790 0.8820 0.8890 0.8930
1428.863835 0.9000 0.9000 0.8940 0.8900 0.8860
1433.237016 0.8820 0.8780 0.8740 0.8720 0.8680
1437.610198 0.8680 0.8700 0.8710 0.8740 0.8760
1441.983379 0.8820 0.8850 0.8930 0.9080 0.9160
1446.356561 0.9200 0.9260 0.9310 0.9370 0.9410
1450.729742 0.9480 0.9500 0.9530 0.9540 0.9560
1455.102924 0.9560 0.9580 0.9600 0.9630 0.9640
1459.476105 0.9650 0.9650 0.9670 0.9670 0.9670
1463.849287 0.9670 0.9670 0.9670 0.9670 0.9670
1468.222468 0.9680 0.9680 0.9670 0.9670 0.9680
1472.595650 0.9690 0.9710 0.9720 0.9750 0.9760
1476.968831 0.9780 0.9780 0.9780 0.9780 0.9760
1481.342013 0.9750 0.9760 0.9760 0.9780 0.9780
1485.715194 0.9790 0.9800 0.9820 0.9830 0.9830
1490.088376 0.9840 0.9830 0.9830 0.9800 0.9800
1494.461557 0.9800 0.9820 0.9820 0.9830 0.9830
1498.834739 0.9830 0.9830 0.9830 0.9830 0.9830
1503.207920 0.9840 0.9840 0.9840 0.9860 0.9870
1507.581102 0.9870 0.9870 0.9870 0.9890 0.9890
1511.954283 0.9890 0.9900 0.9900 0.9900 0.9900
1516.327465 0.9900 0.9900 0.9900 0.9900 0.9900
1520.700646 0.9910 0.9910 0.9910 0.9910 0.9930
1525.073828 0.9930 0.9930 0.9930 0.9930 0.9930
1529.447009 0.9930 0.9930 0.9930 0.9930 0.9930
1533.820191 0.9940 0.9940 0.9950 0.9950 0.9970
1538.193372 0.9970 0.9970 0.9970 0.9970 0.9970
1542.566554 0.9980 0.9980 0.9980 0.9980 0.9980
1546.939735 0.9980 0.9980 0.9980 0.9980 0.9980
1551.312917 0.9980 0.9980 0.9980 0.9980 0.9980
1555.686098 0.9980 0.9980 0.9980 0.9980 0.9980
1560.059280 0.9970 0.9970 0.9970 0.9980 0.9980
1564.432461 0.9980 0.9980 0.9980 1.0000 1.0000
1568.805643 1.0000 1.0000 1.0000 1.0000 1.0000
1573.178824 1.0010 1.0010 1.0010 1.0010 1.0010
1577.552006 1.0000 1.0000 1.0000 1.0000 1.0000
1581.925187 1.0000 1.0000 1.0000 1.0000 1.0000
1586.298369 1.0000 1.0000 0.9980 0.9980 0.9980
1590.671550 0.9980 0.9980 0.9980 0.9980 0.9980
1595.044732 0.9980 0.9970 0.9970 0.9970 0.9970
1599.417913 0.9940 0.9940 0.9940 0.9940 0.9940
1603.791095 0.9940 0.9940 0.9930 0.9930 0.9930
1608.164276 0.9930 0.9930 0.9930 0.9930 0.9940
1612.537458 0.9940 0.9940 0.9940 0.9940 0.9940
1616.910639 0.9940 0.9940 0.9940 0.9940 0.9940
1621.283821 0.9940 0.9930 0.9930 0.9930 0.9930
1625.657002 0.9930 0.9930 0.9930 0.9930 0.9930
1630.030184 0.9930 0.9930 0.9930 0.9940 0.9940
1634.403365 0.9940 0.9940 0.9940 0.9940 0.9940
1638.776547 0.9950 0.9950 0.9950 0.9950 0.9950
1643.149728 0.9970 0.9970 0.9970 0.9970 0.9970
1647.522910 0.9970 0.9970 0.9970 0.9970 0.9970
1651.896091 0.9970 0.9970 0.9970 0.9970 0.9970
1656.269273 0.9970 0.9970 0.9970 0.9970 0.9980
1660.642454 0.9980 0.9980 0.9980 0.9980 0.9980
1665.015636 0.9980 0.9980 0.9980 1.0000 1.0000
1669.388817 1.0000 1.0000 1.0000 1.0000 1.0000
1673.761999 1.0000 1.0000 1.0000 1.0000 1.0000
1678.135180 1.0000 1.0000 1.0010 1.0010 1.0010
1682.508362 1.0010 1.0010 1.0010 1.0010 1.0010
1686.881543 1.0010 1.0010 1.0010 1.0010 1.0010
1691.254725 1.0010 1.0020 1.0020 1.0020 1.0020
1695.627906 1.0020 1.0020 1.0020 1.0020 1.0040
1700.001088 1.0040 1.0040 1.0040 1.0040 1.0040
1704.374269 1.0040 1.0040 1.0040 1.0040 1.0040
1708.747451 1.0040 1.0040 1.0040 1.0040 1.0040
1713.120632 1.0040 1.0040 1.0040 1.0040 1.0040
1717.493814 1.0040 1.0040 1.0040 1.0040 1.0040
1721.866995 1.0040 1.0040 1.0040 1.0040 1.0040
1726.240177 1.0040 1.0040 1.0040 1.0040 1.0040
1730.613358 1.0040 1.0040 1.0040 1.0040 1.0040
1734.986540 1.0040 1.0040 1.0040 1.0040 1.0040
1739.359721 1.0040 1.0040 1.0040 1.0040 1.0040
1743.732903 1.0050 1.0050 1.0050 1.0050 1.0050
1748.106084 1.0050 1.0050 1.0050 1.0050 1.0050
1752.479266 1.0050 1.0050 1.0050 1.0060 1.0060
1756.852447 1.0060 1.0080 1.0060 1.0060 1.0060
1761.225629 1.0060 1.0060 1.0060 1.0060 1.0060
1765.598810 1.0060 1.0060 1.0060 1.0060 1.0060
1769.971992 1.0060 1.0060 1.0060 1.0060 1.0060
1774.345173 1.0060 1.0060 1.0060 1.0060 1.0060
1778.718355 1.0060 1.0060 1.0060 1.0060 1.0060
1783.091536 1.0060 1.0060 1.0050 1.0050 1.0050
1787.464718 1.0050 1.0050 1.0050 1.0050 1.0050
1791.837899 1.0050 1.0050 1.0050 1.0050 1.0050
1796.211081 1.0050 1.0050 1.0050 1.0050 1.0050
1800.584262 1.0050 1.0050 1.0050 1.0050 1.0050
1804.957444 1.0050 1.0050 1.0050 1.0050 1.0050
1809.330625 1.0040 1.0040 1.0040 1.0040 1.0040
1813.703807 1.0040 1.0040 1.0040 1.0040 1.0040
1818.076988 1.0040 1.0040 1.0040 1.0040 1.0040
1822.450170 1.0040 1.0040 1.0040 1.0040 1.0040
1826.823351 1.0040 1.0050 1.0050 1.0060 1.0060
1831.196533 1.0060 1.0080 1.0080 1.0080 1.0080
1835.569714 1.0060 1.0060 1.0060 1.0060 1.0060
1839.942896 1.0080 1.0080 1.0080 1.0080 1.0080
1844.316077 1.0060 1.0060 1.0050 1.0050 1.0050
1848.689259 1.0050 1.0050 1.0040 1.0040 1.0040
1853.062440 1.0040 1.0040 1.0050 1.0050 1.0050
1857.435622 1.0060 1.0080 1.0090 1.0090 1.0090
1861.808803 1.0090 1.0080 1.0080 1.0080 1.0080
1866.181985 1.0060 1.0060 1.0060 1.0060 1.0060
1870.555166 1.0060 1.0060 1.0060 1.0060 1.0060
1874.928348 1.0060 1.0060 1.0060 1.0060 1.0060
1879.301529 1.0060 1.0060 1.0060 1.0060 1.0060
1883.674711 1.0060 1.0060 1.0060 1.0060 1.0060
1888.047893 1.0060 1.0060 1.0060 1.0060 1.0060
1892.421074 1.0060 1.0060 1.0060 1.0060 1.0060
1896.794256 1.0060 1.0060 1.0060 1.0060 1.0060
1901.167437 1.0060 1.0060 1.0060 1.0060 1.0060
1905.540619 1.0060 1.0060 1.0060 1.0060 1.0060
1909.913800 1.0060 1.0060 1.0060 1.0060 1.0060
1914.286982 1.0060 1.0080 1.0080 1.0080 1.0080
1918.660163 1.0080 1.0080 1.0080 1.0080 1.0080
1923.033345 1.0080 1.0080 1.0080 1.0080 1.0080
1927.406526 1.0080 1.0080 1.0080 1.0080 1.0080
1931.779708 1.0080 1.0080 1.0080 1.0080 1.0080
1936.152889 1.0080 1.0080 1.0080 1.0080 1.0080
1940.526071 1.0080 1.0080 1.0080 1.0080 1.0080
1944.899252 1.0080 1.0080 1.0080 1.0080 1.0080
1949.272434 1.0080 1.0080 1.0080 1.0080 1.0080
1953.645615 1.0080 1.0080 1.0080 1.0080 1.0080
1958.018797 1.0080 1.0080 1.0080 1.0080 1.0080
1962.391978 1.0080 1.0090 1.0090 1.0090 1.0090
1966.765160 1.0090 1.0090 1.0090 1.0090 1.0090
1971.138341 1.0090 1.0090 1.0090 1.0090 1.0090
1975.511523 1.0090 1.0090 1.0090 1.0090 1.0090
1979.884704 1.0090 1.0090 1.0090 1.0090 1.0090
1984.257886 1.0090 1.0090 1.0090 1.0090 1.0090
1988.631067 1.0090 1.0090 1.0080 1.0080 1.0080
1993.004249 1.0080 1.0080 1.0080 1.0080 1.0080
1997.377430 1.0080 1.0080 1.0060 1.0060 1.0055
2001.750612 1.0050 1.0045 1.0040 1.0040 1.0040
2006.123793 1.0030 1.0020 1.0015 1.0010 1.0005
2010.496975 1.0000 1.0000 1.0000 0.9990 0.9980
2014.870156 0.9980 0.9980 0.9980 0.9980 0.9975
2019.243338 0.9970 0.9970 0.9970 0.9960 0.9950
2023.616519 0.9950 0.9950 0.9950 0.9950 0.9950
2027.989701 0.9950 0.9960 0.9970 0.9970 0.9970
2032.362882 0.9970 0.9970 0.9975 0.9980 0.9980
2036.736064 0.9980 0.9980 0.9980 0.9980 0.9980
2041.109245 0.9980 0.9980 0.9980 0.9980 0.9980
2045.482427 0.9980 0.9980 0.9980 0.9980 0.9980
2049.855608 0.9980 0.9980 0.9980 0.9980 0.9980
2054.228790 0.9980 0.9980 0.9980 0.9980 0.9980
2058.601971 0.9980 0.9980 0.9980 0.9980 0.9980
2062.975153 0.9980 0.9980 0.9980 0.9980 0.9980
2067.348334 0.9980 0.9980 0.9980 0.9980 0.9980
2071.721516 0.9980 0.9975 0.9970 0.9970 0.9970
2076.094697 0.9970 0.9970 0.9970 0.9970 0.9960
2080.467879 0.9950 0.9950 0.9950 0.9950 0.9950
2084.841060 0.9945 0.9940 0.9935 0.9930 0.9935
2089.214242 0.9940 0.9935 0.9930 0.9920 0.9910
2093.587423 0.9910 0.9910 0.9905 0.9900 0.9895
2097.960605 0.9890 0.9890 0.9890 0.9881 0.9871
2102.333786 0.9851 0.9831 0.9825 0.9820 0.9810
2106.706968 0.9801 0.9795 0.9790 0.9785 0.9780
2111.080149 0.9771 0.9761 0.9751 0.9741 0.9740
2115.453331 0.9740 0.9731 0.9721 0.9720 0.9720
2119.826512 0.9715 0.9710 0.9710 0.9710 0.9701
2124.199694 0.9691 0.9685 0.9680 0.9680 0.9680
2128.572875 0.9685 0.9690 0.9690 0.9690 0.9699
2132.946057 0.9709 0.9710 0.9710 0.9710 0.9710
2137.319238 0.9715 0.9720 0.9720 0.9720 0.9729
2141.692420 0.9739 0.9745 0.9750 0.9755 0.9760
2146.065601 0.9760 0.9760 0.9774 0.9789 0.9790
2150.438783 0.9790 0.9795 0.9800 0.9800 0.9800
2154.811964 0.9814 0.9829 0.9830 0.9830 0.9835
2159.185146 0.9840 0.9849 0.9859 0.9865 0.9870
2163.558327 0.9879 0.9889 0.9890 0.9890 0.9890
2167.931509 0.9890 0.9895 0.9900 0.9900 0.9900
2172.304690 0.9900 0.9900 0.9905 0.9910 0.9910
2176.677872 0.9910 0.9910 0.9910 0.9910 0.9910
2181.051053 0.9910 0.9910 0.9910 0.9910 0.9905
2185.424235 0.9900 0.9900 0.9900 0.9896 0.9891
2189.797416 0.9863 0.9833 0.9825 0.9820 0.9806
2194.170598 0.9791 0.9776 0.9761 0.9737 0.9712
2198.543779 0.9692 0.9672 0.9670 0.9670 0.9643
2202.916961 0.9613 0.9574 0.9534 0.9517 0.9502
2207.290142 0.9491 0.9481 0.9458 0.9432 0.9371
2211.663324 0.9307 0.9233 0.9158 0.9132 0.9112
2216.036505 0.9052 0.8987 0.8944 0.8904 0.8816
2220.409687 0.8721 0.8591 0.8456 0.8295 0.8130
2224.782868 0.7978 0.7828 0.7686 0.7545 0.7115
2229.156050 0.6651 0.6106 0.5552 0.5384 0.5264
2233.529231 0.5140 0.5015 0.4771 0.4511 0.3944
2237.902413 0.3335 0.3046 0.2801 0.2303 0.1769
2242.275594 0.1674 0.1644 0.1627 0.1612 0.1606
2246.648776 0.1601 0.1538 0.1468 0.1416 0.1366
2251.021957 0.1356 0.1351 0.1354 0.1359 0.1377
2255.395139 0.1397 0.1413 0.1428 0.1417 0.1402
2259.768320 0.1254 0.1084 0.1043 0.1022 0.0998
2264.141502 0.0973 0.0926 0.0876 0.0835 0.0795
2268.514683 0.0790 0.0790 0.0829 0.0874 0.0936
2272.887865 0.1001 0.1074 0.1149 0.1190 0.1225
2277.261046 0.1268 0.1313 0.1367 0.1423 0.1473
2281.634228 0.1523 0.1569 0.1614 0.1723 0.1843
2286.007409 0.1869 0.1879 0.1829 0.1769 0.1700
2290.380591 0.1630 0.1573 0.1518 0.1502 0.1492
2294.753772 0.1389 0.1269 0.1250 0.1250 0.1555
2299.126954 0.1909 0.2110 0.2285 0.2485 0.2690
2303.500135 0.2933 0.3182 0.3228 0.3238 0.3295
2307.873317 0.3360 0.3429 0.3499 0.3615 0.3740
2312.246498 0.3856 0.3971 0.4041 0.4101 0.4136
2316.619680 0.4165 0.4208 0.4253 0.4285 0.4315
2320.992861 0.4387 0.4467 0.4543 0.4618 0.4684
2325.366043 0.4749 0.4781 0.4806 0.4843 0.4883
2329.739224 0.4936 0.4990 0.5025 0.5055 0.5077
2334.112406 0.5097 0.5108 0.5118 0.5133 0.5148
2338.485587 0.5350 0.5590 0.5742 0.5877 0.6223
2342.858769 0.6613 0.6750 0.6835 0.6961 0.7096
2347.231950 0.7173 0.7238 0.7328 0.7424 0.7507
2351.605132 0.7587 0.7671 0.7756 0.7840 0.7925
2355.978313 0.7965 0.7995 0.8016 0.8036 0.8122
2360.351495 0.8222 0.8301 0.8376 0.8451 0.8526
2364.724676 0.8568 0.8603 0.8651 0.8701 0.8768
2369.097858 0.8838 0.8961 0.9096 0.9214 0.9329
2373.471039 0.9428 0.9523 0.9552 0.9567 0.9582
2377.844221 0.9597 0.9636 0.9681 0.9726 0.9771
2382.217402 0.9796 0.9816 0.9836 0.9856 0.9864
2386.590584 0.9869 0.9882 0.9897 0.9912 0.9927
2390.963765 0.9934 0.9939 0.9944 0.9949 0.9950
2395.336947 0.9950 0.9958 0.9968 0.9970 0.9970
2399.710128 0.9974 0.9979 0.9980 0.9980 0.9980
2404.083310 0.9980 0.9980 0.9980 0.9980 0.9980
2408.456491 0.9980 0.9980 0.9980 0.9980 0.9980
2412.829673 0.9980 0.9980 0.9980 0.9976 0.9971
2417.202854 0.9970 0.9970 0.9970 0.9970 0.9958
2421.576036 0.9943 0.9940 0.9940 0.9936 0.9931
2425.949217 0.9930 0.9930 0.9922 0.9912 0.9902
2430.322399 0.9892 0.9882 0.9872 0.9858 0.9843
2434.695580 0.9836 0.9831 0.9818 0.9803 0.9796
2439.068762 0.9791 0.9786 0.9781 0.9772 0.9762
2443.441943 0.9752 0.9742 0.9732 0.9722 0.9708
2447.815125 0.9693 0.9682 0.9672 0.9662 0.9652
2452.188306 0.9642 0.9632 0.9630 0.9630 0.9622
2456.561488 0.9612 0.9606 0.9601 0.9600 0.9600
2460.934669 0.9600 0.9600 0.9600 0.9600 0.9592
2465.307851 0.9582 0.9580 0.9580 0.9580 0.9580
2469.681032 0.9580 0.9580 0.9580 0.9580 0.9588
2474.054214 0.9598 0.9600 0.9600 0.9612 0.9627
2478.427395 0.9634 0.9639 0.9651 0.9666 0.9678
2482.800577 0.9688 0.9709 0.9734 0.9744 0.9749
2487.173758 0.9750 0.9750 0.9761 0.9777 0.9788
2491.546940 0.9798 0.9811 0.9826 0.9834 0.9839
2495.920121 0.9848 0.9858 0.9864 0.9869 0.9885
2500.293303 0.9905 0.9918 0.9928 0.9934 0.9939
2504.666484 0.9944 0.9949 0.9950 0.9950 0.9958
2509.039666 0.9968 0.9974 0.9979 0.9980 0.9980
2513.412847 0.9988 0.9998 1.0004 1.0009 1.0010
2517.786029 1.0010 1.0014 1.0019 1.0020 1.0020
2522.159210 1.0027 1.0037 1.0033 1.0023 1.0020
2526.532392 1.0020 1.0020 1.0020 1.0020 1.0020
2530.905573 1.0020 1.0020 1.0020 1.0020 1.0020
2535.278755 1.0020 1.0020 1.0020 1.0020 1.0020
2539.651936 1.0020 1.0020 1.0027 1.0037 1.0040
2544.025118 1.0040 1.0044 1.0049 1.0050 1.0050
2548.398299 1.0046 1.0041 1.0040 1.0040 1.0040
2552.771481 1.0040 1.0040 1.0040 1.0033 1.0023
2557.144662 1.0020 1.0020 1.0020 1.0020 1.0020
2561.517844 1.0020 1.0020 1.0020 1.0020 1.0020
2565.891025 1.0027 1.0037 1.0040 1.0040 1.0040
2570.264207 1.0040 1.0044 1.0049 1.0050 1.0050
2574.637388 1.0046 1.0041 1.0040 1.0040 1.0040
2579.010570 1.0040 1.0040 1.0040 1.0040 1.0040
2583.383751 1.0040 1.0040 1.0040 1.0040 1.0033
2587.756933 1.0023 1.0020 1.0020 1.0020 1.0020
2592.130114 1.0020 1.0020 1.0020 1.0020 1.0020
2596.503296 1.0020 1.0020 1.0020 1.0020 1.0020
2600.876477 1.0027 1.0037 1.0040 1.0040 1.0040
2605.249659 1.0040 1.0040 1.0040 1.0040 1.0040
2609.622840 1.0040 1.0040 1.0040 1.0040 1.0040
2613.996022 1.0040 1.0040 1.0040 1.0044 1.0049
2618.369203 1.0050 1.0050 1.0050 1.0050 1.0050
2622.742385 1.0050 1.0050 1.0050 1.0050 1.0050
2627.115566 1.0050 1.0050 1.0050 1.0050 1.0050
2631.488748 1.0050 1.0050 1.0050 1.0050 1.0050
2635.861930 1.0050 1.0050 1.0050 1.0050 1.0050
2640.235111 1.0050 1.0050 1.0050 1.0050 1.0050
2644.608293 1.0050 1.0050 1.0050 1.0050 1.0050
2648.981474 1.0050 1.0050 1.0050 1.0050 1.0050
2653.354656 1.0050 1.0050 1.0050 1.0050 1.0050
2657.727837 1.0050 1.0050 1.0050 1.0050 1.0050
2662.101019 1.0050 1.0050 1.0050 1.0050 1.0050
2666.474200 1.0050 1.0050 1.0050 1.0050 1.0050
2670.847382 1.0050 1.0050 1.0050 1.0050 1.0050
2675.220563 1.0050 1.0050 1.0050 1.0050 1.0050
2679.593745 1.0050 1.0050 1.0050 1.0050 1.0050
2683.966926 1.0050 1.0050 1.0050 1.0050 1.0050
2688.340108 1.0050 1.0050 1.0050 1.0050 1.0050
2692.713289 1.0050 1.0050 1.0050 1.0050 1.0050
2697.086471 1.0050 1.0050 1.0050 1.0050 1.0050
2701.459652 1.0050 1.0050 1.0050 1.0050 1.0050
2705.832834 1.0050 1.0050 1.0050 1.0050 1.0050
2710.206015 1.0050 1.0050 1.0050 1.0050 1.0050
2714.579197 1.0050 1.0050 1.0050 1.0050 1.0050
2718.952378 1.0050 1.0050 1.0050 1.0050 1.0050
2723.325560 1.0050 1.0050 1.0050 1.0050 1.0050
2727.698741 1.0050 1.0050 1.0050 1.0050 1.0050
2732.071923 1.0050 1.0050 1.0053 1.0058 1.0060
2736.445104 1.0060 1.0060 1.0060 1.0060 1.0060
2740.818286 1.0060 1.0060 1.0060 1.0060 1.0060
2745.191467 1.0060 1.0066 1.0076 1.0080 1.0080
2749.564649 1.0080 1.0080 1.0080 1.0080 1.0074
2753.937830 1.0064 1.0060 1.0060 1.0060 1.0060
2758.311012 1.0060 1.0060 1.0060 1.0060 1.0057
2762.684193 1.0052 1.0050 1.0050 1.0050 1.0050
2767.057375 1.0050 1.0050 1.0050 1.0050 1.0050
2771.430556 1.0050 1.0050 1.0050 1.0050 1.0050
2775.803738 1.0047 1.0042 1.0040 1.0040 1.0040
2780.176919 1.0040 1.0040 1.0040 1.0040 1.0040
2784.550101 1.0040 1.0040 1.0040 1.0040 1.0040
2788.923282 1.0040 1.0040 1.0040 1.0040 1.0040
2793.296464 1.0040 1.0040 1.0040 1.0040 1.0034
2797.669645 1.0024 1.0017 1.0012 1.0007 1.0002
2802.042827 0.9994 0.9984 0.9971 0.9956 0.9947
2806.416008 0.9942 0.9940 0.9940 0.9937 0.9932
2810.789190 0.9924 0.9914 0.9910 0.9910 0.9907
2815.162371 0.9902 0.9897 0.9892 0.9884 0.9874
2819.535553 0.9870 0.9870 0.9861 0.9846 0.9834
2823.908734 0.9824 0.9814 0.9804 0.9800 0.9800
2828.281916 0.9806 0.9816 0.9826 0.9836 0.9846
2832.655097 0.9856 0.9869 0.9884 0.9893 0.9898
2837.028279 0.9903 0.9908 0.9910 0.9910 0.9916
2841.401460 0.9926 0.9930 0.9930 0.9930 0.9930
2845.774642 0.9930 0.9930 0.9930 0.9930 0.9930
2850.147823 0.9930 0.9921 0.9906 0.9897 0.9892
2854.521005 0.9890 0.9890 0.9890 0.9890 0.9890
2858.894186 0.9890 0.9890 0.9890 0.9884 0.9874
2863.267368 0.9870 0.9870 0.9867 0.9862 0.9854
2867.640549 0.9844 0.9840 0.9840 0.9837 0.9832
2872.013731 0.9827 0.9822 0.9820 0.9820 0.9814
2876.386912 0.9804 0.9800 0.9800 0.9800 0.9800
2880.760094 0.9797 0.9792 0.9787 0.9782 0.9780
2885.133275 0.9780 0.9771 0.9757 0.9747 0.9742
2889.506457 0.9726 0.9701 0.9676 0.9651 0.9637
2893.879638 0.9632 0.9624 0.9614 0.9601 0.9586
2898.252820 0.9574 0.9564 0.9554 0.9544 0.9537
2902.626001 0.9532 0.9522 0.9507 0.9497 0.9492
2906.999183 0.9487 0.9482 0.9472 0.9457 0.9439
2911.372364 0.9419 0.9402 0.9387 0.9372 0.9357
2915.745546 0.9342 0.9327 0.9317 0.9312 0.9307
2920.118727 0.9302 0.9294 0.9285 0.9280 0.9280
2924.491909 0.9280 0.9280 0.9277 0.9272 0.9270
2928.865090 0.9270 0.9267 0.9262 0.9260 0.9260
2933.238272 0.9252 0.9237 0.9214 0.9184 0.9167
2937.611453 0.9162 0.9149 0.9129 0.9098 0.9058
2941.984635 0.9021 0.8986 0.8959 0.8939 0.8908
2946.357816 0.8868 0.8842 0.8827 0.8820 0.8820
2950.730998 0.8823 0.8828 0.8846 0.8876 0.8893
2955.104179 0.8898 0.8903 0.8908 0.8907 0.8902
2959.477361 0.8892 0.8877 0.8865 0.8855 0.8842
2963.850542 0.8827 0.8820 0.8820 0.8823 0.8828
2968.223724 0.8838 0.8853 0.8879 0.8914 0.8954
2972.596905 0.8999 0.9038 0.9073 0.9106 0.9136
2976.970087 0.9155 0.9165 0.9188 0.9224 0.9267
2981.343268 0.9317 0.9348 0.9363 0.9375 0.9385
2985.716450 0.9395 0.9405 0.9413 0.9418 0.9423
2990.089631 0.9428 0.9435 0.9445 0.9450 0.9450
2994.462813 0.9450 0.9450 0.9453 0.9458 0.9465
2998.835994 0.9475 0.9480 0.9480 0.9480 0.9480
3003.209176 0.9483 0.9488 0.9490 0.9490 0.9490
3007.582357 0.9490 0.9493 0.9498 0.9505 0.9515
3011.955539 0.9523 0.9528 0.9533 0.9538 0.9540
3016.328720 0.9540 0.9540 0.9540 0.9545 0.9555
3020.701902 0.9560 0.9560 0.9560 0.9560 0.9563
3025.075083 0.9568 0.9570 0.9570 0.9572 0.9577
3029.448265 0.9580 0.9580 0.9587 0.9603 0.9615
3033.821446 0.9625 0.9630 0.9630 0.9633 0.9638
3038.194628 0.9650 0.9670 0.9680 0.9680 0.9682
3042.567809 0.9687 0.9690 0.9690 0.9690 0.9690
3046.940991 0.9695 0.9705 0.9710 0.9710 0.9710
3051.314172 0.9710 0.9710 0.9710 0.9710 0.9710
3055.687354 0.9712 0.9717 0.9725 0.9735 0.9742
3060.060535 0.9747 0.9752 0.9757 0.9765 0.9775
3064.433717 0.9780 0.9780 0.9782 0.9787 0.9792
3068.806898 0.9797 0.9800 0.9800 0.9805 0.9815
3073.180080 0.9820 0.9820 0.9820 0.9820 0.9820
3077.553261 0.9820 0.9822 0.9827 0.9830 0.9830
3081.926443 0.9832 0.9837 0.9840 0.9840 0.9840
3086.299624 0.9840 0.9845 0.9855 0.9860 0.9860
3090.672806 0.9860 0.9860 0.9860 0.9860 0.9860
3095.045987 0.9860 0.9860 0.9860 0.9860 0.9860
3099.419169 0.9855 0.9845 0.9840 0.9840 0.9840
3103.792350 0.9840 0.9838 0.9833 0.9828 0.9823
3108.165532 0.9815 0.9805 0.9798 0.9793 0.9790
3112.538713 0.9790 0.9790 0.9790 0.9797 0.9812
3116.911895 0.9820 0.9820 0.9820 0.9820 0.9815
3121.285076 0.9805 0.9798 0.9793 0.9788 0.9783
3125.658258 0.9775 0.9765 0.9758 0.9753 0.9750
3130.031439 0.9750 0.9750 0.9750 0.9752 0.9757
3134.404621 0.9764 0.9774 0.9780 0.9780 0.9782
3138.777802 0.9787 0.9790 0.9790 0.9790 0.9790
3143.150984 0.9790 0.9790 0.9790 0.9790 0.9790
3147.524165 0.9790 0.9790 0.9790 0.9788 0.9783
3151.897347 0.9780 0.9780 0.9776 0.9766 0.9760
3156.270528 0.9760 0.9760 0.9760 0.9758 0.9753
3160.643710 0.9748 0.9743 0.9740 0.9740 0.9736
3165.016891 0.9726 0.9718 0.9713 0.9710 0.9710
3169.390073 0.9710 0.9710 0.9710 0.9710 0.9710
3173.763254 0.9710 0.9712 0.9717 0.9724 0.9734
3178.136436 0.9740 0.9740 0.9742 0.9747 0.9750
3182.509617 0.9750 0.9752 0.9757 0.9760 0.9760
3186.882799 0.9760 0.9760 0.9764 0.9774 0.9780
3191.255980 0.9780 0.9780 0.9780 0.9780 0.9780
3195.629162 0.9780 0.9780 0.9776 0.9766 0.9760
3200.002343 0.9760 0.9760 0.9760 0.9764 0.9774
3204.375525 0.9780 0.9780 0.9784 0.9794 0.9804
3208.748706 0.9814 0.9822 0.9827 0.9832 0.9837
3213.121888 0.9840 0.9840 0.9850 0.9875 0.9892
3217.495069 0.9897 0.9902 0.9907 0.9910 0.9910
3221.868251 0.9914 0.9924 0.9932 0.9937 0.9942
3226.241432 0.9947 0.9950 0.9950 0.9950 0.9950
3230.614614 0.9954 0.9964 0.9970 0.9970 0.9970
3234.987795 0.9970 0.9970 0.9970 0.9970 0.9970
3239.360977 0.9970 0.9970 0.9970 0.9970 0.9970
3243.734158 0.9970 0.9970 0.9970 0.9970 0.9970
3248.107340 0.9970 0.9970 0.9970 0.9970 0.9970
3252.480521 0.9970 0.9970 0.9970 0.9966 0.9956
3256.853703 0.9950 0.9950 0.9950 0.9950 0.9950
3261.226884 0.9950 0.9950 0.9950 0.9950 0.9950
3265.600066 0.9950 0.9950 0.9948 0.9943 0.9940
3269.973247 0.9940 0.9940 0.9940 0.9940 0.9940
3274.346429 0.9940 0.9940 0.9940 0.9940 0.9942
3278.719610 0.9947 0.9954 0.9964 0.9970 0.9970
3283.092792 0.9972 0.9977 0.9980 0.9980 0.9980
3287.465973 0.9980 0.9980 0.9980 0.9980 0.9980
3291.839155 0.9984 0.9994 1.0000 1.0000 1.0000
3296.212336 1.0000 1.0000 1.0000 1.0000 1.0000
3300.585518 1.0000 1.0000 1.0000 1.0000 1.0000
3304.958699 1.0000 1.0000 1.0000 1.0000 1.0000
3309.331881 1.0000 1.0000 0.9996 0.9986 0.9980
3313.705062 0.9980 0.9980 0.9980 0.9978 0.9973
3318.078244 0.9966 0.9956 0.9950 0.9950 0.9946
3322.451425 0.9936 0.9925 0.9910 0.9898 0.9893
3326.824607 0.9886 0.9876 0.9870 0.9870 0.9870
3331.197788 0.9870 0.9868 0.9863 0.9860 0.9860
3335.570970 0.9860 0.9860 0.9860 0.9860 0.9860
3339.944151 0.9860 0.9862 0.9867 0.9870 0.9870
3344.317333 0.9870 0.9870 0.9870 0.9870 0.9870
3348.690514 0.9870 0.9870 0.9870 0.9870 0.9870
3353.063696 0.9870 0.9870 0.9870 0.9870 0.9870
3357.436877 0.9870 0.9870 0.9870 0.9873 0.9883
3361.810059 0.9890 0.9890 0.9890 0.9890 0.9890
3366.183240 0.9890 0.9890 0.9890 0.9890 0.9890
3370.556422 0.9890 0.9890 0.9890 0.9890 0.9890
3374.929603 0.9890 0.9890 0.9890 0.9890 0.9890
3379.302785 0.9887 0.9877 0.9870 0.9870 0.9870
3383.675967 0.9870 0.9868 0.9863 0.9857 0.9847
3388.049148 0.9840 0.9840 0.9840 0.9840 0.9840
3392.422330 0.9840 0.9840 0.9840 0.9840 0.9840
3396.795511 0.9838 0.9833 0.9830 0.9830 0.9828
3401.168693 0.9823 0.9820 0.9820 0.9820 0.9820
3405.541874 0.9820 0.9820 0.9820 0.9820 0.9820
3409.915056 0.9820 0.9817 0.9807 0.9800 0.9800
3414.288237 0.9800 0.9800 0.9800 0.9800 0.9800
3418.661419 0.9800 0.9800 0.9800 0.9800 0.9800
3423.034600 0.9800 0.9800 0.9800 0.9800 0.9800
3427.407782 0.9800 0.9800 0.9800 0.9800 0.9800
3431.780963 0.9803 0.9813 0.9820 0.9820 0.9820
3436.154145 0.9820 0.9820 0.9820 0.9820 0.9820
3440.527326 0.9820 0.9820 0.9820 0.9820 0.9820
3444.900508 0.9820 0.9820 0.9820 0.9821 0.9826
3449.273689 0.9830 0.9830 0.9830 0.9830 0.9830
3453.646871 0.9830 0.9828 0.9823 0.9820 0.9820
3458.020052 0.9820 0.9820 0.9820 0.9820 0.9817
3462.393234 0.9807 0.9800 0.9800 0.9800 0.9800
3466.766415 0.9800 0.9800 0.9800 0.9800 0.9800
3471.139597 0.9800 0.9803 0.9813 0.9820 0.9820
3475.512778 0.9820 0.9820 0.9821 0.9826 0.9830
3479.885960 0.9830 0.9830 0.9830 0.9831 0.9836
3484.259141 0.9840 0.9840 0.9840 0.9840 0.9840
3488.632323 0.9840 0.9840 0.9840 0.9840 0.9840
3493.005504 0.9840 0.9840 0.9840 0.9840 0.9840
3497.378686 0.9840 0.9839 0.9834 0.9830 0.9830
3501.751867 0.9830 0.9830 0.9830 0.9830 0.9830
3506.125049 0.9830 0.9829 0.9824 0.9820 0.9820
3510.498230 0.9820 0.9820 0.9820 0.9820 0.9820
3514.871412 0.9820 0.9820 0.9820 0.9820 0.9820
3519.244593 0.9817 0.9807 0.9803 0.9813 0.9820
3523.617775 0.9820 0.9820 0.9820 0.9820 0.9820
3527.990956 0.9820 0.9820 0.9821 0.9826 0.9830
3532.364138 0.9830 0.9830 0.9830 0.9830 0.9830
3536.737319 0.9830 0.9830 0.9830 0.9830 0.9830
3541.110501 0.9830 0.9830 0.9830 0.9830 0.9830
3545.483682 0.9830 0.9830 0.9830 0.9830 0.9830
3549.856864 0.9830 0.9830 0.9830 0.9830 0.9830
3554.230045 0.9830 0.9830 0.9829 0.9824 0.9820
3558.603227 0.9820 0.9820 0.9820 0.9820 0.9820
3562.976408 0.9817 0.9807 0.9800 0.9800 0.9800
3567.349590 0.9800 0.9800 0.9800 0.9800 0.9800
3571.722771 0.9800 0.9800 0.9800 0.9800 0.9800
3576.095953 0.9800 0.9800 0.9800 0.9800 0.9800
3580.469134 0.9800 0.9800 0.9800 0.9800 0.9800
3584.842316 0.9800 0.9800 0.9800 0.9800 0.9800
3589.215497 0.9800 0.9800 0.9800 0.9800 0.9800
3593.588679 0.9800 0.9800 0.9800 0.9800 0.9800
3597.961860 0.9800 0.9800 0.9800 0.9800 0.9799
3602.335042 0.9794 0.9790 0.9790 0.9790 0.9790
3606.708223 0.9790 0.9790 0.9790 0.9790 0.9790
3611.081405 0.9790 0.9790 0.9790 0.9790 0.9790
3615.454586 0.9790 0.9790 0.9790 0.9790 0.9790
3619.827768 0.9790 0.9789 0.9784 0.9778 0.9768
3624.200949 0.9760 0.9760 0.9760 0.9760 0.9759
3628.574131 0.9754 0.9750 0.9750 0.9750 0.9750
3632.947312 0.9750 0.9750 0.9750 0.9750 0.9749
3637.320494 0.9744 0.9740 0.9740 0.9740 0.9740
3641.693675 0.9740 0.9740 0.9738 0.9728 0.9720
3646.066857 0.9720 0.9719 0.9714 0.9710 0.9710
3650.440038 0.9708 0.9698 0.9690 0.9690 0.9689
3654.813220 0.9684 0.9680 0.9680 0.9679 0.9674
3659.186401 0.9670 0.9670 0.9670 0.9670 0.9668
3663.559583 0.9658 0.9650 0.9650 0.9649 0.9644
3667.932764 0.9640 0.9640 0.9639 0.9634 0.9630
3672.305946 0.9630 0.9628 0.9618 0.9610 0.9610
3676.679127 0.9609 0.9604 0.9600 0.9600 0.9598
3681.052309 0.9588 0.9580 0.9580 0.9579 0.9574
3685.425490 0.9570 0.9570 0.9570 0.9570 0.9570
3689.798672 0.9570 0.9569 0.9564 0.9560 0.9560
3694.171853 0.9560 0.9560 0.9560 0.9560 0.9560
3698.545035 0.9560 0.9560 0.9560 0.9560 0.9560
3702.918216 0.9561 0.9566 0.9570 0.9570 0.9570
3707.291398 0.9570 0.9570 0.9570 0.9570 0.9570
3711.664579 0.9570 0.9570 0.9570 0.9570 0.9570
3716.037761 0.9570 0.9570 0.9570 0.9570 0.9570
3720.410942 0.9570 0.9570 0.9570 0.9570 0.9569
3724.784124 0.9564 0.9560 0.9560 0.9560 0.9560
3729.157305 0.9558 0.9548 0.9540 0.9540 0.9540
3733.530487 0.9540 0.9540 0.9540 0.9540 0.9540
3737.903668 0.9540 0.9540 0.9539 0.9534 0.9530
3742.276850 0.9530 0.9531 0.9536 0.9540 0.9540
3746.650031 0.9542 0.9552 0.9560 0.9560 0.9561
3751.023213 0.9566 0.9570 0.9570 0.9571 0.9576
3755.396394 0.9580 0.9580 0.9582 0.9592 0.9601
3759.769576 0.9606 0.9610 0.9610 0.9610 0.9610
3764.142757 0.9610 0.9610 0.9610 0.9610 0.9610
3768.515939 0.9610 0.9610 0.9610 0.9612 0.9622
3772.889120 0.9630 0.9630 0.9630 0.9630 0.9630
3777.262302 0.9630 0.9630 0.9630 0.9630 0.9630
3781.635483 0.9630 0.9630 0.9630 0.9630 0.9628
3786.008665 0.9618 0.9610 0.9610 0.9610 0.9610
3790.381846 0.9609 0.9604 0.9600 0.9600
##END=
