##TITLE=2-PENTENE, 2-METHYL-
##JCAMP-DX=4.24
##DATA TYPE=INFRARED SPECTRUM
##CLASS=COBLENTZ III
##ORIGIN=DOW CHEMICAL COMPANY
##OWNER=COBLENTZ SOCIETY
Collection (C) 2018 copyright by the U.S. Secretary of Commerce
on behalf of the United States of America. All rights reserved.
##DATE=1964/09/24
##NAMES=2-methyl-2-pentene
##CAS REGISTRY NO=625-27-4
##MOLFORM=C6 H12
##SOURCE REFERENCE=COBLENTZ NO. 10127
##$NIST SOURCE=COBLENTZ
##$NIST IMAGE=cob10127
##SPECTROMETER/DATA SYSTEM=DOW KBr FOREPRISM-GRATING
##INSTRUMENT PARAMETERS=BLAZED AT 3.5, 12.0, 20.0 MICRON, CHANGED AT 5.0, 7.5, 14.9 MICRON
##STATE=SOLUTION (10% IN CCl4 FOR 3800-1330, 5% IN CS2 FOR 1330-670, AND 10% IN CCl4 FOR 670-460 CM^-^1)
##PATH LENGTH=0.011, 0.021, AND 0.011 CM
$$SPECTRAL CONTAMINATION DUE TO CCl4 AROUND 1550, AND CS2 AROUND 855 CM^-^1
##SAMPLING PROCEDURE=TRANSMISSION
##RESOLUTION=4
##DATA PROCESSING=DIGITIZED BY NIST FROM HARD COPY (FROM TWO SEGMENTS)
##XUNITS=1/CM
##YUNITS=TRANSMITTANCE
##XFACTOR=1.000000
##YFACTOR=1
##DELTAX=0.868623
##FIRSTX=456.46
##LASTX=3794.58
##FIRSTY=0.891
##MAXX=3794.58
##MINX=456.46
##MAXY=1.095
##MINY=0.008
##NPOINTS=3844
##XYDATA=(X++(Y..Y))
456.460000 0.8910 0.8910 0.8890 0.8890 0.8880
460.803117 0.8860 0.8860 0.8860 0.8860 0.8860
465.146234 0.8860 0.8860 0.8860 0.8860 0.8880
469.489351 0.8880 0.8890 0.8910 0.8930 0.8960
473.832468 0.9010 0.9100 0.9120 0.9160 0.9250
478.175585 0.9310 0.9380 0.9450 0.9530 0.9570
482.518702 0.9630 0.9650 0.9700 0.9760 0.9780
486.861819 0.9820 0.9850 0.9870 0.9890 0.9910
491.204936 0.9940 0.9970 0.9980 1.0000 1.0010
495.548053 1.0010 1.0040 1.0050 1.0060 1.0060
499.891170 1.0060 1.0060 1.0060 1.0060 1.0050
504.234287 1.0050 1.0040 1.0040 1.0020 1.0010
508.577404 1.0000 1.0000 0.9950 0.9940 0.9910
512.920521 0.9890 0.9860 0.9830 0.9800 0.9790
517.263638 0.9790 0.9790 0.9820 0.9850 0.9850
521.606755 0.9890 0.9910 0.9930 1.0000 1.0010
525.949872 1.0020 1.0060 1.0080 1.0090 1.0120
530.292988 1.0140 1.0170 1.0200 1.0230 1.0240
534.636105 1.0250 1.0280 1.0290 1.0310 1.0320
538.979222 1.0340 1.0350 1.0380 1.0400 1.0420
543.322339 1.0420 1.0430 1.0440 1.0460 1.0470
547.665456 1.0490 1.0500 1.0500 1.0500 1.0510
552.008573 1.0530 1.0540 1.0570 1.0580 1.0590
556.351690 1.0610 1.0620 1.0640 1.0660 1.0680
560.694807 1.0690 1.0700 1.0700 1.0700 1.0720
565.037924 1.0720 1.0720 1.0720 1.0740 1.0740
569.381041 1.0760 1.0760 1.0770 1.0770 1.0790
573.724158 1.0790 1.0790 1.0800 1.0810 1.0830
578.067275 1.0830 1.0810 1.0810 1.0830 1.0840
582.410392 1.0850 1.0850 1.0870 1.0880 1.0870
586.753509 1.0870 1.0870 1.0850 1.0850 1.0870
591.096626 1.0880 1.0890 1.0910 1.0910 1.0910
595.439743 1.0910 1.0910 1.0920 1.0920 1.0920
599.782860 1.0940 1.0940 1.0940 1.0940 1.0940
604.125977 1.0940 1.0950 1.0950 1.0950 1.0950
608.469094 1.0950 1.0950 1.0950 1.0950 1.0950
612.812211 1.0950 1.0950 1.0950 1.0950 1.0950
617.155328 1.0950 1.0950 1.0950 1.0950 1.0950
621.498445 1.0950 1.0950 1.0950 1.0950 1.0950
625.841562 1.0950 1.0940 1.0940 1.0940 1.0940
630.184679 1.0920 1.0920 1.0920 1.0910 1.0890
634.527796 1.0890 1.0880 1.0850 1.0850 1.0840
638.870913 1.0840 1.0830 1.0810 1.0790 1.0760
643.214030 1.0740 1.0730 1.0700 1.0700 1.0660
647.557147 1.0640 1.0620 1.0620 1.0610 1.0590
651.900264 1.0580 1.0570 1.0570 1.0550 1.0550
656.243381 1.0550 1.0570 1.0580 1.0610 1.0640
660.586498 1.0660 1.0680 1.0690 1.0700 1.0740
664.929615 1.0770 1.0810 1.0830 1.0830 1.0830
669.272732 1.0840 1.0840 1.0840 1.0840 1.0840
673.615848 1.0830 1.0830 1.0830 1.0830 1.0830
677.958965 1.0810 1.0810 1.0810 1.0810 1.0810
682.302082 1.0800 1.0800 1.0800 1.0800 1.0790
686.645199 1.0790 1.0790 1.0790 1.0790 1.0770
690.988316 1.0770 1.0770 1.0770 1.0770 1.0760
695.331433 1.0760 1.0760 1.0760 1.0760 1.0740
699.674550 1.0740 1.0740 1.0740 1.0730 1.0730
704.017667 1.0730 1.0720 1.0720 1.0720 1.0720
708.360784 1.0700 1.0700 1.0690 1.0690 1.0690
712.703901 1.0680 1.0680 1.0660 1.0660 1.0660
717.047018 1.0650 1.0640 1.0640 1.0620 1.0610
721.390135 1.0580 1.0570 1.0550 1.0550 1.0540
725.733252 1.0510 1.0490 1.0470 1.0460 1.0440
730.076369 1.0400 1.0350 1.0310 1.0250 1.0210
734.419486 1.0140 1.0040 1.0000 0.9890 0.9780
738.762603 0.9551 0.9331 0.9161 0.8742 0.8332
743.105720 0.8060 0.7620 0.7490 0.7300 0.7310
747.448837 0.7569 0.7769 0.7969 0.8309 0.8878
751.791954 0.9180 0.9440 0.9550 0.9680 0.9830
756.135071 0.9900 1.0000 1.0050 1.0090 1.0160
760.478188 1.0210 1.0250 1.0270 1.0280 1.0290
764.821305 1.0320 1.0350 1.0380 1.0400 1.0420
769.164422 1.0420 1.0420 1.0430 1.0440 1.0460
773.507539 1.0460 1.0460 1.0470 1.0470 1.0470
777.850656 1.0470 1.0460 1.0460 1.0460 1.0440
782.193773 1.0440 1.0430 1.0420 1.0400 1.0390
786.536890 1.0390 1.0380 1.0380 1.0360 1.0360
790.880007 1.0350 1.0340 1.0320 1.0320 1.0310
795.223124 1.0310 1.0280 1.0270 1.0240 1.0230
799.566241 1.0210 1.0170 1.0130 1.0120 1.0100
803.909358 1.0060 1.0020 1.0010 0.9980 0.9900
808.252475 0.9850 0.9800 0.9780 0.9670 0.9570
812.595592 0.9550 0.9440 0.9330 0.9220 0.9120
816.938709 0.9040 0.8950 0.8890 0.8760 0.8631
821.281825 0.8510 0.8360 0.8290 0.8160 0.7800
825.624942 0.7600 0.7121 0.6811 0.6382 0.5812
829.968059 0.4700 0.4420 0.4120 0.3520 0.3480
834.311176 0.3500 0.3690 0.3810 0.4069 0.4518
838.654293 0.4900 0.5420 0.6030 0.6679 0.7269
842.997410 0.7759 0.8069 0.8180 0.8369 0.8479
847.340527 0.8560 0.8610 0.8620 0.8620 0.8620
851.683644 0.8610 0.8610 0.8610 0.8590 0.8590
856.026761 0.8590 0.8610 0.8610 0.8630 0.8690
860.369878 0.8700 0.8730 0.8780 0.8810 0.8890
864.712995 0.8920 0.8950 0.9010 0.9100 0.9140
869.056112 0.9150 0.9220 0.9270 0.9330 0.9350
873.399229 0.9400 0.9440 0.9480 0.9530 0.9550
877.742346 0.9570 0.9590 0.9630 0.9650 0.9720
882.085463 0.9780 0.9790 0.9800 0.9850 0.9890
886.428580 0.9900 0.9910 0.9940 1.0000 1.0010
890.771697 1.0060 1.0120 1.0160 1.0170 1.0190
895.114814 1.0190 1.0170 1.0160 1.0140 1.0130
899.457931 1.0090 1.0020 0.9940 0.9850 0.9760
903.801048 0.9650 0.9530 0.9341 0.9141 0.9080
908.144165 0.9080 0.9110 0.9250 0.9590 0.9820
912.487282 0.9940 1.0040 1.0130 1.0210 1.0250
916.830399 1.0340 1.0390 1.0460 1.0470 1.0530
921.173516 1.0570 1.0610 1.0610 1.0640 1.0650
925.516633 1.0660 1.0680 1.0690 1.0690 1.0700
929.859750 1.0700 1.0720 1.0720 1.0720 1.0730
934.202867 1.0740 1.0740 1.0760 1.0770 1.0770
938.545984 1.0770 1.0770 1.0770 1.0770 1.0760
942.889101 1.0760 1.0760 1.0760 1.0760 1.0740
947.232218 1.0740 1.0730 1.0730 1.0730 1.0720
951.575335 1.0720 1.0700 1.0700 1.0690 1.0680
955.918452 1.0680 1.0650 1.0620 1.0610 1.0590
960.261569 1.0570 1.0550 1.0510 1.0490 1.0470
964.604685 1.0460 1.0420 1.0400 1.0390 1.0360
968.947802 1.0360 1.0310 1.0250 1.0210 1.0140
973.290919 1.0090 1.0040 1.0000 0.9910 0.9800
977.634036 0.9720 0.9600 0.9440 0.9220 0.8990
981.977153 0.8780 0.8610 0.8520 0.8520 0.8610
986.320270 0.8740 0.8890 0.9110 0.9230 0.9440
990.663387 0.9670 0.9780 0.9870 0.9980 1.0040
995.006504 1.0120 1.0190 1.0230 1.0280 1.0290
999.349621 1.0310 1.0310 1.0290 1.0280 1.0280
1003.692738 1.0270 1.0240 1.0230 1.0190 1.0160
1008.035855 1.0140 1.0140 1.0160 1.0190 1.0210
1012.378972 1.0230 1.0240 1.0280 1.0320 1.0380
1016.722089 1.0400 1.0420 1.0430 1.0430 1.0470
1021.065206 1.0490 1.0490 1.0490 1.0470 1.0470
1025.408323 1.0470 1.0460 1.0440 1.0440 1.0440
1029.751440 1.0440 1.0420 1.0400 1.0390 1.0360
1034.094557 1.0360 1.0360 1.0340 1.0320 1.0290
1038.437674 1.0280 1.0270 1.0240 1.0170 1.0120
1042.780791 1.0090 1.0050 1.0020 1.0000 0.9910
1047.123908 0.9850 0.9790 0.9750 0.9610 0.9490
1051.467025 0.9370 0.9230 0.9120 0.8821 0.8700
1055.810142 0.8520 0.8280 0.8100 0.7900 0.7600
1060.153259 0.7161 0.6851 0.6670 0.6670 0.6889
1064.496376 0.7050 0.7190 0.7410 0.7560 0.7610
1068.839493 0.7650 0.7690 0.7840 0.7980 0.8129
1073.182610 0.8461 0.8851 0.9260 0.9370 0.9550
1077.525727 0.9630 0.9750 0.9790 0.9900 1.0000
1081.868844 1.0050 1.0080 1.0100 1.0130 1.0160
1086.211961 1.0230 1.0240 1.0250 1.0270 1.0290
1090.555078 1.0320 1.0340 1.0360 1.0360 1.0380
1094.898195 1.0380 1.0380 1.0380 1.0380 1.0360
1099.241312 1.0360 1.0360 1.0360 1.0350 1.0350
1103.584429 1.0320 1.0310 1.0290 1.0270 1.0240
1107.927545 1.0170 1.0160 1.0080 1.0010 0.9890
1112.270662 0.9790 0.9710 0.9610 0.9460 0.9380
1116.613779 0.9200 0.8990 0.8800 0.8700 0.8410
1120.956896 0.8010 0.7950 0.7950 0.8199 0.8369
1125.300013 0.8630 0.8960 0.9490 0.9820 0.9980
1129.643130 1.0120 1.0250 1.0360 1.0440 1.0470
1133.986247 1.0490 1.0500 1.0530 1.0570 1.0580
1138.329364 1.0610 1.0620 1.0620 1.0640 1.0640
1142.672481 1.0640 1.0660 1.0690 1.0720 1.0740
1147.015598 1.0740 1.0740 1.0760 1.0740 1.0740
1151.358715 1.0740 1.0760 1.0770 1.0790 1.0800
1155.701832 1.0810 1.0810 1.0810 1.0810 1.0830
1160.044949 1.0830 1.0830 1.0830 1.0830 1.0810
1164.388066 1.0810 1.0830 1.0840 1.0840 1.0850
1168.731183 1.0870 1.0870 1.0870 1.0870 1.0870
1173.074300 1.0850 1.0840 1.0830 1.0830 1.0830
1177.417417 1.0810 1.0790 1.0730 1.0700 1.0720
1181.760534 1.0730 1.0760 1.0790 1.0790 1.0790
1186.103651 1.0790 1.0760 1.0740 1.0740 1.0740
1190.446768 1.0730 1.0720 1.0720 1.0680 1.0650
1194.789885 1.0620 1.0580 1.0530 1.0470 1.0460
1199.133002 1.0400 1.0230 1.0080 1.0000 0.9830
1203.476119 0.9589 0.9329 0.8950 0.8670 0.8460
1207.819236 0.8320 0.8320 0.8500 0.8700 0.9069
1212.162353 0.9570 0.9800 1.0000 1.0060 1.0190
1216.505470 1.0310 1.0360 1.0420 1.0460 1.0500
1220.848587 1.0530 1.0550 1.0580 1.0590 1.0620
1225.191704 1.0650 1.0650 1.0650 1.0650 1.0650
1229.534821 1.0650 1.0680 1.0680 1.0690 1.0690
1233.877938 1.0660 1.0660 1.0650 1.0640 1.0610
1238.221055 1.0610 1.0590 1.0580 1.0570 1.0540
1242.564172 1.0530 1.0510 1.0500 1.0470 1.0460
1246.907289 1.0420 1.0400 1.0400 1.0380 1.0340
1251.250405 1.0290 1.0270 1.0240 1.0230 1.0210
1255.593522 1.0170 1.0130 1.0100 1.0050 1.0020
1259.936639 0.9980 0.9940 0.9940 0.9950 0.9970
1264.279756 0.9980 1.0000 1.0010 1.0020 1.0060
1268.622873 1.0080 1.0090 1.0100 1.0130 1.0130
1272.965990 1.0140 1.0170 1.0190 1.0190 1.0200
1277.309107 1.0200 1.0200 1.0190 1.0190 1.0170
1281.652224 1.0160 1.0140 1.0130 1.0120 1.0120
1285.995341 1.0100 1.0090 1.0060 1.0020 1.0010
1290.338458 1.0000 0.9930 0.9900 0.9850 0.9780
1294.681575 0.9710 0.9630 0.9570 0.9460 0.9310
1299.024692 0.9180 0.8929 0.8520 0.8400 0.7990
1303.367809 0.7830 0.7750 0.7760 0.7920 0.8159
1307.710926 0.8401 0.8690 0.8930 0.9150 0.9300
1312.054043 0.9440 0.9490 0.9550 0.9570 0.9600
1316.397160 0.9630 0.9650 0.9670 0.9680 0.9680
1320.740277 0.9680 0.9680 0.9700 0.9700 0.9700
1325.083394 0.9680 0.9650 0.9630 0.9610 0.9610
1329.426511 0.9630 0.9630 0.9630 0.9630 0.9630
1333.769628 0.9610 0.9610 0.9600 0.9600 0.9590
1338.112745 0.9590 0.9590 0.9590 0.9570 0.9560
1342.455862 0.9560 0.9550 0.9500 0.9480 0.9450
1346.798979 0.9420 0.9400 0.9350 0.9300 0.9250
1351.142096 0.9190 0.9120 0.9100 0.9030 0.9010
1355.485213 0.9000 0.8990 0.8990 0.8970 0.8970
1359.828330 0.8930 0.8910 0.8890 0.8820 0.8760
1364.171447 0.8700 0.8580 0.8500 0.8350 0.8200
1368.514564 0.8030 0.7949 0.7669 0.7280 0.6920
1372.857681 0.6470 0.5500 0.5120 0.4741 0.4351
1377.200798 0.3969 0.3589 0.3210 0.2830 0.2830
1381.543915 0.3799 0.3820 0.4000 0.4180 0.4330
1385.887032 0.4911 0.5461 0.6020 0.6320 0.6970
1390.230149 0.7230 0.7580 0.7860 0.7950 0.8110
1394.573266 0.8140 0.8210 0.8260 0.8350 0.8370
1398.916382 0.8400 0.8460 0.8480 0.8500 0.8500
1403.259499 0.8500 0.8500 0.8470 0.8470 0.8470
1407.602616 0.8460 0.8460 0.8410 0.8390 0.8330
1411.945733 0.8310 0.8260 0.8240 0.8170 0.8140
1416.288850 0.8060 0.8010 0.7970 0.7940 0.7870
1420.631967 0.7770 0.7690 0.7620 0.7570 0.7420
1424.975084 0.7350 0.7240 0.7120 0.6920 0.6810
1429.318201 0.6620 0.6430 0.6250 0.6080 0.5940
1433.661318 0.5550 0.5360 0.5090 0.4741 0.4501
1438.004435 0.4340 0.4219 0.3950 0.3670 0.3590
1442.347552 0.3500 0.3310 0.3110 0.2980 0.2870
1446.690669 0.2800 0.2710 0.2650 0.2450 0.2420
1451.033786 0.2420 0.2450 0.2500 0.2680 0.2800
1455.376903 0.2971 0.3260 0.3520 0.3810 0.3970
1459.720020 0.4070 0.4070 0.3701 0.3590 0.3590
1464.063137 0.3620 0.3771 0.4370 0.4520 0.4700
1468.406254 0.5060 0.5470 0.5879 0.6169 0.6369
1472.749371 0.6481 0.6670 0.6790 0.6920 0.7080
1477.092488 0.7230 0.7300 0.7370 0.7460 0.7520
1481.435605 0.7570 0.7620 0.7670 0.7690 0.7750
1485.778722 0.7770 0.7830 0.7870 0.7940 0.7940
1490.121839 0.7980 0.8020 0.8060 0.8070 0.8090
1494.464956 0.8090 0.8090 0.8090 0.8070 0.8070
1498.808073 0.8060 0.8030 0.8010 0.7980 0.7950
1503.151190 0.7940 0.7910 0.7870 0.7840 0.7830
1507.494307 0.7790 0.7750 0.7710 0.7680 0.7650
1511.837424 0.7600 0.7580 0.7540 0.7490 0.7430
1516.180541 0.7410 0.7350 0.7320 0.7310 0.7270
1520.523658 0.7260 0.7220 0.7160 0.7130 0.7090
1524.866775 0.7080 0.7070 0.6970 0.6890 0.6820
1529.209892 0.6770 0.6710 0.6630 0.6560 0.6490
1533.553009 0.6450 0.6370 0.6320 0.6220 0.6170
1537.896126 0.6070 0.5990 0.5950 0.5770 0.5640
1542.239242 0.5550 0.5470 0.5380 0.5310 0.5240
1546.582359 0.5200 0.5190 0.5190 0.5190 0.5190
1550.925476 0.5200 0.5250 0.5250 0.5290 0.5350
1555.268593 0.5380 0.5430 0.5510 0.5610 0.5650
1559.611710 0.5760 0.5840 0.5920 0.6030 0.6130
1563.954827 0.6180 0.6290 0.6370 0.6450 0.6520
1568.297944 0.6580 0.6600 0.6630 0.6710 0.6770
1572.641061 0.6780 0.6810 0.6830 0.6860 0.6900
1576.984178 0.6920 0.6930 0.6930 0.6940 0.6960
1581.327295 0.6980 0.7000 0.7020 0.7080 0.7110
1585.670412 0.7150 0.7170 0.7240 0.7270 0.7300
1590.013529 0.7420 0.7470 0.7600 0.7670 0.7760
1594.356646 0.7840 0.7950 0.8030 0.8110 0.8140
1598.699763 0.8220 0.8290 0.8410 0.8520 0.8580
1603.042880 0.8650 0.8700 0.8730 0.8780 0.8820
1607.385997 0.8910 0.8920 0.8950 0.8990 0.9040
1611.729114 0.9080 0.9110 0.9120 0.9140 0.9180
1616.072231 0.9200 0.9250 0.9260 0.9270 0.9310
1620.415348 0.9330 0.9340 0.9350 0.9350 0.9350
1624.758465 0.9350 0.9350 0.9350 0.9350 0.9350
1629.101582 0.9340 0.9340 0.9340 0.9340 0.9340
1633.444699 0.9350 0.9370 0.9380 0.9400 0.9410
1637.787816 0.9420 0.9420 0.9420 0.9420 0.9420
1642.130933 0.9420 0.9420 0.9440 0.9440 0.9450
1646.474050 0.9440 0.9420 0.9420 0.9410 0.9410
1650.817167 0.9400 0.9370 0.9370 0.9350 0.9340
1655.160284 0.9330 0.9330 0.9260 0.9230 0.9200
1659.503401 0.9180 0.9140 0.9120 0.9050 0.9030
1663.846518 0.8990 0.8950 0.8920 0.8910 0.8850
1668.189635 0.8820 0.8800 0.8770 0.8730 0.8710
1672.532752 0.8700 0.8710 0.8730 0.8810 0.8920
1676.875869 0.9050 0.9230 0.9330 0.9440 0.9550
1681.218986 0.9610 0.9670 0.9680 0.9720 0.9740
1685.562102 0.9780 0.9790 0.9800 0.9850 0.9860
1689.905219 0.9860 0.9870 0.9890 0.9900 0.9910
1694.248336 0.9930 0.9930 0.9940 0.9940 0.9950
1698.591453 1.0000 1.0000 1.0010 1.0010 1.0010
1702.934570 1.0020 1.0020 1.0020 1.0020 1.0040
1707.277687 1.0040 1.0060 1.0060 1.0060 1.0080
1711.620804 1.0080 1.0080 1.0080 1.0060 1.0060
1715.963921 1.0060 1.0060 1.0060 1.0060 1.0060
1720.307038 1.0050 1.0040 1.0040 1.0040 1.0020
1724.650155 1.0020 1.0020 1.0010 1.0010 1.0010
1728.993272 1.0010 1.0010 1.0010 1.0010 1.0010
1733.336389 1.0010 1.0000 1.0000 1.0000 1.0000
1737.679506 0.9980 0.9980 1.0000 1.0000 1.0000
1742.022623 1.0010 1.0010 1.0010 1.0010 1.0020
1746.365740 1.0020 1.0040 1.0060 1.0080 1.0080
1750.708857 1.0080 1.0080 1.0080 1.0090 1.0100
1755.051974 1.0100 1.0100 1.0100 1.0100 1.0100
1759.395091 1.0100 1.0100 1.0130 1.0130 1.0130
1763.738208 1.0120 1.0120 1.0120 1.0120 1.0120
1768.081325 1.0090 1.0090 1.0090 1.0090 1.0090
1772.424442 1.0090 1.0090 1.0090 1.0090 1.0090
1776.767559 1.0090 1.0100 1.0100 1.0100 1.0100
1781.110676 1.0100 1.0120 1.0120 1.0100 1.0090
1785.453793 1.0090 1.0090 1.0090 1.0090 1.0090
1789.796910 1.0090 1.0090 1.0090 1.0100 1.0100
1794.140027 1.0100 1.0100 1.0090 1.0090 1.0080
1798.483144 1.0080 1.0060 1.0050 1.0050 1.0050
1802.826261 1.0040 1.0020 1.0020 1.0020 1.0020
1807.169378 1.0010 1.0010 1.0010 1.0010 1.0010
1811.512495 1.0010 1.0020 1.0010 1.0010 1.0000
1815.855612 1.0000 1.0000 1.0000 1.0010 1.0010
1820.198729 1.0010 1.0040 1.0040 1.0040 1.0040
1824.541846 1.0040 1.0040 1.0020 1.0020 1.0020
1828.884962 1.0020 1.0040 1.0040 1.0020 1.0020
1833.228079 1.0040 1.0040 1.0040 1.0050 1.0050
1837.571196 1.0020 1.0010 1.0010 1.0010 1.0020
1841.914313 1.0020 1.0020 1.0040 1.0040 1.0020
1846.257430 1.0020 1.0010 1.0010 1.0010 1.0010
1850.600547 1.0010 1.0010 1.0010 1.0020 1.0020
1854.943664 1.0020 1.0020 1.0020 1.0020 1.0020
1859.286781 1.0010 1.0020 1.0020 1.0010 1.0000
1863.629898 1.0000 1.0000 1.0010 1.0020 1.0040
1867.973015 1.0040 1.0040 1.0050 1.0050 1.0050
1872.316132 1.0040 1.0040 1.0040 1.0040 1.0040
1876.659249 1.0050 1.0060 1.0060 1.0060 1.0050
1881.002366 1.0050 1.0040 1.0020 1.0020 1.0010
1885.345483 1.0010 1.0010 1.0010 1.0010 1.0010
1889.688600 1.0010 1.0000 1.0000 1.0000 1.0000
1894.031717 0.9980 0.9980 0.9980 0.9980 0.9970
1898.374834 0.9970 0.9970 0.9970 0.9970 0.9970
1902.717951 0.9970 0.9970 0.9980 1.0000 1.0010
1907.061068 1.0020 1.0020 1.0040 1.0040 1.0050
1911.404185 1.0050 1.0060 1.0060 1.0080 1.0080
1915.747302 1.0080 1.0090 1.0090 1.0090 1.0090
1920.090419 1.0090 1.0090 1.0090 1.0090 1.0090
1924.433536 1.0090 1.0090 1.0060 1.0080 1.0080
1928.776653 1.0080 1.0080 1.0080 1.0080 1.0080
1933.119770 1.0080 1.0080 1.0080 1.0080 1.0080
1937.462887 1.0080 1.0080 1.0080 1.0080 1.0080
1941.806004 1.0080 1.0080 1.0080 1.0050 1.0020
1946.149121 1.0010 1.0010 1.0010 1.0010 1.0010
1950.492238 1.0020 1.0040 1.0050 1.0060 1.0060
1954.835355 0.9900 0.9790 0.9750 0.9820 0.9900
1959.178472 0.9930 0.9980 1.0000 1.0000 1.0000
1963.521589 1.0000 1.0000 1.0010 1.0010 1.0010
1967.864706 1.0020 1.0020 1.0020 1.0020 1.0020
1972.207823 1.0040 1.0050 1.0060 1.0080 1.0080
1976.550939 1.0080 1.0080 1.0080 1.0080 1.0080
1980.894056 1.0090 1.0100 1.0100 1.0120 1.0120
1985.237173 1.0120 1.0120 1.0120 1.0120 1.0120
1989.580290 1.0120 1.0130 1.0130 1.0130 1.0160
1993.923407 1.0160 1.0190 1.0210 1.0230 1.0240
1998.266524 1.0240 1.0240 1.0250 1.0245 1.0240
2002.609641 1.0245 1.0250 1.0250 1.0250 1.0250
2006.952758 1.0250 1.0250 1.0250 1.0250 1.0250
2011.295875 1.0250 1.0250 1.0260 1.0270 1.0270
2015.638992 1.0270 1.0270 1.0270 1.0270 1.0270
2019.982109 1.0275 1.0280 1.0285 1.0290 1.0290
2024.325226 1.0290 1.0285 1.0280 1.0280 1.0280
2028.668343 1.0275 1.0270 1.0260 1.0251 1.0250
2033.011460 1.0250 1.0260 1.0270 1.0275 1.0280
2037.354577 1.0294 1.0309 1.0310 1.0310 1.0315
2041.697694 1.0320 1.0320 1.0320 1.0320 1.0320
2046.040811 1.0320 1.0320 1.0315 1.0310 1.0310
2050.383928 1.0310 1.0310 1.0310 1.0301 1.0291
2054.727045 1.0290 1.0290 1.0290 1.0290 1.0290
2059.070162 1.0290 1.0299 1.0309 1.0310 1.0310
2063.413279 1.0310 1.0310 1.0315 1.0320 1.0320
2067.756396 1.0320 1.0320 1.0320 1.0315 1.0310
2072.099513 1.0296 1.0281 1.0276 1.0271 1.0261
2076.442630 1.0251 1.0250 1.0250 1.0250 1.0250
2080.785747 1.0263 1.0278 1.0284 1.0289 1.0299
2085.128864 1.0309 1.0310 1.0310 1.0310 1.0310
2089.471981 1.0310 1.0310 1.0310 1.0310 1.0314
2093.815098 1.0319 1.0320 1.0320 1.0316 1.0311
2098.158215 1.0301 1.0291 1.0290 1.0290 1.0299
2102.501332 1.0309 1.0310 1.0310 1.0310 1.0310
2106.844449 1.0301 1.0291 1.0290 1.0290 1.0286
2111.187566 1.0281 1.0280 1.0280 1.0280 1.0280
2115.530683 1.0276 1.0271 1.0270 1.0270 1.0270
2119.873799 1.0270 1.0270 1.0270 1.0270 1.0270
2124.216916 1.0274 1.0279 1.0280 1.0280 1.0284
2128.560033 1.0289 1.0298 1.0308 1.0310 1.0310
2132.903150 1.0302 1.0292 1.0290 1.0290 1.0290
2137.246267 1.0290 1.0290 1.0290 1.0290 1.0290
2141.589384 1.0298 1.0308 1.0302 1.0292 1.0298
2145.932501 1.0308 1.0310 1.0310 1.0310 1.0310
2150.275618 1.0310 1.0310 1.0310 1.0310 1.0302
2154.618735 1.0292 1.0290 1.0290 1.0286 1.0281
2158.961852 1.0280 1.0280 1.0284 1.0289 1.0286
2163.304969 1.0281 1.0280 1.0280 1.0280 1.0280
2167.648086 1.0276 1.0271 1.0270 1.0270 1.0258
2171.991203 1.0243 1.0240 1.0240 1.0240 1.0240
2176.334320 1.0240 1.0240 1.0240 1.0240 1.0240
2180.677437 1.0240 1.0244 1.0249 1.0246 1.0241
2185.020554 1.0240 1.0240 1.0240 1.0240 1.0240
2189.363671 1.0240 1.0236 1.0231 1.0230 1.0230
2193.706788 1.0230 1.0230 1.0230 1.0230 1.0230
2198.049905 1.0230 1.0234 1.0239 1.0240 1.0240
2202.393022 1.0240 1.0240 1.0240 1.0240 1.0240
2206.736139 1.0240 1.0244 1.0249 1.0250 1.0250
2211.079256 1.0257 1.0267 1.0274 1.0279 1.0280
2215.422373 1.0280 1.0280 1.0280 1.0280 1.0280
2219.765490 1.0280 1.0280 1.0280 1.0280 1.0283
2224.108607 1.0288 1.0290 1.0290 1.0290 1.0290
2228.451724 1.0286 1.0281 1.0276 1.0271 1.0270
2232.794841 1.0270 1.0263 1.0253 1.0250 1.0250
2237.137958 1.0247 1.0242 1.0243 1.0249 1.0247
2241.481075 1.0242 1.0240 1.0240 1.0240 1.0240
2245.824192 1.0240 1.0240 1.0240 1.0240 1.0240
2250.167309 1.0240 1.0237 1.0232 1.0223 1.0213
2254.510426 1.0210 1.0210 1.0210 1.0210 1.0207
2258.853543 1.0202 1.0197 1.0192 1.0190 1.0190
2263.196659 1.0183 1.0173 1.0167 1.0162 1.0150
2267.539776 1.0135 1.0130 1.0130 1.0127 1.0122
2271.882893 1.0110 1.0095 1.0087 1.0082 1.0080
2276.226010 1.0080 1.0074 1.0064 1.0053 1.0044
2280.569127 1.0040 1.0040 1.0034 1.0024 1.0020
2284.912244 1.0020 1.0020 1.0020 1.0020 1.0020
2289.255361 1.0020 1.0020 1.0026 1.0036 1.0043
2293.598478 1.0048 1.0050 1.0050 1.0050 1.0050
2297.941595 1.0053 1.0058 1.0060 1.0060 1.0060
2302.284712 1.0060 1.0069 1.0084 1.0090 1.0090
2306.627829 1.0090 1.0090 1.0090 1.0090 1.0090
2310.970946 1.0090 1.0090 1.0090 1.0093 1.0098
2315.314063 1.0100 1.0100 1.0109 1.0124 1.0130
2319.657180 1.0130 1.0130 1.0130 1.0127 1.0122
2324.000297 1.0120 1.0120 1.0114 1.0104 1.0100
2328.343414 1.0100 1.0106 1.0116 1.0120 1.0120
2332.686531 1.0123 1.0128 1.0139 1.0154 1.0160
2337.029648 1.0160 1.0160 1.0160 1.0154 1.0144
2341.372765 1.0137 1.0132 1.0130 1.0130 1.0130
2345.715882 1.0130 1.0130 1.0130 1.0133 1.0138
2350.058999 1.0140 1.0140 1.0137 1.0132 1.0130
2354.402116 1.0130 1.0133 1.0138 1.0146 1.0156
2358.745233 1.0163 1.0168 1.0175 1.0185 1.0190
2363.088350 1.0190 1.0190 1.0190 1.0185 1.0175
2367.431467 1.0170 1.0170 1.0170 1.0170 1.0167
2371.774584 1.0162 1.0160 1.0160 1.0160 1.0160
2376.117701 1.0163 1.0168 1.0167 1.0162 1.0160
2380.460818 1.0160 1.0160 1.0160 1.0160 1.0160
2384.803935 1.0160 1.0160 1.0163 1.0168 1.0175
2389.147052 1.0185 1.0190 1.0190 1.0190 1.0190
2393.490169 1.0190 1.0190 1.0190 1.0190 1.0190
2397.833286 1.0190 1.0190 1.0190 1.0190 1.0190
2402.176403 1.0190 1.0190 1.0190 1.0190 1.0193
2406.519519 1.0197 1.0200 1.0200 1.0202 1.0207
2410.862636 1.0210 1.0210 1.0208 1.0203 1.0200
2415.205753 1.0200 1.0198 1.0193 1.0192 1.0197
2419.548870 1.0198 1.0193 1.0190 1.0190 1.0190
2423.891987 1.0190 1.0190 1.0190 1.0190 1.0190
2428.235104 1.0190 1.0190 1.0190 1.0190 1.0190
2432.578221 1.0190 1.0190 1.0190 1.0190 1.0190
2436.921338 1.0190 1.0190 1.0190 1.0190 1.0190
2441.264455 1.0190 1.0190 1.0190 1.0190 1.0190
2445.607572 1.0192 1.0197 1.0200 1.0200 1.0200
2449.950689 1.0200 1.0200 1.0200 1.0200 1.0200
2454.293806 1.0200 1.0200 1.0200 1.0200 1.0202
2458.636923 1.0207 1.0214 1.0224 1.0226 1.0216
2462.980040 1.0210 1.0210 1.0210 1.0210 1.0210
2467.323157 1.0210 1.0210 1.0210 1.0214 1.0224
2471.666274 1.0230 1.0230 1.0230 1.0230 1.0230
2476.009391 1.0230 1.0230 1.0230 1.0230 1.0230
2480.352508 1.0230 1.0230 1.0230 1.0230 1.0230
2484.695625 1.0230 1.0230 1.0230 1.0230 1.0230
2489.038742 1.0230 1.0230 1.0230 1.0230 1.0224
2493.381859 1.0209 1.0198 1.0193 1.0186 1.0176
2497.724976 1.0170 1.0170 1.0165 1.0150 1.0140
2502.068093 1.0140 1.0138 1.0133 1.0130 1.0130
2506.411210 1.0130 1.0130 1.0130 1.0130 1.0130
2510.754327 1.0130 1.0130 1.0130 1.0130 1.0130
2515.097444 1.0130 1.0130 1.0130 1.0130 1.0130
2519.440561 1.0130 1.0132 1.0137 1.0140 1.0140
2523.783678 1.0144 1.0154 1.0160 1.0160 1.0162
2528.126795 1.0167 1.0170 1.0170 1.0170 1.0170
2532.469912 1.0170 1.0170 1.0170 1.0170 1.0170
2536.813029 1.0170 1.0170 1.0170 1.0170 1.0170
2541.156146 1.0168 1.0163 1.0160 1.0160 1.0157
2545.499263 1.0147 1.0140 1.0140 1.0138 1.0134
2549.842380 1.0129 1.0124 1.0114 1.0094 1.0080
2554.185496 1.0080 1.0080 1.0080 1.0082 1.0087
2558.528613 1.0092 1.0096 1.0100 1.0100 1.0103
2562.871730 1.0113 1.0120 1.0120 1.0120 1.0120
2567.214847 1.0121 1.0126 1.0130 1.0130 1.0130
2571.557964 1.0130 1.0130 1.0130 1.0130 1.0130
2575.901081 1.0130 1.0130 1.0130 1.0130 1.0130
2580.244198 1.0130 1.0129 1.0124 1.0120 1.0120
2584.587315 1.0120 1.0120 1.0120 1.0120 1.0120
2588.930432 1.0120 1.0117 1.0107 1.0099 1.0094
2593.273549 1.0086 1.0071 1.0060 1.0060 1.0060
2597.616666 1.0060 1.0063 1.0073 1.0080 1.0080
2601.959783 1.0080 1.0080 1.0081 1.0086 1.0091
2606.302900 1.0096 1.0100 1.0100 1.0100 1.0100
2610.646017 1.0102 1.0112 1.0120 1.0120 1.0120
2614.989134 1.0120 1.0120 1.0120 1.0121 1.0126
2619.332251 1.0131 1.0136 1.0140 1.0140 1.0142
2623.675368 1.0152 1.0160 1.0160 1.0160 1.0160
2628.018485 1.0160 1.0160 1.0158 1.0148 1.0139
2632.361602 1.0134 1.0130 1.0130 1.0129 1.0124
2636.704719 1.0120 1.0120 1.0118 1.0108 1.0099
2641.047836 1.0094 1.0087 1.0072 1.0059 1.0054
2645.390953 1.0050 1.0050 1.0051 1.0056 1.0062
2649.734070 1.0072 1.0081 1.0086 1.0090 1.0090
2654.077187 1.0091 1.0096 1.0100 1.0100 1.0100
2658.420304 1.0100 1.0100 1.0100 1.0100 1.0100
2662.763421 1.0100 1.0100 1.0099 1.0094 1.0090
2667.106538 1.0090 1.0091 1.0096 1.0100 1.0100
2671.449655 1.0099 1.0094 1.0090 1.0090 1.0090
2675.792772 1.0090 1.0089 1.0084 1.0080 1.0080
2680.135889 1.0080 1.0080 1.0080 1.0080 1.0080
2684.479006 1.0080 1.0080 1.0080 1.0080 1.0080
2688.822123 1.0080 1.0080 1.0080 1.0080 1.0080
2693.165240 1.0080 1.0080 1.0080 1.0079 1.0069
2697.508356 1.0059 1.0049 1.0039 1.0029 1.0019
2701.851473 1.0009 0.9997 0.9972 0.9948 0.9928
2706.194590 0.9908 0.9888 0.9868 0.9848 0.9827
2710.537707 0.9802 0.9776 0.9741 0.9704 0.9654
2714.880824 0.9608 0.9588 0.9566 0.9531 0.9492
2719.223941 0.9417 0.9342 0.9257 0.9175 0.9125
2723.567058 0.9074 0.9009 0.8947 0.8912 0.8879
2727.910175 0.8864 0.8847 0.8812 0.8776 0.8736
2732.253292 0.8700 0.8700 0.8701 0.8716 0.8734
2736.596409 0.8789 0.8846 0.8926 0.9005 0.9080
2740.939526 0.9154 0.9209 0.9263 0.9302 0.9340
2745.282643 0.9340 0.9341 0.9356 0.9373 0.9407
2749.625760 0.9442 0.9467 0.9490 0.9490 0.9490
2753.968877 0.9490 0.9490 0.9485 0.9480 0.9480
2758.311994 0.9480 0.9480 0.9480 0.9485 0.9491
2762.655111 0.9506 0.9521 0.9536 0.9550 0.9550
2766.998228 0.9550 0.9555 0.9561 0.9576 0.9590
2771.341345 0.9590 0.9590 0.9580 0.9570 0.9570
2775.684462 0.9570 0.9565 0.9560 0.9560 0.9560
2780.027579 0.9555 0.9550 0.9514 0.9479 0.9459
2784.370696 0.9439 0.9409 0.9380 0.9365 0.9350
2788.713813 0.9325 0.9300 0.9275 0.9250 0.9200
2793.056930 0.9150 0.9135 0.9120 0.9115 0.9110
2797.400047 0.9090 0.9070 0.9000 0.8930 0.8875
2801.743164 0.8820 0.8795 0.8770 0.8740 0.8710
2806.086281 0.8700 0.8690 0.8660 0.8630 0.8605
2810.429398 0.8580 0.8546 0.8511 0.8476 0.8441
2814.772515 0.8401 0.8361 0.8340 0.8320 0.8271
2819.115632 0.8221 0.8176 0.8131 0.8052 0.7972
2823.458749 0.7897 0.7822 0.7786 0.7751 0.7697
2827.801866 0.7642 0.7554 0.7464 0.7350 0.7235
2832.144983 0.7111 0.6986 0.6899 0.6813 0.6738
2836.488100 0.6663 0.6607 0.6552 0.6369 0.6179
2840.831216 0.6028 0.5878 0.5638 0.5394 0.5276
2845.174333 0.5167 0.4921 0.4666 0.4379 0.4090
2849.517450 0.3689 0.3280 0.2998 0.2726 0.2400
2853.860567 0.2071 0.2036 0.2021 0.2020 0.2020
2858.203684 0.2029 0.2039 0.2045 0.2050 0.2050
2862.546801 0.2050 0.2036 0.2021 0.2015 0.2010
2866.889918 0.1838 0.1648 0.1539 0.1438 0.1269
2871.233035 0.1095 0.1071 0.1061 0.1065 0.1070
2875.576152 0.1156 0.1251 0.1391 0.1536 0.1671
2879.919269 0.1806 0.1892 0.1971 0.2038 0.2103
2884.262386 0.2150 0.2195 0.2231 0.2266 0.2292
2888.605503 0.2317 0.2329 0.2339 0.2340 0.2340
2892.948620 0.2331 0.2321 0.2311 0.2301 0.2274
2897.291737 0.2244 0.2192 0.2137 0.2061 0.1981
2901.634854 0.1866 0.1747 0.1687 0.1636 0.1547
2905.977971 0.1452 0.1349 0.1244 0.1143 0.1044
2910.321088 0.0965 0.0890 0.0850 0.0815 0.0793
2914.664205 0.0773 0.0770 0.0770 0.0766 0.0761
2919.007322 0.0752 0.0742 0.0736 0.0731 0.0692
2923.350439 0.0647 0.0610 0.0575 0.0557 0.0542
2927.693556 0.0536 0.0531 0.0534 0.0539 0.0544
2932.036673 0.0549 0.0587 0.0632 0.0689 0.0749
2936.379790 0.0883 0.1033 0.1184 0.1335 0.1422
2940.722907 0.1497 0.1564 0.1629 0.1759 0.1904
2945.066024 0.1918 0.1903 0.1871 0.1837 0.1684
2949.409141 0.1504 0.1369 0.1244 0.1112 0.0977
2953.752258 0.0858 0.0743 0.0632 0.0521 0.0423
2958.095375 0.0328 0.0225 0.0121 0.0092 0.0082
2962.438492 0.0080 0.0080 0.0084 0.0089 0.0102
2966.781609 0.0117 0.0136 0.0156 0.0203 0.0258
2971.124726 0.0320 0.0385 0.0459 0.0534 0.0593
2975.467843 0.0648 0.0719 0.0794 0.0869 0.0943
2979.810960 0.0991 0.1031 0.1079 0.1128 0.1152
2984.154076 0.1166 0.1189 0.1214 0.1266 0.1325
2988.497193 0.1419 0.1524 0.1740 0.1992 0.2196
2992.840310 0.2385 0.2441 0.2456 0.2559 0.2688
2997.183427 0.2920 0.3184 0.3513 0.3862 0.4208
3001.526544 0.4552 0.4848 0.5127 0.5296 0.5426
3005.869661 0.5519 0.5599 0.5716 0.5847 0.5992
3010.212778 0.6141 0.6291 0.6441 0.6572 0.6697
3014.555895 0.6767 0.6817 0.6870 0.6925 0.6980
3018.899012 0.7035 0.7064 0.7084 0.7104 0.7124
3023.242129 0.7141 0.7156 0.7160 0.7160 0.7160
3027.585246 0.7160 0.7160 0.7160 0.7164 0.7169
3031.928363 0.7181 0.7196 0.7214 0.7234 0.7265
3036.271480 0.7300 0.7359 0.7429 0.7506 0.7585
3040.614597 0.7672 0.7762 0.7835 0.7901 0.7959
3044.957714 0.8014 0.8040 0.8055 0.8070 0.8085
3049.300831 0.8097 0.8107 0.8117 0.8127 0.8140
3053.643948 0.8155 0.8163 0.8168 0.8187 0.8212
3057.987065 0.8240 0.8270 0.8304 0.8339 0.8408
3062.330182 0.8493 0.8581 0.8671 0.8727 0.8767
3066.673299 0.8817 0.8872 0.8910 0.8940 0.8966
3071.016416 0.8991 0.9023 0.9058 0.9086 0.9111
3075.359533 0.9120 0.9120 0.9133 0.9153 0.9173
3079.702650 0.9193 0.9207 0.9217 0.9230 0.9245
3084.045767 0.9253 0.9258 0.9270 0.9285 0.9296
3088.388884 0.9306 0.9316 0.9326 0.9330 0.9330
3092.732001 0.9333 0.9338 0.9340 0.9340 0.9343
3097.075118 0.9348 0.9350 0.9350 0.9366 0.9391
3101.418235 0.9412 0.9432 0.9443 0.9448 0.9450
3105.761352 0.9450 0.9453 0.9458 0.9460 0.9460
3110.104469 0.9460 0.9460 0.9460 0.9460 0.9460
3114.447586 0.9460 0.9460 0.9460 0.9460 0.9460
3118.790703 0.9460 0.9460 0.9460 0.9460 0.9460
3123.133820 0.9460 0.9460 0.9460 0.9460 0.9460
3127.476937 0.9460 0.9460 0.9460 0.9460 0.9469
3131.820053 0.9484 0.9499 0.9514 0.9520 0.9520
3136.163170 0.9523 0.9528 0.9536 0.9546 0.9544
3140.506287 0.9534 0.9536 0.9546 0.9550 0.9550
3144.849404 0.9550 0.9550 0.9553 0.9558 0.9563
3149.192521 0.9568 0.9570 0.9570 0.9567 0.9562
3153.535638 0.9563 0.9568 0.9570 0.9570 0.9570
3157.878755 0.9570 0.9567 0.9562 0.9560 0.9560
3162.221872 0.9563 0.9568 0.9570 0.9570 0.9570
3166.564989 0.9570 0.9570 0.9570 0.9575 0.9585
3170.908106 0.9590 0.9590 0.9593 0.9598 0.9603
3175.251223 0.9608 0.9610 0.9610 0.9615 0.9625
3179.594340 0.9635 0.9645 0.9655 0.9665 0.9673
3183.937457 0.9678 0.9685 0.9695 0.9700 0.9700
3188.280574 0.9700 0.9700 0.9705 0.9715 0.9728
3192.623691 0.9743 0.9750 0.9750 0.9753 0.9757
3196.966808 0.9765 0.9775 0.9780 0.9780 0.9783
3201.309925 0.9788 0.9793 0.9798 0.9800 0.9800
3205.653042 0.9800 0.9800 0.9800 0.9800 0.9805
3209.996159 0.9815 0.9820 0.9820 0.9815 0.9805
3214.339276 0.9800 0.9800 0.9800 0.9800 0.9800
3218.682393 0.9800 0.9800 0.9800 0.9800 0.9800
3223.025510 0.9800 0.9800 0.9800 0.9800 0.9800
3227.368627 0.9800 0.9800 0.9800 0.9798 0.9793
3231.711744 0.9792 0.9797 0.9800 0.9800 0.9800
3236.054861 0.9800 0.9798 0.9793 0.9790 0.9790
3240.397978 0.9790 0.9790 0.9792 0.9797 0.9800
3244.741095 0.9800 0.9800 0.9800 0.9800 0.9800
3249.084212 0.9798 0.9793 0.9790 0.9790 0.9792
3253.427329 0.9797 0.9800 0.9800 0.9800 0.9800
3257.770446 0.9804 0.9814 0.9816 0.9806 0.9804
3262.113563 0.9814 0.9822 0.9827 0.9830 0.9830
3266.456680 0.9830 0.9830 0.9830 0.9830 0.9828
3270.799797 0.9823 0.9820 0.9820 0.9820 0.9820
3275.142913 0.9816 0.9806 0.9800 0.9800 0.9798
3279.486030 0.9793 0.9796 0.9811 0.9816 0.9806
3283.829147 0.9800 0.9800 0.9800 0.9800 0.9800
3288.172264 0.9800 0.9800 0.9800 0.9804 0.9814
3292.515381 0.9820 0.9820 0.9816 0.9806 0.9800
3296.858498 0.9800 0.9800 0.9800 0.9798 0.9793
3301.201615 0.9788 0.9783 0.9780 0.9780 0.9780
3305.544732 0.9780 0.9780 0.9780 0.9780 0.9780
3309.887849 0.9780 0.9780 0.9780 0.9780 0.9776
3314.230966 0.9766 0.9760 0.9760 0.9758 0.9753
3318.574083 0.9745 0.9730 0.9717 0.9706 0.9700
3322.917200 0.9700 0.9700 0.9700 0.9702 0.9707
3327.260317 0.9710 0.9710 0.9710 0.9710 0.9710
3331.603434 0.9710 0.9710 0.9710 0.9710 0.9710
3335.946551 0.9710 0.9710 0.9710 0.9710 0.9710
3340.289668 0.9710 0.9710 0.9710 0.9708 0.9703
3344.632785 0.9700 0.9700 0.9697 0.9687 0.9680
3348.975902 0.9680 0.9680 0.9680 0.9680 0.9680
3353.319019 0.9680 0.9680 0.9680 0.9680 0.9678
3357.662136 0.9673 0.9667 0.9657 0.9647 0.9637
3362.005253 0.9627 0.9617 0.9609 0.9604 0.9599
3366.348370 0.9594 0.9590 0.9590 0.9587 0.9577
3370.691487 0.9570 0.9570 0.9569 0.9564 0.9559
3375.034604 0.9554 0.9550 0.9550 0.9547 0.9537
3379.377721 0.9533 0.9543 0.9546 0.9531 0.9520
3383.720838 0.9520 0.9517 0.9507 0.9499 0.9494
3388.063955 0.9490 0.9490 0.9490 0.9490 0.9490
3392.407072 0.9490 0.9491 0.9496 0.9500 0.9500
3396.750189 0.9500 0.9500 0.9500 0.9500 0.9500
3401.093306 0.9500 0.9499 0.9494 0.9490 0.9490
3405.436423 0.9489 0.9484 0.9478 0.9468 0.9460
3409.779540 0.9460 0.9460 0.9460 0.9462 0.9472
3414.122657 0.9480 0.9480 0.9481 0.9486 0.9490
3418.465773 0.9490 0.9491 0.9496 0.9503 0.9518
3422.808890 0.9532 0.9542 0.9550 0.9550 0.9550
3427.152007 0.9550 0.9550 0.9550 0.9550 0.9550
3431.495124 0.9550 0.9550 0.9548 0.9538 0.9532
3435.838241 0.9542 0.9550 0.9550 0.9551 0.9556
3440.181358 0.9560 0.9560 0.9561 0.9566 0.9570
3444.524475 0.9570 0.9572 0.9582 0.9590 0.9590
3448.867592 0.9591 0.9596 0.9603 0.9618 0.9631
3453.210709 0.9636 0.9640 0.9640 0.9640 0.9640
3457.553826 0.9641 0.9646 0.9652 0.9662 0.9670
3461.896943 0.9670 0.9671 0.9676 0.9682 0.9692
3466.240060 0.9701 0.9706 0.9710 0.9710 0.9711
3470.583177 0.9716 0.9720 0.9720 0.9722 0.9732
3474.926294 0.9740 0.9740 0.9740 0.9740 0.9741
3479.269411 0.9746 0.9750 0.9750 0.9750 0.9750
3483.612528 0.9752 0.9767 0.9780 0.9780 0.9780
3487.955645 0.9780 0.9780 0.9780 0.9781 0.9786
3492.298762 0.9791 0.9796 0.9800 0.9800 0.9800
3496.641879 0.9800 0.9801 0.9811 0.9818 0.9803
3500.984996 0.9790 0.9790 0.9791 0.9796 0.9801
3505.328113 0.9811 0.9821 0.9826 0.9831 0.9841
3509.671230 0.9851 0.9856 0.9860 0.9860 0.9861
3514.014347 0.9866 0.9870 0.9870 0.9869 0.9864
3518.357464 0.9860 0.9860 0.9861 0.9865 0.9870
3522.700581 0.9870 0.9870 0.9870 0.9871 0.9881
3527.043698 0.9890 0.9895 0.9900 0.9895 0.9890
3531.386815 0.9890 0.9889 0.9879 0.9870 0.9865
3535.729932 0.9860 0.9855 0.9850 0.9850 0.9850
3540.073049 0.9850 0.9850 0.9850 0.9850 0.9850
3544.416166 0.9850 0.9850 0.9850 0.9850 0.9850
3548.759283 0.9850 0.9850 0.9855 0.9860 0.9865
3553.102400 0.9871 0.9881 0.9890 0.9895 0.9900
3557.445517 0.9905 0.9910 0.9910 0.9910 0.9920
3561.788633 0.9930 0.9930 0.9930 0.9930 0.9930
3566.131750 0.9930 0.9930 0.9935 0.9940 0.9945
3570.474867 0.9951 0.9981 1.0012 1.0051 1.0091
3574.817984 1.0116 1.0140 1.0140 1.0139 1.0114
3579.161101 1.0089 1.0054 1.0019 0.9984 0.9950
3583.504218 0.9945 0.9940 0.9940 0.9940 0.9940
3587.847335 0.9940 0.9940 0.9940 0.9940 0.9940
3592.190452 0.9945 0.9950 0.9975 1.0000 1.0005
3596.533569 1.0010 1.0010 1.0010 1.0015 1.0020
3600.876686 1.0000 0.9980 0.9975 0.9970 0.9955
3605.219803 0.9940 0.9940 0.9940 0.9940 0.9940
3609.562920 0.9940 0.9940 0.9945 0.9950 0.9950
3613.906037 0.9950 0.9950 0.9950 0.9950 0.9950
3618.249154 0.9950 0.9950 0.9950 0.9950 0.9950
3622.592271 0.9950 0.9950 0.9950 0.9945 0.9940
3626.935388 0.9940 0.9940 0.9940 0.9940 0.9940
3631.278505 0.9940 0.9940 0.9940 0.9945 0.9950
3635.621622 0.9950 0.9950 0.9950 0.9950 0.9960
3639.964739 0.9970 0.9970 0.9970 0.9961 0.9951
3644.307856 0.9950 0.9950 0.9950 0.9950 0.9950
3648.650973 0.9950 0.9950 0.9950 0.9950 0.9950
3652.994090 0.9945 0.9940 0.9940 0.9940 0.9940
3657.337207 0.9940 0.9940 0.9940 0.9935 0.9930
3661.680324 0.9930 0.9930 0.9930 0.9930 0.9930
3666.023441 0.9930 0.9930 0.9930 0.9930 0.9930
3670.366558 0.9921 0.9911 0.9910 0.9910 0.9905
3674.709675 0.9900 0.9900 0.9900 0.9895 0.9890
3679.052792 0.9876 0.9862 0.9829 0.9794 0.9741
3683.395909 0.9686 0.9676 0.9671 0.9674 0.9680
3687.739026 0.9693 0.9708 0.9723 0.9738 0.9780
3692.082143 0.9825 0.9843 0.9858 0.9873 0.9888
3696.425260 0.9890 0.9890 0.9894 0.9899 0.9904
3700.768377 0.9909 0.9910 0.9910 0.9910 0.9910
3705.111494 0.9910 0.9910 0.9910 0.9910 0.9910
3709.454610 0.9910 0.9919 0.9929 0.9934 0.9939
3713.797727 0.9944 0.9949 0.9950 0.9950 0.9950
3718.140844 0.9950 0.9950 0.9950 0.9950 0.9950
3722.483961 0.9950 0.9950 0.9950 0.9950 0.9950
3726.827078 0.9950 0.9958 0.9968 0.9970 0.9970
3731.170195 0.9970 0.9970 0.9970 0.9970 0.9970
3735.513312 0.9970 0.9974 0.9979 0.9980 0.9980
3739.856429 0.9980 0.9980 0.9959 0.9934 0.9922
3744.199546 0.9912 0.9910 0.9910 0.9910 0.9910
3748.542663 0.9918 0.9928 0.9934 0.9939 0.9940
3752.885780 0.9940 0.9944 0.9949 0.9946 0.9941
3757.228897 0.9940 0.9940 0.9936 0.9931 0.9922
3761.572014 0.9912 0.9910 0.9910 0.9910 0.9910
3765.915131 0.9906 0.9901 0.9900 0.9900 0.9900
3770.258248 0.9900 0.9900 0.9900 0.9912 0.9927
3774.601365 0.9930 0.9930 0.9934 0.9939 0.9940
3778.944482 0.9940 0.9940 0.9940 0.9940 0.9940
3783.287599 0.9940 0.9940 0.9940 0.9940 0.9940
3787.630716 0.9940 0.9940 0.9940 0.9936 0.9931
3791.973833 0.9930 0.9930 0.9934 0.9939
##END=
