##TITLE=1-Iodopentane
##JCAMP-DX=4.24
$$ By DXEDIT 1.05 (RS McDonald)
##DATA TYPE=INFRARED SPECTRUM
##CLASS=COBLENTZ III
##ORIGIN=DOW CHEMICAL COMPANY
##OWNER=COPYRIGHT (C) 1988 by COBLENTZ SOCIETY INC.
Collection (C) 2018 copyright by the U.S. Secretary of Commerce
on behalf of the United States of America. All rights reserved.
##DATE=1962/03/08
##CAS REGISTRY NO=628-17-1
##MOLFORM=C5 H11 I
##SOURCE REFERENCE=COBLENTZ NO. 5641
##$NIST SOURCE=COBLENTZ
##$NIST IMAGE=cob5641
##SPECTROMETER/DATA SYSTEM=DOW KBr FOREPRISM-GRATING
$$SPECTRAL CONTAMINATIONS DUE TO CS2 AROUND 850, AND CCl4 AROUND 1550 CM^-^1 HAVE BEEN SUBTRACTED
##INSTRUMENT PARAMETERS=BLAZED AT 3.5, 12.0, 20.0 AND CHANGED AT 5.0, 7.5, 14.9 MICRON
##STATE=SOLUTION (10% CCl4 FOR 3800-1340, 10% CS2 FOR 1340-400)
##PATH LENGTH=0.0107 CM, 0.0103 CM
##SAMPLING PROCEDURE=TRANSMISSION
##RESOLUTION=2
##DATA PROCESSING=DIGITIZED BY COBLENTZ SOCIETY (BATCH I) FROM HARD COPY
##XUNITS=1/CM
##YUNITS=TRANSMITTANCE
##XFACTOR=1
##YFACTOR=1
##DELTAX=1
##FIRSTX=3802
##LASTX=381
##FIRSTY=0.9117
##MAXX=3802
##MINX=381
##MAXY=0.9218
##MINY=0.1194
##NPOINTS=3422
##XYDATA=(X++(Y..Y))
3802.000000 0.9117 0.9115 0.9114 0.9112 0.9111
3797.000000 0.9111 0.9118 0.9109 0.9118 0.9115
3792.000000 0.9114 0.9113 0.9112 0.9110 0.9109
3787.000000 0.9107 0.9106 0.9104 0.9095 0.9088
3782.000000 0.9087 0.9094 0.9097 0.9083 0.9088
3777.000000 0.9089 0.9087 0.9071 0.9082 0.9080
3772.000000 0.9079 0.9078 0.9077 0.9075 0.9074
3767.000000 0.9072 0.9071 0.9069 0.9068 0.9066
3762.000000 0.9065 0.9064 0.9070 0.9069 0.9063
3757.000000 0.9064 0.9066 0.9067 0.9069 0.9070
3752.000000 0.9072 0.9073 0.9075 0.9076 0.9078
3747.000000 0.9083 0.9089 0.9094 0.9099 0.9104
3742.000000 0.9111 0.9116 0.9122 0.9131 0.9144
3737.000000 0.9152 0.9158 0.9163 0.9163 0.9162
3732.000000 0.9175 0.9186 0.9192 0.9195 0.9200
3727.000000 0.9199 0.9199 0.9198 0.9198 0.9198
3722.000000 0.9198 0.9198 0.9198 0.9185 0.9186
3717.000000 0.9194 0.9191 0.9187 0.9183 0.9178
3712.000000 0.9178 0.9179 0.9171 0.9175 0.9172
3707.000000 0.9167 0.9163 0.9159 0.9155 0.9151
3702.000000 0.9146 0.9142 0.9139 0.9137 0.9135
3697.000000 0.9133 0.9119 0.9116 0.9114 0.9111
3692.000000 0.9109 0.9107 0.9106 0.9104 0.9102
3687.000000 0.9096 0.9085 0.9082 0.9081 0.9079
3682.000000 0.9078 0.9076 0.9073 0.9071 0.9069
3677.000000 0.9067 0.9066 0.9065 0.9065 0.9066
3672.000000 0.9067 0.9067 0.9079 0.9071 0.9070
3667.000000 0.9070 0.9071 0.9072 0.9073 0.9073
3662.000000 0.9074 0.9075 0.9076 0.9076 0.9077
3657.000000 0.9078 0.9082 0.9084 0.9086 0.9088
3652.000000 0.9089 0.9092 0.9094 0.9096 0.9098
3647.000000 0.9100 0.9103 0.9105 0.9107 0.9109
3642.000000 0.9112 0.9113 0.9113 0.9113 0.9113
3637.000000 0.9113 0.9113 0.9111 0.9111 0.9113
3632.000000 0.9123 0.9123 0.9119 0.9109 0.9114
3627.000000 0.9121 0.9121 0.9120 0.9120 0.9120
3622.000000 0.9120 0.9119 0.9119 0.9118 0.9118
3617.000000 0.9117 0.9117 0.9116 0.9116 0.9116
3612.000000 0.9116 0.9115 0.9115 0.9113 0.9102
3607.000000 0.9113 0.9113 0.9111 0.9111 0.9106
3602.000000 0.9100 0.9106 0.9100 0.9090 0.9094
3597.000000 0.9098 0.9098 0.9096 0.9094 0.9090
3592.000000 0.9089 0.9087 0.9086 0.9084 0.9082
3587.000000 0.9080 0.9078 0.9076 0.9075 0.9073
3582.000000 0.9071 0.9068 0.9067 0.9066 0.9065
3577.000000 0.9064 0.9060 0.9055 0.9062 0.9061
3572.000000 0.9054 0.9046 0.9046 0.9045 0.9044
3567.000000 0.9043 0.9042 0.9041 0.9041 0.9040
3562.000000 0.9039 0.9038 0.9036 0.9036 0.9036
3557.000000 0.9035 0.9033 0.9044 0.9031 0.9032
3552.000000 0.9043 0.9041 0.9038 0.9032 0.9041
3547.000000 0.9041 0.9041 0.9035 0.9034 0.9041
3542.000000 0.9041 0.9041 0.9033 0.9036 0.9032
3537.000000 0.9037 0.9041 0.9041 0.9041 0.9041
3532.000000 0.9041 0.9041 0.9041 0.9028 0.9028
3527.000000 0.9027 0.9027 0.9027 0.9027 0.9027
3522.000000 0.9027 0.9027 0.9027 0.9027 0.9027
3517.000000 0.9027 0.9027 0.9025 0.9025 0.9025
3512.000000 0.9025 0.9025 0.9025 0.9025 0.9025
3507.000000 0.9025 0.9025 0.9025 0.9025 0.9023
3502.000000 0.9023 0.9023 0.9023 0.9022 0.9022
3497.000000 0.9022 0.9022 0.9022 0.9022 0.9021
3492.000000 0.9021 0.9021 0.9021 0.9021 0.9021
3487.000000 0.9020 0.9020 0.9020 0.9020 0.9019
3482.000000 0.9019 0.9021 0.9023 0.9024 0.9027
3477.000000 0.9031 0.9035 0.9037 0.9040 0.9042
3472.000000 0.9045 0.9048 0.9051 0.9053 0.9056
3467.000000 0.9059 0.9063 0.9065 0.9068 0.9071
3462.000000 0.9074 0.9076 0.9079 0.9082 0.9085
3457.000000 0.9086 0.9091 0.9093 0.9096 0.9099
3452.000000 0.9102 0.9105 0.9108 0.9111 0.9114
3447.000000 0.9118 0.9122 0.9125 0.9128 0.9131
3442.000000 0.9134 0.9137 0.9140 0.9143 0.9147
3437.000000 0.9150 0.9153 0.9156 0.9159 0.9162
3432.000000 0.9165 0.9168 0.9171 0.9174 0.9176
3427.000000 0.9177 0.9179 0.9169 0.9181 0.9183
3422.000000 0.9186 0.9187 0.9190 0.9190 0.9193
3417.000000 0.9195 0.9197 0.9198 0.9200 0.9201
3412.000000 0.9204 0.9206 0.9208 0.9209 0.9211
3407.000000 0.9217 0.9218 0.9212 0.9213 0.9213
3402.000000 0.9214 0.9214 0.9214 0.9214 0.9215
3397.000000 0.9215 0.9216 0.9216 0.9216 0.9216
3392.000000 0.9216 0.9214 0.9212 0.9209 0.9207
3387.000000 0.9205 0.9203 0.9201 0.9199 0.9197
3382.000000 0.9195 0.9193 0.9190 0.9189 0.9186
3377.000000 0.9184 0.9182 0.9177 0.9172 0.9167
3372.000000 0.9161 0.9156 0.9162 0.9147 0.9142
3367.000000 0.9137 0.9134 0.9130 0.9127 0.9124
3362.000000 0.9121 0.9116 0.9113 0.9109 0.9106
3357.000000 0.9102 0.9099 0.9096 0.9092 0.9088
3352.000000 0.9085 0.9084 0.9084 0.9082 0.9082
3347.000000 0.9082 0.9082 0.9091 0.9094 0.9081
3342.000000 0.9091 0.9078 0.9078 0.9078 0.9090
3337.000000 0.9089 0.9086 0.9075 0.9075 0.9073
3332.000000 0.9073 0.9072 0.9072 0.9071 0.9071
3327.000000 0.9070 0.9070 0.9069 0.9069 0.9068
3322.000000 0.9067 0.9066 0.9066 0.9065 0.9065
3317.000000 0.9064 0.9064 0.9063 0.9062 0.9061
3312.000000 0.9073 0.9072 0.9072 0.9071 0.9069
3307.000000 0.9060 0.9069 0.9068 0.9064 0.9054
3302.000000 0.9054 0.9053 0.9052 0.9051 0.9050
3297.000000 0.9048 0.9047 0.9046 0.9045 0.9044
3292.000000 0.9043 0.9042 0.9041 0.9039 0.9038
3287.000000 0.9036 0.9035 0.9034 0.9033 0.9044
3282.000000 0.9040 0.9029 0.9031 0.9040 0.9034
3277.000000 0.9025 0.9028 0.9034 0.9033 0.9032
3272.000000 0.9031 0.9030 0.9029 0.9028 0.9027
3267.000000 0.9025 0.9024 0.9023 0.9022 0.9021
3262.000000 0.9020 0.9019 0.9018 0.9016 0.9014
3257.000000 0.9013 0.9001 0.9011 0.9010 0.9008
3252.000000 0.9007 0.9006 0.9005 0.9004 0.9003
3247.000000 0.9002 0.9001 0.8994 0.8993 0.8997
3242.000000 0.8996 0.8994 0.8992 0.8992 0.8991
3237.000000 0.8989 0.8989 0.8988 0.8987 0.8985
3232.000000 0.8985 0.8984 0.8984 0.8982 0.8982
3227.000000 0.8980 0.8969 0.8972 0.8982 0.8982
3222.000000 0.8982 0.8981 0.8981 0.8980 0.8980
3217.000000 0.8980 0.8981 0.8982 0.8984 0.8985
3212.000000 0.8987 0.8988 0.8989 0.8991 0.8981
3207.000000 0.8979 0.8979 0.8979 0.8979 0.8974
3202.000000 0.8969 0.8967 0.8965 0.8970 0.8959
3197.000000 0.8962 0.8953 0.8961 0.8961 0.8961
3192.000000 0.8962 0.8963 0.8957 0.8958 0.8965
3187.000000 0.8966 0.8958 0.8955 0.8956 0.8957
3182.000000 0.8958 0.8958 0.8958 0.8955 0.8953
3177.000000 0.8950 0.8948 0.8945 0.8941 0.8938
3172.000000 0.8936 0.8933 0.8931 0.8927 0.8926
3167.000000 0.8923 0.8920 0.8916 0.8921 0.8925
3162.000000 0.8915 0.8914 0.8918 0.8917 0.8908
3157.000000 0.8911 0.8904 0.8900 0.8909 0.8909
3152.000000 0.8908 0.8906 0.8905 0.8903 0.8890
3147.000000 0.8888 0.8887 0.8886 0.8885 0.8884
3142.000000 0.8883 0.8886 0.8893 0.8892 0.8892
3137.000000 0.8891 0.8890 0.8889 0.8889 0.8887
3132.000000 0.8887 0.8886 0.8884 0.8884 0.8884
3127.000000 0.8883 0.8882 0.8879 0.8879 0.8878
3122.000000 0.8878 0.8876 0.8876 0.8875 0.8874
3117.000000 0.8873 0.8873 0.8872 0.8871 0.8869
3112.000000 0.8868 0.8866 0.8865 0.8864 0.8863
3107.000000 0.8868 0.8872 0.8870 0.8869 0.8867
3102.000000 0.8866 0.8864 0.8873 0.8874 0.8873
3097.000000 0.8883 0.8894 0.8905 0.8903 0.8901
3092.000000 0.8898 0.8884 0.8881 0.8866 0.8855
3087.000000 0.8856 0.8859 0.8844 0.8834 0.8832
3082.000000 0.8831 0.8829 0.8827 0.8825 0.8830
3077.000000 0.8841 0.8843 0.8840 0.8848 0.8847
3072.000000 0.8835 0.8830 0.8828 0.8812 0.8822
3067.000000 0.8807 0.8804 0.8801 0.8797 0.8784
3062.000000 0.8782 0.8779 0.8780 0.8785 0.8782
3057.000000 0.8771 0.8760 0.8767 0.8768 0.8746
3052.000000 0.8742 0.8746 0.8746 0.8741 0.8736
3047.000000 0.8732 0.8738 0.8735 0.8741 0.8748
3042.000000 0.8756 0.8764 0.8771 0.8765 0.8760
3037.000000 0.8753 0.8735 0.8720 0.8711 0.8692
3032.000000 0.8678 0.8669 0.8655 0.8640 0.8631
3027.000000 0.8617 0.8602 0.8594 0.8586 0.8576
3022.000000 0.8568 0.8545 0.8522 0.8507 0.8484
3017.000000 0.8458 0.8419 0.8390 0.8363 0.8330
3012.000000 0.8298 0.8249 0.8201 0.8127 0.8051
3007.000000 0.7924 0.7811 0.7776 0.7733 0.7716
3002.000000 0.7696 0.7684 0.7678 0.7665 0.7649
2997.000000 0.7635 0.7624 0.7608 0.7594 0.7569
2992.000000 0.7538 0.7504 0.7468 0.7417 0.7367
2987.000000 0.7315 0.7266 0.7134 0.7005 0.6445
2982.000000 0.5885 0.5717 0.5550 0.5442 0.5324
2977.000000 0.5221 0.5126 0.5054 0.4980 0.4544
2972.000000 0.4107 0.3764 0.3423 0.3084 0.2744
2967.000000 0.2401 0.2059 0.1715 0.1375 0.1315
2962.000000 0.1194 0.1255 0.1255 0.1258 0.1259
2957.000000 0.1356 0.1454 0.1678 0.1903 0.2129
2952.000000 0.2353 0.2577 0.2801 0.3026 0.3250
2947.000000 0.3359 0.3468 0.3472 0.3479 0.3483
2942.000000 0.3501 0.3326 0.3166 0.2984 0.2800
2937.000000 0.2617 0.2433 0.2247 0.2063 0.1930
2932.000000 0.1798 0.1794 0.1789 0.1787 0.1785
2927.000000 0.1785 0.1776 0.1789 0.1792 0.1906
2922.000000 0.2019 0.2147 0.2278 0.2407 0.2537
2917.000000 0.2667 0.2798 0.2927 0.3058 0.3188
2912.000000 0.3317 0.3447 0.3578 0.3708 0.3842
2907.000000 0.3974 0.4097 0.4228 0.4358 0.4488
2902.000000 0.4619 0.4749 0.4877 0.5008 0.5139
2897.000000 0.5269 0.5398 0.5529 0.5659 0.5693
2892.000000 0.5729 0.5747 0.5764 0.5774 0.5783
2887.000000 0.5790 0.5798 0.5805 0.5812 0.5816
2882.000000 0.5855 0.5563 0.5307 0.5006 0.4706
2877.000000 0.4398 0.4104 0.3863 0.3616 0.3624
2872.000000 0.3626 0.3671 0.3717 0.3788 0.3859
2867.000000 0.3930 0.4002 0.4074 0.4145 0.4216
2862.000000 0.4289 0.4326 0.4363 0.4379 0.4395
2857.000000 0.4410 0.4426 0.4441 0.4450 0.4602
2852.000000 0.4755 0.4928 0.5100 0.5272 0.5445
2847.000000 0.5618 0.5797 0.5970 0.6140 0.6309
2842.000000 0.6488 0.6607 0.6724 0.6729 0.6742
2837.000000 0.6748 0.6750 0.6758 0.6770 0.6801
2832.000000 0.6833 0.6913 0.6997 0.7224 0.7440
2827.000000 0.7587 0.7728 0.7760 0.7801 0.7854
2822.000000 0.7887 0.7940 0.7982 0.8008 0.8026
2817.000000 0.8052 0.8078 0.8104 0.8130 0.8155
2812.000000 0.8181 0.8205 0.8229 0.8253 0.8284
2807.000000 0.8307 0.8324 0.8339 0.8355 0.8369
2802.000000 0.8384 0.8393 0.8404 0.8413 0.8422
2797.000000 0.8432 0.8442 0.8452 0.8461 0.8471
2792.000000 0.8479 0.8478 0.8492 0.8490 0.8497
2787.000000 0.8504 0.8511 0.8523 0.8536 0.8538
2782.000000 0.8539 0.8552 0.8564 0.8568 0.8573
2777.000000 0.8577 0.8582 0.8588 0.8593 0.8596
2772.000000 0.8602 0.8606 0.8612 0.8616 0.8621
2767.000000 0.8625 0.8630 0.8634 0.8638 0.8641
2762.000000 0.8644 0.8646 0.8648 0.8650 0.8651
2757.000000 0.8651 0.8651 0.8653 0.8654 0.8655
2752.000000 0.8655 0.8657 0.8658 0.8654 0.8650
2747.000000 0.8646 0.8642 0.8638 0.8633 0.8629
2742.000000 0.8625 0.8621 0.8617 0.8612 0.8608
2737.000000 0.8603 0.8599 0.8591 0.8584 0.8576
2732.000000 0.8567 0.8558 0.8547 0.8551 0.8554
2727.000000 0.8559 0.8563 0.8567 0.8571 0.8576
2722.000000 0.8580 0.8583 0.8587 0.8591 0.8595
2717.000000 0.8598 0.8602 0.8603 0.8606 0.8609
2712.000000 0.8612 0.8614 0.8617 0.8619 0.8622
2707.000000 0.8625 0.8628 0.8630 0.8633 0.8635
2702.000000 0.8638 0.8640 0.8643 0.8645 0.8647
2697.000000 0.8647 0.8647 0.8645 0.8644 0.8642
2692.000000 0.8640 0.8638 0.8637 0.8635 0.8634
2687.000000 0.8631 0.8627 0.8623 0.8619 0.8615
2682.000000 0.8612 0.8607 0.8604 0.8600 0.8595
2677.000000 0.8592 0.8589 0.8584 0.8580 0.8578
2672.000000 0.8577 0.8577 0.8578 0.8579 0.8580
2667.000000 0.8581 0.8582 0.8583 0.8585 0.8586
2662.000000 0.8587 0.8588 0.8589 0.8590 0.8593
2657.000000 0.8605 0.8606 0.8607 0.8609 0.8610
2652.000000 0.8610 0.8608 0.8602 0.8602 0.8611
2647.000000 0.8617 0.8620 0.8614 0.8611 0.8612
2642.000000 0.8623 0.8618 0.8614 0.8614 0.8612
2637.000000 0.8610 0.8608 0.8605 0.8616 0.8614
2632.000000 0.8611 0.8597 0.8596 0.8605 0.8603
2627.000000 0.8601 0.8599 0.8597 0.8595 0.8592
2622.000000 0.8589 0.8585 0.8583 0.8580 0.8577
2617.000000 0.8574 0.8572 0.8569 0.8566 0.8562
2612.000000 0.8560 0.8557 0.8554 0.8551 0.8550
2607.000000 0.8547 0.8543 0.8541 0.8539 0.8539
2602.000000 0.8540 0.8540 0.8540 0.8540 0.8541
2597.000000 0.8541 0.8541 0.8541 0.8542 0.8542
2592.000000 0.8542 0.8542 0.8543 0.8543 0.8543
2587.000000 0.8543 0.8543 0.8543 0.8543 0.8545
2582.000000 0.8546 0.8546 0.8547 0.8549 0.8550
2577.000000 0.8550 0.8552 0.8553 0.8553 0.8554
2572.000000 0.8557 0.8558 0.8560 0.8561 0.8561
2567.000000 0.8562 0.8564 0.8564 0.8566 0.8567
2562.000000 0.8568 0.8569 0.8570 0.8571 0.8571
2557.000000 0.8571 0.8571 0.8570 0.8569 0.8568
2552.000000 0.8568 0.8567 0.8566 0.8564 0.8564
2547.000000 0.8564 0.8562 0.8560 0.8560 0.8560
2542.000000 0.8559 0.8557 0.8557 0.8556 0.8556
2537.000000 0.8554 0.8554 0.8553 0.8553 0.8552
2532.000000 0.8550 0.8550 0.8550 0.8549 0.8547
2527.000000 0.8546 0.8546 0.8546 0.8546 0.8544
2522.000000 0.8544 0.8542 0.8542 0.8542 0.8542
2517.000000 0.8541 0.8541 0.8540 0.8540 0.8539
2512.000000 0.8538 0.8537 0.8537 0.8535 0.8535
2507.000000 0.8535 0.8535 0.8534 0.8534 0.8533
2502.000000 0.8533 0.8532 0.8532 0.8531 0.8531
2497.000000 0.8530 0.8530 0.8528 0.8528 0.8527
2492.000000 0.8526 0.8525 0.8524 0.8523 0.8522
2487.000000 0.8520 0.8519 0.8518 0.8517 0.8516
2482.000000 0.8515 0.8521 0.8525 0.8522 0.8522
2477.000000 0.8520 0.8519 0.8519 0.8518 0.8516
2472.000000 0.8515 0.8515 0.8513 0.8512 0.8512
2467.000000 0.8511 0.8509 0.8509 0.8508 0.8506
2462.000000 0.8504 0.8504 0.8503 0.8501 0.8494
2457.000000 0.8491 0.8489 0.8482 0.8480 0.8486
2452.000000 0.8489 0.8487 0.8475 0.8480 0.8481
2447.000000 0.8479 0.8478 0.8476 0.8474 0.8472
2442.000000 0.8470 0.8468 0.8466 0.8462 0.8460
2437.000000 0.8458 0.8455 0.8452 0.8449 0.8446
2432.000000 0.8444 0.8441 0.8438 0.8435 0.8433
2427.000000 0.8430 0.8428 0.8425 0.8423 0.8421
2422.000000 0.8419 0.8417 0.8414 0.8413 0.8410
2417.000000 0.8407 0.8406 0.8403 0.8402 0.8399
2412.000000 0.8398 0.8396 0.8395 0.8397 0.8401
2407.000000 0.8396 0.8402 0.8400 0.8400 0.8400
2402.000000 0.8399 0.8398 0.8397 0.8396 0.8395
2397.000000 0.8393 0.8391 0.8389 0.8387 0.8384
2392.000000 0.8382 0.8380 0.8378 0.8388 0.8385
2387.000000 0.8384 0.8380 0.8379 0.8388 0.8386
2382.000000 0.8386 0.8394 0.8390 0.8406 0.8428
2377.000000 0.8448 0.8469 0.8485 0.8509 0.8530
2372.000000 0.8546 0.8561 0.8577 0.8582 0.8592
2367.000000 0.8594 0.8598 0.8600 0.8618 0.8604
2362.000000 0.8607 0.8608 0.8621 0.8615 0.8618
2357.000000 0.8610 0.8615 0.8602 0.8580 0.8560
2352.000000 0.8541 0.8517 0.8492 0.8476 0.8466
2347.000000 0.8471 0.8470 0.8463 0.8447 0.8440
2342.000000 0.8438 0.8437 0.8437 0.8426 0.8433
2337.000000 0.8434 0.8422 0.8421 0.8432 0.8429
2332.000000 0.8429 0.8429 0.8439 0.8438 0.8438
2327.000000 0.8441 0.8447 0.8450 0.8456 0.8451
2322.000000 0.8448 0.8444 0.8442 0.8436 0.8434
2317.000000 0.8428 0.8422 0.8415 0.8407 0.8400
2312.000000 0.8392 0.8385 0.8379 0.8371 0.8364
2307.000000 0.8355 0.8349 0.8341 0.8336 0.8322
2302.000000 0.8308 0.8294 0.8283 0.8276 0.8273
2297.000000 0.8265 0.8259 0.8252 0.8248 0.8242
2292.000000 0.8237 0.8232 0.8203 0.8228 0.8220
2287.000000 0.8218 0.8219 0.8219 0.8220 0.8210
2282.000000 0.8210 0.8210 0.8211 0.8210 0.8201
2277.000000 0.8201 0.8200 0.8191 0.8191 0.8191
2272.000000 0.8187 0.8179 0.8179 0.8174 0.8167
2267.000000 0.8167 0.8167 0.8161 0.8156 0.8157
2262.000000 0.8159 0.8152 0.8151 0.8152 0.8143
2257.000000 0.8143 0.8144 0.8146 0.8136 0.8139
2252.000000 0.8140 0.8141 0.8132 0.8133 0.8135
2247.000000 0.8138 0.8140 0.8140 0.8135 0.8138
2242.000000 0.8142 0.8145 0.8150 0.8153 0.8157
2237.000000 0.8159 0.8162 0.8157 0.8158 0.8161
2232.000000 0.8166 0.8170 0.8173 0.8176 0.8180
2227.000000 0.8183 0.8186 0.8188 0.8191 0.8194
2222.000000 0.8194 0.8187 0.8188 0.8191 0.8195
2217.000000 0.8196 0.8199 0.8202 0.8205 0.8207
2212.000000 0.8209 0.8211 0.8214 0.8216 0.8220
2207.000000 0.8222 0.8225 0.8227 0.8229 0.8231
2202.000000 0.8234 0.8236 0.8238 0.8239 0.8243
2197.000000 0.8244 0.8244 0.8237 0.8250 0.8247
2192.000000 0.8241 0.8242 0.8246 0.8248 0.8250
2187.000000 0.8251 0.8253 0.8255 0.8264 0.8263
2182.000000 0.8260 0.8262 0.8264 0.8266 0.8278
2177.000000 0.8281 0.8283 0.8285 0.8287 0.8288
2172.000000 0.8292 0.8292 0.8295 0.8294 0.8287
2167.000000 0.8287 0.8290 0.8291 0.8294 0.8294
2162.000000 0.8295 0.8298 0.8298 0.8300 0.8301
2157.000000 0.8302 0.8303 0.8304 0.8305 0.8306
2152.000000 0.8307 0.8308 0.8309 0.8309 0.8310
2147.000000 0.8311 0.8312 0.8313 0.8314 0.8315
2142.000000 0.8316 0.8317 0.8318 0.8318 0.8319
2137.000000 0.8319 0.8319 0.8319 0.8319 0.8319
2132.000000 0.8319 0.8319 0.8319 0.8318 0.8318
2127.000000 0.8318 0.8318 0.8318 0.8318 0.8318
2122.000000 0.8308 0.8317 0.8318 0.8318 0.8318
2117.000000 0.8317 0.8317 0.8317 0.8317 0.8316
2112.000000 0.8316 0.8315 0.8315 0.8315 0.8315
2107.000000 0.8314 0.8314 0.8313 0.8313 0.8312
2102.000000 0.8312 0.8312 0.8311 0.8310 0.8302
2097.000000 0.8298 0.8307 0.8309 0.8299 0.8307
2092.000000 0.8308 0.8307 0.8307 0.8307 0.8307
2087.000000 0.8306 0.8306 0.8306 0.8306 0.8305
2082.000000 0.8305 0.8305 0.8305 0.8304 0.8304
2077.000000 0.8304 0.8304 0.8303 0.8303 0.8303
2072.000000 0.8303 0.8302 0.8302 0.8302 0.8302
2067.000000 0.8301 0.8301 0.8300 0.8300 0.8299
2062.000000 0.8299 0.8296 0.8296 0.8296 0.8296
2057.000000 0.8297 0.8306 0.8305 0.8305 0.8305
2052.000000 0.8299 0.8295 0.8302 0.8294 0.8289
2047.000000 0.8289 0.8289 0.8287 0.8287 0.8286
2042.000000 0.8286 0.8286 0.8285 0.8283 0.8283
2037.000000 0.8283 0.8285 0.8286 0.8286 0.8287
2032.000000 0.8289 0.8289 0.8290 0.8292 0.8296
2027.000000 0.8301 0.8294 0.8301 0.8308 0.8311
2022.000000 0.8313 0.8315 0.8318 0.8320 0.8323
2017.000000 0.8325 0.8328 0.8330 0.8332 0.8335
2012.000000 0.8337 0.8339 0.8342 0.8345 0.8349
2007.000000 0.8353 0.8356 0.8358 0.8362 0.8364
2002.000000 0.8367 0.8368 0.8389 0.8372 0.8369
1997.000000 0.8352 0.8341 0.8331 0.8318 0.8302
1992.000000 0.8274 0.8236 0.8189 0.8139 0.8084
1987.000000 0.8004 0.7875 0.7776 0.7698 0.7627
1982.000000 0.7548 0.7470 0.7404 0.7344 0.7278
1977.000000 0.7234 0.7226 0.7211 0.7225 0.7226
1972.000000 0.7270 0.7338 0.7406 0.7498 0.7648
1967.000000 0.7704 0.7739 0.7715 0.7704 0.7696
1962.000000 0.7677 0.7654 0.7627 0.7597 0.7567
1957.000000 0.7539 0.7512 0.7509 0.7497 0.7502
1952.000000 0.7550 0.7587 0.7622 0.7648 0.7683
1947.000000 0.7718 0.7761 0.7802 0.7841 0.7878
1942.000000 0.7914 0.7948 0.7983 0.8018 0.8045
1937.000000 0.8074 0.8101 0.8130 0.8158 0.8186
1932.000000 0.8214 0.8230 0.8242 0.8249 0.8253
1927.000000 0.8253 0.8272 0.8250 0.8250 0.8241
1922.000000 0.8222 0.8182 0.8128 0.8070 0.8017
1917.000000 0.7973 0.7968 0.7981 0.7981 0.7982
1912.000000 0.8004 0.8031 0.8048 0.8054 0.8056
1907.000000 0.8066 0.8076 0.8085 0.8103 0.8132
1902.000000 0.8160 0.8188 0.8223 0.8264 0.8313
1897.000000 0.8342 0.8366 0.8391 0.8410 0.8425
1892.000000 0.8430 0.8435 0.8440 0.8454 0.8468
1887.000000 0.8481 0.8495 0.8509 0.8527 0.8542
1882.000000 0.8553 0.8563 0.8574 0.8583 0.8590
1877.000000 0.8598 0.8601 0.8615 0.8619 0.8622
1872.000000 0.8625 0.8628 0.8632 0.8635 0.8636
1867.000000 0.8636 0.8636 0.8635 0.8635 0.8634
1862.000000 0.8633 0.8631 0.8630 0.8628 0.8624
1857.000000 0.8627 0.8622 0.8618 0.8618 0.8618
1852.000000 0.8618 0.8618 0.8617 0.8617 0.8617
1847.000000 0.8617 0.8617 0.8617 0.8618 0.8619
1842.000000 0.8621 0.8623 0.8625 0.8627 0.8629
1837.000000 0.8631 0.8629 0.8623 0.8625 0.8627
1832.000000 0.8630 0.8632 0.8633 0.8635 0.8636
1827.000000 0.8638 0.8639 0.8640 0.8641 0.8643
1822.000000 0.8644 0.8645 0.8646 0.8660 0.8661
1817.000000 0.8662 0.8663 0.8664 0.8665 0.8666
1812.000000 0.8667 0.8670 0.8671 0.8668 0.8663
1807.000000 0.8665 0.8668 0.8670 0.8665 0.8662
1802.000000 0.8664 0.8667 0.8668 0.8670 0.8671
1797.000000 0.8672 0.8675 0.8675 0.8678 0.8679
1792.000000 0.8681 0.8684 0.8685 0.8687 0.8687
1787.000000 0.8688 0.8688 0.8688 0.8688 0.8688
1782.000000 0.8688 0.8688 0.8689 0.8689 0.8689
1777.000000 0.8689 0.8681 0.8677 0.8677 0.8677
1772.000000 0.8677 0.8678 0.8678 0.8678 0.8678
1767.000000 0.8676 0.8675 0.8673 0.8672 0.8670
1762.000000 0.8669 0.8668 0.8666 0.8667 0.8675
1757.000000 0.8674 0.8672 0.8672 0.8671 0.8670
1752.000000 0.8670 0.8671 0.8672 0.8672 0.8674
1747.000000 0.8675 0.8675 0.8677 0.8678 0.8679
1742.000000 0.8679 0.8678 0.8679 0.8677 0.8677
1737.000000 0.8677 0.8677 0.8677 0.8675 0.8676
1732.000000 0.8674 0.8672 0.8672 0.8670 0.8670
1727.000000 0.8669 0.8667 0.8667 0.8666 0.8665
1722.000000 0.8663 0.8663 0.8662 0.8661 0.8660
1717.000000 0.8659 0.8657 0.8656 0.8656 0.8655
1712.000000 0.8655 0.8658 0.8661 0.8663 0.8666
1707.000000 0.8668 0.8671 0.8676 0.8681 0.8685
1702.000000 0.8692 0.8696 0.8702 0.8707 0.8713
1697.000000 0.8717 0.8718 0.8718 0.8710 0.8702
1692.000000 0.8694 0.8687 0.8679 0.8671 0.8663
1687.000000 0.8663 0.8665 0.8667 0.8669 0.8672
1682.000000 0.8673 0.8676 0.8678 0.8682 0.8686
1677.000000 0.8691 0.8696 0.8700 0.8704 0.8713
1672.000000 0.8725 0.8730 0.8733 0.8735 0.8736
1667.000000 0.8737 0.8739 0.8741 0.8742 0.8743
1662.000000 0.8743 0.8742 0.8750 0.8738 0.8734
1657.000000 0.8743 0.8744 0.8745 0.8753 0.8759
1652.000000 0.8758 0.8775 0.8782 0.8788 0.8792
1647.000000 0.8796 0.8804 0.8814 0.8816 0.8817
1642.000000 0.8824 0.8826 0.8823 0.8819 0.8825
1637.000000 0.8821 0.8833 0.8848 0.8860 0.8838
1632.000000 0.8888 0.8877 0.8854 0.8837 0.8807
1627.000000 0.8790 0.8757 0.8722 0.8709 0.8692
1622.000000 0.8702 0.8698 0.8688 0.8691 0.8692
1617.000000 0.8684 0.8689 0.8693 0.8697 0.8701
1612.000000 0.8711 0.8726 0.8726 0.8737 0.8746
1607.000000 0.8747 0.8749 0.8726 0.8738 0.8721
1602.000000 0.8699 0.8654 0.8655 0.8645 0.8638
1597.000000 0.8625 0.8601 0.8572 0.8550 0.8536
1592.000000 0.8551 0.8531 0.8459 0.8418 0.8376
1587.000000 0.8274 0.8222 0.8184 0.8155 0.8134
1582.000000 0.8075 0.8059 0.8038 0.8036 0.8028
1577.000000 0.8035 0.8032 0.8042 0.8065 0.8067
1572.000000 0.8052 0.8067 0.8038 0.8014 0.7966
1567.000000 0.7930 0.7896 0.7887 0.7885 0.7881
1562.000000 0.7756 0.7732 0.7793 0.7873 0.7943
1557.000000 0.7991 0.8045 0.8121 0.8102 0.7906
1552.000000 0.7650 0.7511 0.7490 0.7450 0.7406
1547.000000 0.7343 0.7319 0.7257 0.7266 0.7323
1542.000000 0.7410 0.7465 0.7512 0.7548 0.7582
1537.000000 0.7586 0.7617 0.7662 0.7682 0.7701
1532.000000 0.7734 0.7775 0.7776 0.7776 0.7781
1527.000000 0.7786 0.7796 0.7798 0.7811 0.7815
1522.000000 0.7828 0.7830 0.7844 0.7861 0.7868
1517.000000 0.7885 0.7901 0.7910 0.7926 0.7933
1512.000000 0.7949 0.7953 0.7965 0.7976 0.7975
1507.000000 0.7972 0.7971 0.7969 0.7975 0.7978
1502.000000 0.7972 0.7972 0.7975 0.7976 0.7971
1497.000000 0.7972 0.7974 0.7988 0.7991 0.8003
1492.000000 0.8011 0.8020 0.8025 0.8027 0.8028
1487.000000 0.8064 0.8078 0.8093 0.8066 0.8071
1482.000000 0.8083 0.8090 0.8069 0.8028 0.7978
1477.000000 0.7930 0.7896 0.7863 0.7819 0.7788
1472.000000 0.7746 0.7697 0.7632 0.7555 0.7377
1467.000000 0.5336 0.4752 0.4751 0.4745 0.4780
1462.000000 0.4887 0.5000 0.5112 0.5223 0.5314
1457.000000 0.5332 0.5350 0.5364 0.5414 0.5493
1452.000000 0.5615 0.6239 0.6403 0.6548 0.6643
1447.000000 0.6715 0.6792 0.6879 0.6960 0.7025
1442.000000 0.7088 0.7134 0.7139 0.7149 0.7156
1437.000000 0.7160 0.7135 0.7108 0.7010 0.6873
1432.000000 0.6789 0.6715 0.6636 0.6555 0.6440
1427.000000 0.6412 0.6364 0.6410 0.6432 0.6545
1422.000000 0.6701 0.6865 0.7097 0.7566 0.7819
1417.000000 0.7924 0.7952 0.7991 0.8021 0.8049
1412.000000 0.8079 0.8106 0.8133 0.8152 0.8172
1407.000000 0.8193 0.8212 0.8232 0.8252 0.8273
1402.000000 0.8294 0.8315 0.8331 0.8342 0.8359
1397.000000 0.8366 0.8367 0.8367 0.8365 0.8363
1392.000000 0.8363 0.8348 0.8333 0.8297 0.8250
1387.000000 0.8198 0.8148 0.8079 0.7859 0.7586
1382.000000 0.7315 0.7046 0.6623 0.6601 0.6604
1377.000000 0.6712 0.6943 0.7170 0.7403 0.7636
1372.000000 0.7871 0.7871 0.7870 0.7818 0.7765
1367.000000 0.7713 0.7680 0.7694 0.7781 0.7867
1362.000000 0.7954 0.8040 0.8127 0.8206 0.8162
1357.000000 0.8167 0.8160 0.8160 0.8159 0.8155
1352.000000 0.8140 0.8120 0.8102 0.8073 0.8042
1347.000000 0.8010 0.7938 0.7894 0.7854 0.7820
1342.000000 0.7788 0.7762 0.7740 0.7725 0.7709
1337.000000 0.7716 0.7742 0.7777 0.7813 0.7863
1332.000000 0.7910 0.7944 0.7944 0.7933 0.7927
1327.000000 0.7918 0.7906 0.7897 0.7912 0.7927
1322.000000 0.7937 0.7956 0.7976 0.7996 0.8016
1317.000000 0.8042 0.8069 0.8092 0.8115 0.8135
1312.000000 0.8149 0.8153 0.8198 0.8140 0.8134
1307.000000 0.8118 0.8102 0.8086 0.8059 0.8040
1302.000000 0.8023 0.8004 0.7966 0.7908 0.7849
1297.000000 0.7790 0.7733 0.7688 0.7649 0.7611
1292.000000 0.7571 0.7508 0.7443 0.7409 0.7404
1287.000000 0.7365 0.7433 0.7503 0.7573 0.7619
1282.000000 0.7664 0.7709 0.7768 0.7806 0.7831
1277.000000 0.7846 0.7873 0.7887 0.7900 0.7906
1272.000000 0.7913 0.7946 0.7891 0.7854 0.7814
1267.000000 0.7753 0.7695 0.7622 0.7543 0.7479
1262.000000 0.7416 0.7341 0.7235 0.7271 0.7271
1257.000000 0.7366 0.7449 0.7529 0.7599 0.7638
1252.000000 0.7666 0.7678 0.7678 0.7678 0.7669
1247.000000 0.7623 0.7565 0.7544 0.7515 0.7527
1242.000000 0.7534 0.7547 0.7561 0.7576 0.7583
1237.000000 0.7607 0.7546 0.7475 0.7221 0.7062
1232.000000 0.6935 0.6201 0.5310 0.4418 0.4148
1227.000000 0.4158 0.4158 0.4390 0.4777 0.5164
1222.000000 0.5552 0.5939 0.6326 0.6711 0.7100
1217.000000 0.7487 0.7646 0.7750 0.7831 0.7911
1212.000000 0.7964 0.8002 0.8030 0.8055 0.8079
1207.000000 0.8099 0.8111 0.8116 0.8124 0.8131
1202.000000 0.8165 0.8121 0.8107 0.8092 0.8058
1197.000000 0.8007 0.7923 0.7842 0.7711 0.7589
1192.000000 0.7425 0.7254 0.7090 0.6952 0.6814
1187.000000 0.6677 0.6457 0.5830 0.5641 0.5509
1182.000000 0.5409 0.5319 0.5267 0.5226 0.5194
1177.000000 0.5159 0.5099 0.5025 0.4933 0.4854
1172.000000 0.4798 0.4768 0.4738 0.4738 0.4738
1167.000000 0.4775 0.4919 0.5260 0.5602 0.5942
1162.000000 0.6283 0.6624 0.6964 0.7305 0.7646
1157.000000 0.7896 0.8047 0.8109 0.8143 0.8167
1152.000000 0.8189 0.8204 0.8228 0.8251 0.8257
1147.000000 0.8269 0.8284 0.8299 0.8313 0.8315
1142.000000 0.8338 0.8351 0.8362 0.8370 0.8365
1137.000000 0.8352 0.8319 0.8318 0.8301 0.8289
1132.000000 0.8295 0.8304 0.8316 0.8344 0.8371
1127.000000 0.8405 0.8438 0.8467 0.8495 0.8522
1122.000000 0.8560 0.8592 0.8623 0.8630 0.8636
1117.000000 0.8643 0.8660 0.8663 0.8664 0.8660
1112.000000 0.8656 0.8652 0.8645 0.8635 0.8620
1107.000000 0.8621 0.8598 0.8584 0.8566 0.8517
1102.000000 0.8476 0.8454 0.8451 0.8448 0.8447
1097.000000 0.8446 0.8450 0.8455 0.8460 0.8464
1092.000000 0.8442 0.8419 0.8395 0.8363 0.8340
1087.000000 0.8331 0.8337 0.8342 0.8350 0.8359
1082.000000 0.8379 0.8414 0.8442 0.8467 0.8488
1077.000000 0.8512 0.8522 0.8535 0.8549 0.8567
1072.000000 0.8587 0.8598 0.8599 0.8600 0.8600
1067.000000 0.8600 0.8598 0.8595 0.8592 0.8590
1062.000000 0.8599 0.8597 0.8595 0.8579 0.8588
1057.000000 0.8582 0.8566 0.8561 0.8557 0.8554
1052.000000 0.8550 0.8549 0.8554 0.8549 0.8545
1047.000000 0.8541 0.8536 0.8532 0.8527 0.8523
1042.000000 0.8516 0.8510 0.8505 0.8500 0.8497
1037.000000 0.8495 0.8493 0.8471 0.8435 0.8397
1032.000000 0.8382 0.8369 0.8347 0.8316 0.8363
1027.000000 0.8372 0.8378 0.8379 0.8394 0.8408
1022.000000 0.8421 0.8435 0.8451 0.8464 0.8479
1017.000000 0.8491 0.8507 0.8522 0.8535 0.8550
1012.000000 0.8565 0.8581 0.8595 0.8610 0.8615
1007.000000 0.8628 0.8642 0.8653 0.8652 0.8663
1002.000000 0.8674 0.8686 0.8698 0.8708 0.8715
997.000000 0.8713 0.8719 0.8726 0.8733 0.8739
992.000000 0.8752 0.8765 0.8772 0.8777 0.8785
987.000000 0.8792 0.8798 0.8801 0.8803 0.8806
982.000000 0.8809 0.8812 0.8815 0.8817 0.8820
977.000000 0.8824 0.8827 0.8825 0.8825 0.8821
972.000000 0.8811 0.8818 0.8816 0.8814 0.8810
967.000000 0.8808 0.8803 0.8796 0.8786 0.8779
962.000000 0.8773 0.8765 0.8758 0.8761 0.8765
957.000000 0.8768 0.8772 0.8775 0.8781 0.8783
952.000000 0.8788 0.8792 0.8796 0.8799 0.8803
947.000000 0.8807 0.8811 0.8815 0.8820 0.8823
942.000000 0.8827 0.8826 0.8821 0.8817 0.8813
937.000000 0.8809 0.8805 0.8777 0.8794 0.8789
932.000000 0.8781 0.8777 0.8771 0.8766 0.8751
927.000000 0.8735 0.8720 0.8704 0.8688 0.8651
922.000000 0.8609 0.8565 0.8521 0.8480 0.8450
917.000000 0.8405 0.8379 0.8346 0.8313 0.8288
912.000000 0.8272 0.8198 0.8261 0.8251 0.8259
907.000000 0.8287 0.8329 0.8380 0.8426 0.8464
902.000000 0.8511 0.8554 0.8603 0.8608 0.8622
897.000000 0.8639 0.8655 0.8672 0.8698 0.8714
892.000000 0.8739 0.8760 0.8785 0.8815 0.8747
887.000000 0.8750 0.8758 0.8759 0.8769 0.8773
882.000000 0.8769 0.8765 0.8759 0.8746 0.8732
877.000000 0.8717 0.8704 0.8691 0.8677 0.8663
872.000000 0.8648 0.8632 0.8614 0.8595 0.8577
867.000000 0.8573 0.8559 0.8549 0.8551 0.8551
862.000000 0.8539 0.8531 0.8539 0.8543 0.8541
857.000000 0.8528 0.8512 0.8482 0.8433 0.8391
852.000000 0.8343 0.8202 0.8232 0.8160 0.8091
847.000000 0.8043 0.8006 0.7985 0.7966 0.7959
842.000000 0.7952 0.7946 0.7990 0.8046 0.8085
837.000000 0.8142 0.8187 0.8234 0.8283 0.8330
832.000000 0.8377 0.8421 0.8470 0.8516 0.8573
827.000000 0.8605 0.8614 0.8625 0.8636 0.8639
822.000000 0.8643 0.8637 0.8648 0.8638 0.8640
817.000000 0.8641 0.8645 0.8621 0.8589 0.8559
812.000000 0.8542 0.8527 0.8502 0.8486 0.8460
807.000000 0.8438 0.8438 0.8444 0.8444 0.8443
802.000000 0.8450 0.8465 0.8498 0.8526 0.8536
797.000000 0.8548 0.8559 0.8566 0.8556 0.8544
792.000000 0.8529 0.8525 0.8500 0.8478 0.8456
787.000000 0.8437 0.8418 0.8400 0.8384 0.8370
782.000000 0.8357 0.8351 0.8348 0.8369 0.8379
777.000000 0.8381 0.8391 0.8402 0.8412 0.8407
772.000000 0.8397 0.8391 0.8385 0.8338 0.8264
767.000000 0.8198 0.8162 0.8132 0.8127 0.8125
762.000000 0.8122 0.8148 0.8171 0.8184 0.8199
757.000000 0.8212 0.8226 0.8231 0.8239 0.8252
752.000000 0.8258 0.8263 0.8268 0.8272 0.8276
747.000000 0.8281 0.8282 0.8284 0.8277 0.8267
742.000000 0.8231 0.8185 0.8133 0.8078 0.8031
737.000000 0.7986 0.7941 0.7916 0.7889 0.7874
732.000000 0.7868 0.7864 0.7862 0.7836 0.7809
727.000000 0.7711 0.7601 0.7526 0.7461 0.7281
722.000000 0.7337 0.7331 0.7334 0.7340 0.7356
717.000000 0.7377 0.7401 0.7459 0.7535 0.7636
712.000000 0.7743 0.7846 0.7937 0.7979 0.8020
707.000000 0.8056 0.8086 0.8117 0.8147 0.8183
702.000000 0.8202 0.8224 0.8252 0.8263 0.8273
697.000000 0.8285 0.8294 0.8309 0.8327 0.8338
692.000000 0.8349 0.8358 0.8369 0.8376 0.8388
687.000000 0.8398 0.8403 0.8404 0.8405 0.8413
682.000000 0.8410 0.8408 0.8418 0.8415 0.8436
677.000000 0.8446 0.8466 0.8472 0.8460 0.8455
672.000000 0.8442 0.8442 0.8462 0.8548 0.8615
667.000000 0.8548 0.8494 0.8527 0.8599 0.8610
662.000000 0.8622 0.8643 0.8628 0.8614 0.8590
657.000000 0.8582 0.8566 0.8538 0.8506 0.8476
652.000000 0.8444 0.8437 0.8416 0.8371 0.8390
647.000000 0.8375 0.8364 0.8373 0.8378 0.8378
642.000000 0.8390 0.8398 0.8402 0.8413 0.8417
637.000000 0.8419 0.8432 0.8446 0.8445 0.8457
632.000000 0.8461 0.8460 0.8469 0.8480 0.8480
627.000000 0.8487 0.8484 0.8490 0.8499 0.8494
622.000000 0.8501 0.8507 0.8513 0.8523 0.8538
617.000000 0.8539 0.8536 0.8540 0.8542 0.8535
612.000000 0.8536 0.8525 0.8524 0.8508 0.8492
607.000000 0.8468 0.8407 0.8318 0.8231 0.8148
602.000000 0.8055 0.7951 0.7914 0.7904 0.7896
597.000000 0.7889 0.7885 0.7841 0.7763 0.7689
592.000000 0.7613 0.7475 0.7371 0.7332 0.7317
587.000000 0.7289 0.7303 0.7309 0.7372 0.7441
582.000000 0.7519 0.7600 0.7679 0.7787 0.7888
577.000000 0.7969 0.8026 0.8083 0.8132 0.8166
572.000000 0.8196 0.8229 0.8255 0.8275 0.8294
567.000000 0.8303 0.8323 0.8340 0.8341 0.8338
562.000000 0.8342 0.8345 0.8348 0.8350 0.8352
557.000000 0.8353 0.8355 0.8350 0.8346 0.8346
552.000000 0.8338 0.8341 0.8338 0.8330 0.8323
547.000000 0.8316 0.8310 0.8303 0.8295 0.8289
542.000000 0.8280 0.8273 0.8266 0.8260 0.8263
537.000000 0.8247 0.8261 0.8250 0.8238 0.8239
532.000000 0.8232 0.8225 0.8218 0.8211 0.8203
527.000000 0.8197 0.8192 0.8186 0.8176 0.8164
522.000000 0.8152 0.8142 0.8127 0.8113 0.8099
517.000000 0.8086 0.8074 0.8062 0.8047 0.8029
512.000000 0.8014 0.7968 0.7935 0.7909 0.7890
507.000000 0.7873 0.7856 0.7838 0.7831 0.7825
502.000000 0.7799 0.7830 0.7843 0.7865 0.7897
497.000000 0.7928 0.7957 0.7987 0.8016 0.8046
492.000000 0.8074 0.8100 0.8126 0.8152 0.8175
487.000000 0.8194 0.8213 0.8232 0.8240 0.8248
482.000000 0.8248 0.8248 0.8244 0.8241 0.8243
477.000000 0.8244 0.8244 0.8244 0.8247 0.8248
472.000000 0.8248 0.8255 0.8271 0.8284 0.8297
467.000000 0.8310 0.8323 0.8336 0.8349 0.8360
462.000000 0.8372 0.8380 0.8386 0.8391 0.8397
457.000000 0.8404 0.8407 0.8407 0.8407 0.8407
452.000000 0.8407 0.8407 0.8407 0.8405 0.8405
447.000000 0.8386 0.8401 0.8398 0.8392 0.8384
442.000000 0.8375 0.8366 0.8356 0.8349 0.8339
437.000000 0.8328 0.8315 0.8303 0.8292 0.8281
432.000000 0.8268 0.8251 0.8233 0.8215 0.8197
427.000000 0.8180 0.8162 0.8143 0.8123 0.8096
422.000000 0.8072 0.8046 0.8019 0.7998 0.7975
417.000000 0.7952 0.7928 0.7905 0.7867 0.7828
412.000000 0.7789 0.7735 0.7667 0.7600 0.7539
407.000000 0.7481 0.7423 0.7365 0.7300 0.7234
402.000000 0.7162 0.7058 0.6910 0.6809 0.6783
397.000000 0.6755 0.6710 0.6638 0.6559 0.6490
392.000000 0.6421 0.6353 0.6288 0.6209 0.6137
387.000000 0.6065 0.5986 0.5883 0.5734 0.5557
382.000000 0.5413 0.5304
##END=
