##TITLE=Acetic acid
##JCAMP-DX=4.24
##DATA TYPE=INFRARED SPECTRUM
##CLASS=COBLENTZ
##ORIGIN=DOW CHEMICAL COMPANY
##OWNER=COBLENTZ SOC.
Collection (C) 2018 copyright by the U.S. Secretary of Commerce
on behalf of the United States of America. All rights reserved.
##DATE=1964
##CAS REGISTRY NO=64-19-7
##MOLFORM=C2 H4 O2
##SOURCE REFERENCE=COBLENTZ NO. 08766
##$NIST SOURCE=COBLENTZ
##$NIST IMAGE=cob8766
##SPECTROMETER/DATA SYSTEM=DOW KBr FOREPRISM-GRATING
##INSTRUMENT PARAMETERS=GRATING CHANGED AT 5.0, 7.5, 15.0 MICRON
##STATE=GAS (15 mmHg, N2 ADDED, TOTAL PRESSURE 600 mmHg)
##PATH LENGTH=5 CM
##SAMPLING PROCEDURE=TRANSMISSION
##RESOLUTION=2
##DATA PROCESSING=DIGITIZED BY COBLENTZ SOCIETY (BATCH I) FROM HARD COPY
##XUNITS=1/CM
##YUNITS=TRANSMITTANCE
##XLABEL=Wavenumbers (cm-1)
##YLABEL=% Transmission
##XFACTOR=1
##YFACTOR=1
##DELTAX=1
##FIRSTX=460
##LASTX=3792
##FIRSTY=0.7482
##MAXX=3792
##MINX=460
##MAXY=0.8875
##MINY=0.0003
##NPOINTS=3333
##XYDATA=(X++(Y..Y))
460.000000 0.7482 0.7433 0.7381 0.7317 0.7251
465.000000 0.7190 0.7126 0.7064 0.6978 0.6874
470.000000 0.6650 0.6504 0.6258 0.5968 0.5828
475.000000 0.5725 0.5622 0.5532 0.5447 0.5378
480.000000 0.5314 0.5280 0.5256 0.5244 0.5244
485.000000 0.5244 0.5252 0.5264 0.5303 0.5417
490.000000 0.5492 0.5932 0.6373 0.6812 0.7254
495.000000 0.7651 0.7878 0.8087 0.8165 0.8209
500.000000 0.8234 0.8258 0.8282 0.8328 0.8304
505.000000 0.8314 0.8318 0.8317 0.8314 0.8309
510.000000 0.8303 0.8291 0.8275 0.8260 0.8244
515.000000 0.8221 0.8196 0.8175 0.8158 0.8158
520.000000 0.8144 0.8150 0.8157 0.8164 0.8171
525.000000 0.8181 0.8192 0.8203 0.8214 0.8225
530.000000 0.8230 0.8232 0.8234 0.8236 0.8228
535.000000 0.8248 0.8140 0.8046 0.8003 0.7984
540.000000 0.7464 0.6786 0.6771 0.6918 0.7292
545.000000 0.7664 0.8036 0.8157 0.8210 0.8195
550.000000 0.8193 0.8189 0.8181 0.8171 0.8161
555.000000 0.8148 0.8134 0.8118 0.8099 0.8080
560.000000 0.8061 0.8044 0.8025 0.8008 0.7991
565.000000 0.7972 0.7956 0.7941 0.7928 0.7914
570.000000 0.7900 0.7894 0.7889 0.7884 0.7875
575.000000 0.7898 0.7917 0.7940 0.7968 0.8001
580.000000 0.8041 0.8069 0.8092 0.8089 0.8101
585.000000 0.8085 0.7728 0.7308 0.7248 0.7491
590.000000 0.7851 0.8028 0.8050 0.7930 0.7876
595.000000 0.7833 0.7793 0.7758 0.7736 0.7725
600.000000 0.7724 0.7724 0.7741 0.7768 0.7799
605.000000 0.7817 0.7828 0.7842 0.7843 0.7843
610.000000 0.7842 0.7840 0.7824 0.7783 0.7721
615.000000 0.7644 0.7551 0.7450 0.7108 0.6767
620.000000 0.6425 0.6084 0.5743 0.5384 0.5186
625.000000 0.5057 0.5006 0.4982 0.4981 0.4980
630.000000 0.4996 0.5018 0.5047 0.5120 0.5268
635.000000 0.5347 0.5453 0.5730 0.6006 0.6283
640.000000 0.6558 0.6835 0.7111 0.7547 0.7547
645.000000 0.7518 0.6769 0.6021 0.5779 0.6492
650.000000 0.5784 0.7775 0.7768 0.7555 0.7162
655.000000 0.6915 0.6962 0.7149 0.7267 0.7269
660.000000 0.7156 0.7039 0.6921 0.6833 0.7148
665.000000 0.7841 0.7885 0.7921 0.7943 0.7958
670.000000 0.7961 0.7961 0.7962 0.7964 0.7965
675.000000 0.7971 0.7978 0.7988 0.8001 0.8018
680.000000 0.8040 0.8061 0.8084 0.8106 0.8134
685.000000 0.8167 0.8200 0.8234 0.8267 0.8299
690.000000 0.8331 0.8362 0.8394 0.8425 0.8457
695.000000 0.8487 0.8513 0.8540 0.8567 0.8590
700.000000 0.8613 0.8636 0.8651 0.8663 0.8671
705.000000 0.8677 0.8683 0.8685 0.8686 0.8687
710.000000 0.8688 0.8689 0.8689 0.8689 0.8689
715.000000 0.8689 0.8689 0.8692 0.8697 0.8702
720.000000 0.8708 0.8716 0.8741 0.8771 0.8801
725.000000 0.8801 0.8802 0.8778 0.8783 0.8761
730.000000 0.8720 0.8692 0.8675 0.8663 0.8656
735.000000 0.8650 0.8647 0.8644 0.8640 0.8636
740.000000 0.8631 0.8627 0.8623 0.8618 0.8614
745.000000 0.8609 0.8604 0.8599 0.8594 0.8589
750.000000 0.8584 0.8578 0.8574 0.8568 0.8564
755.000000 0.8559 0.8553 0.8547 0.8541 0.8535
760.000000 0.8528 0.8523 0.8517 0.8511 0.8505
765.000000 0.8500 0.8494 0.8488 0.8482 0.8475
770.000000 0.8470 0.8463 0.8457 0.8451 0.8445
775.000000 0.8438 0.8432 0.8425 0.8420 0.8414
780.000000 0.8407 0.8401 0.8395 0.8390 0.8384
785.000000 0.8378 0.8373 0.8367 0.8362 0.8356
790.000000 0.8350 0.8345 0.8339 0.8338 0.8338
795.000000 0.8339 0.8339 0.8340 0.8340 0.8341
800.000000 0.8341 0.8341 0.8341 0.8342 0.8342
805.000000 0.8340 0.8338 0.8335 0.8333 0.8331
810.000000 0.8328 0.8327 0.8323 0.8318 0.8314
815.000000 0.8310 0.8305 0.8301 0.8294 0.8286
820.000000 0.8277 0.8268 0.8261 0.8252 0.8244
825.000000 0.8236 0.8225 0.8213 0.8202 0.8190
830.000000 0.8178 0.8167 0.8156 0.8144 0.8134
835.000000 0.8126 0.8119 0.8112 0.8106 0.8105
840.000000 0.8108 0.8110 0.8111 0.8111 0.8111
845.000000 0.8110 0.8107 0.8103 0.8100 0.8092
850.000000 0.8085 0.8078 0.8069 0.8062 0.8056
855.000000 0.8048 0.8041 0.8033 0.8025 0.8017
860.000000 0.8008 0.8000 0.7992 0.7984 0.7975
865.000000 0.7968 0.7961 0.7953 0.7945 0.7937
870.000000 0.7930 0.7921 0.7911 0.7894 0.7876
875.000000 0.7860 0.7843 0.7825 0.7797 0.7761
880.000000 0.7725 0.7688 0.7640 0.7592 0.7544
885.000000 0.7496 0.7448 0.7397 0.7339 0.7282
890.000000 0.7224 0.7186 0.7151 0.7115 0.7078
895.000000 0.7043 0.7021 0.7004 0.6990 0.6986
900.000000 0.6986 0.6990 0.6993 0.6997 0.7000
905.000000 0.7003 0.6974 0.6946 0.6917 0.6881
910.000000 0.6842 0.6801 0.6761 0.6721 0.6678
915.000000 0.6637 0.6595 0.6546 0.6494 0.6442
920.000000 0.6390 0.6337 0.6279 0.6221 0.6162
925.000000 0.6105 0.6047 0.5987 0.5928 0.5868
930.000000 0.5809 0.5749 0.5691 0.5641 0.5592
935.000000 0.5542 0.5493 0.5443 0.5396 0.5351
940.000000 0.5306 0.5272 0.5244 0.5229 0.5221
945.000000 0.5220 0.5207 0.5230 0.5238 0.5246
950.000000 0.5255 0.5278 0.5300 0.5325 0.5358
955.000000 0.5391 0.5426 0.5469 0.5512 0.5555
960.000000 0.5629 0.5707 0.5785 0.5874 0.5965
965.000000 0.6055 0.6146 0.6226 0.6305 0.6385
970.000000 0.6467 0.6551 0.6636 0.6714 0.6765
975.000000 0.6818 0.6869 0.6921 0.6971 0.7008
980.000000 0.7047 0.7084 0.7121 0.7160 0.7185
985.000000 0.7204 0.7222 0.7242 0.7258 0.7293
990.000000 0.7271 0.7275 0.7267 0.7255 0.7242
995.000000 0.7224 0.7205 0.7186 0.7165 0.7147
1000.000000 0.7125 0.7101 0.7078 0.7055 0.7028
1005.000000 0.7000 0.6969 0.6941 0.6911 0.6882
1010.000000 0.6857 0.6831 0.6825 0.6824 0.6818
1015.000000 0.6828 0.6834 0.6848 0.6865 0.6883
1020.000000 0.6903 0.6938 0.6974 0.7028 0.7093
1025.000000 0.7169 0.7258 0.7348 0.7436 0.7522
1030.000000 0.7601 0.7660 0.7717 0.7771 0.7814
1035.000000 0.7857 0.7894 0.7921 0.7949 0.7971
1040.000000 0.7988 0.8001 0.8003 0.8004 0.8021
1045.000000 0.7997 0.7988 0.7975 0.7964 0.7949
1050.000000 0.7932 0.7912 0.7890 0.7867 0.7844
1055.000000 0.7821 0.7801 0.7780 0.7768 0.7756
1060.000000 0.7746 0.7743 0.7740 0.7737 0.7737
1065.000000 0.7738 0.7755 0.7741 0.7742 0.7744
1070.000000 0.7748 0.7753 0.7758 0.7764 0.7768
1075.000000 0.7775 0.7784 0.7795 0.7805 0.7815
1080.000000 0.7825 0.7840 0.7858 0.7876 0.7895
1085.000000 0.7914 0.7932 0.7951 0.7971 0.7991
1090.000000 0.8011 0.8032 0.8051 0.8071 0.8092
1095.000000 0.8112 0.8137 0.8161 0.8185 0.8209
1100.000000 0.8233 0.8257 0.8278 0.8299 0.8320
1105.000000 0.8340 0.8361 0.8381 0.8402 0.8418
1110.000000 0.8436 0.8453 0.8468 0.8486 0.8503
1115.000000 0.8511 0.8514 0.8516 0.8518 0.8518
1120.000000 0.8518 0.8521 0.8506 0.8493 0.8480
1125.000000 0.8467 0.8454 0.8441 0.8425 0.8408
1130.000000 0.8392 0.8375 0.8358 0.8340 0.8321
1135.000000 0.8303 0.8284 0.8266 0.8247 0.8228
1140.000000 0.8210 0.8191 0.8168 0.8138 0.8108
1145.000000 0.8078 0.8047 0.8017 0.7976 0.7937
1150.000000 0.7897 0.7856 0.7815 0.7771 0.7718
1155.000000 0.7665 0.7612 0.7560 0.7503 0.7434
1160.000000 0.7364 0.7294 0.7225 0.7132 0.7040
1165.000000 0.6947 0.6871 0.6798 0.6725 0.6653
1170.000000 0.6574 0.6495 0.6415 0.6334 0.6253
1175.000000 0.6172 0.6096 0.6021 0.5979 0.5951
1180.000000 0.5943 0.5943 0.5943 0.5946 0.5947
1185.000000 0.5956 0.5977 0.6007 0.6123 0.6167
1190.000000 0.6187 0.6197 0.6207 0.6216 0.6239
1195.000000 0.6310 0.6334 0.6343 0.6350 0.6355
1200.000000 0.6360 0.6369 0.6390 0.6447 0.6537
1205.000000 0.6630 0.6715 0.6801 0.6891 0.6984
1210.000000 0.7078 0.7212 0.7360 0.7544 0.7755
1215.000000 0.7850 0.7945 0.8025 0.8100 0.8174
1220.000000 0.8211 0.8248 0.8285 0.8305 0.8318
1225.000000 0.8333 0.8347 0.8349 0.8349 0.8349
1230.000000 0.8343 0.8339 0.8335 0.8327 0.8317
1235.000000 0.8307 0.8294 0.8278 0.8261 0.8239
1240.000000 0.8215 0.8191 0.8167 0.8141 0.8111
1245.000000 0.8081 0.8051 0.8015 0.7971 0.7926
1250.000000 0.7876 0.7803 0.7728 0.7655 0.7568
1255.000000 0.7471 0.7375 0.7275 0.7178 0.7078
1260.000000 0.6988 0.6900 0.6811 0.6718 0.6461
1265.000000 0.6334 0.6206 0.6082 0.5968 0.5831
1270.000000 0.5618 0.5405 0.5192 0.4979 0.4766
1275.000000 0.4553 0.4340 0.3808 0.3266 0.2870
1280.000000 0.2588 0.2327 0.1899 0.1723 0.1556
1285.000000 0.1395 0.1239 0.1122 0.1033 0.0943
1290.000000 0.0861 0.0781 0.0739 0.0711 0.0688
1295.000000 0.0681 0.0680 0.0679 0.0666 0.0693
1300.000000 0.0718 0.0746 0.0797 0.0919 0.1030
1305.000000 0.1154 0.1282 0.1412 0.1849 0.2285
1310.000000 0.2723 0.3160 0.3597 0.4034 0.4472
1315.000000 0.4909 0.5346 0.5710 0.5829 0.6462
1320.000000 0.6826 0.6955 0.7083 0.7215 0.7365
1325.000000 0.7525 0.7708 0.7807 0.7868 0.7932
1330.000000 0.7964 0.7982 0.8000 0.8008 0.8010
1335.000000 0.8011 0.8011 0.8010 0.8004 0.7996
1340.000000 0.7980 0.7964 0.7948 0.7926 0.7906
1345.000000 0.7878 0.7847 0.7815 0.7785 0.7754
1350.000000 0.7722 0.7675 0.7590 0.7501 0.7404
1355.000000 0.7306 0.7206 0.7107 0.7001 0.6871
1360.000000 0.6742 0.6625 0.6487 0.6315 0.6204
1365.000000 0.6097 0.6003 0.5917 0.5857 0.5812
1370.000000 0.5790 0.5789 0.5789 0.5794 0.5814
1375.000000 0.5837 0.5844 0.5848 0.5848 0.5848
1380.000000 0.5848 0.5846 0.5845 0.5833 0.5809
1385.000000 0.5774 0.5738 0.5733 0.5733 0.5745
1390.000000 0.5769 0.5794 0.5812 0.5829 0.5842
1395.000000 0.5842 0.5841 0.5815 0.5773 0.5715
1400.000000 0.5653 0.5585 0.5516 0.5441 0.5365
1405.000000 0.5269 0.5156 0.5044 0.4950 0.4858
1410.000000 0.4692 0.4491 0.4290 0.4089 0.3888
1415.000000 0.3687 0.3486 0.3284 0.3084 0.2883
1420.000000 0.2497 0.2098 0.1952 0.1857 0.1799
1425.000000 0.1750 0.1720 0.1694 0.1691 0.1692
1430.000000 0.1683 0.1711 0.1735 0.1794 0.1873
1435.000000 0.2113 0.2352 0.2592 0.2831 0.3071
1440.000000 0.3309 0.3550 0.3789 0.4029 0.4268
1445.000000 0.4508 0.4747 0.4950 0.5310 0.5760
1450.000000 0.5892 0.6024 0.6164 0.6309 0.6437
1455.000000 0.6514 0.6590 0.6667 0.6745 0.6830
1460.000000 0.6915 0.7001 0.7084 0.7158 0.7233
1465.000000 0.7308 0.7346 0.7383 0.7419 0.7457
1470.000000 0.7476 0.7493 0.7508 0.7524 0.7535
1475.000000 0.7537 0.7539 0.7541 0.7544 0.7543
1480.000000 0.7543 0.7565 0.7535 0.7531 0.7526
1485.000000 0.7521 0.7514 0.7508 0.7501 0.7495
1490.000000 0.7488 0.7481 0.7471 0.7464 0.7455
1495.000000 0.7447 0.7438 0.7430 0.7421 0.7408
1500.000000 0.7392 0.7375 0.7358 0.7341 0.7310
1505.000000 0.7278 0.7246 0.7214 0.7182 0.7151
1510.000000 0.7125 0.7099 0.7071 0.7046 0.7038
1515.000000 0.7031 0.7026 0.7026 0.7031 0.7039
1520.000000 0.7000 0.7062 0.7091 0.7121 0.7153
1525.000000 0.7191 0.7234 0.7276 0.7324 0.7371
1530.000000 0.7418 0.7465 0.7515 0.7568 0.7619
1535.000000 0.7671 0.7711 0.7745 0.7780 0.7815
1540.000000 0.7845 0.7868 0.7890 0.7911 0.7934
1545.000000 0.7953 0.7968 0.7986 0.8003 0.8019
1550.000000 0.8036 0.8053 0.8060 0.8065 0.8072
1555.000000 0.8078 0.8078 0.8078 0.8078 0.8078
1560.000000 0.8075 0.8075 0.8075 0.8075 0.8076
1565.000000 0.8078 0.8078 0.8078 0.8080 0.8081
1570.000000 0.8082 0.8082 0.8083 0.8083 0.8083
1575.000000 0.8083 0.8083 0.8083 0.8083 0.8083
1580.000000 0.8083 0.8083 0.8083 0.8084 0.8085
1585.000000 0.8086 0.8087 0.8087 0.8088 0.8089
1590.000000 0.8090 0.8091 0.8092 0.8093 0.8095
1595.000000 0.8097 0.8099 0.8101 0.8103 0.8104
1600.000000 0.8106 0.8108 0.8110 0.8111 0.8115
1605.000000 0.8115 0.8117 0.8118 0.8119 0.8121
1610.000000 0.8121 0.8121 0.8122 0.8124 0.8125
1615.000000 0.8125 0.8125 0.8126 0.8126 0.8125
1620.000000 0.8122 0.8121 0.8118 0.8117 0.8115
1625.000000 0.8112 0.8111 0.8108 0.8107 0.8105
1630.000000 0.8098 0.8089 0.8080 0.8071 0.8061
1635.000000 0.8053 0.8044 0.8035 0.8025 0.8017
1640.000000 0.8008 0.7999 0.7989 0.7978 0.7968
1645.000000 0.7958 0.7950 0.7940 0.7930 0.7919
1650.000000 0.7910 0.7901 0.7891 0.7881 0.7871
1655.000000 0.7861 0.7851 0.7842 0.7832 0.7821
1660.000000 0.7811 0.7800 0.7790 0.7778 0.7768
1665.000000 0.7758 0.7748 0.7737 0.7726 0.7715
1670.000000 0.7706 0.7695 0.7685 0.7674 0.7661
1675.000000 0.7650 0.7637 0.7625 0.7612 0.7600
1680.000000 0.7588 0.7575 0.7562 0.7551 0.7538
1685.000000 0.7525 0.7506 0.7485 0.7464 0.7443
1690.000000 0.7421 0.7400 0.7374 0.7318 0.7261
1695.000000 0.7204 0.7136 0.7068 0.7001 0.6933
1700.000000 0.6851 0.6771 0.6689 0.6608 0.6482
1705.000000 0.6342 0.6208 0.6077 0.5933 0.5689
1710.000000 0.5474 0.5277 0.4860 0.4409 0.3957
1715.000000 0.3505 0.3053 0.2601 0.2150 0.1691
1720.000000 0.1437 0.1089 0.0685 0.0425 0.0227
1725.000000 0.0143 0.0098 0.0056 0.0042 0.0034
1730.000000 0.0034 0.0035 0.0003 0.0038 0.0038
1735.000000 0.0038 0.0046 0.0057 0.0071 0.0085
1740.000000 0.0105 0.0131 0.0171 0.0225 0.0287
1745.000000 0.0354 0.0459 0.0632 0.0837 0.0963
1750.000000 0.1165 0.1574 0.1984 0.2393 0.2707
1755.000000 0.2918 0.3212 0.3376 0.3673 0.3799
1760.000000 0.3877 0.3930 0.3964 0.3986 0.3966
1765.000000 0.3964 0.3958 0.3936 0.3884 0.3793
1770.000000 0.3699 0.3590 0.3486 0.3382 0.3240
1775.000000 0.3100 0.2904 0.2769 0.2683 0.2620
1780.000000 0.2592 0.2592 0.2592 0.2567 0.2751
1785.000000 0.2881 0.3000 0.3103 0.3238 0.3384
1790.000000 0.3588 0.3878 0.4169 0.4183 0.4078
1795.000000 0.3887 0.3696 0.3684 0.3739 0.3842
1800.000000 0.3945 0.4048 0.4128 0.4204 0.4307
1805.000000 0.4383 0.4443 0.4555 0.4981 0.5215
1810.000000 0.5536 0.5810 0.5942 0.6074 0.6198
1815.000000 0.6345 0.6562 0.6700 0.6828 0.6934
1820.000000 0.7018 0.7091 0.7164 0.7239 0.7294
1825.000000 0.7349 0.7404 0.7451 0.7497 0.7542
1830.000000 0.7581 0.7608 0.7636 0.7664 0.7692
1835.000000 0.7715 0.7732 0.7749 0.7765 0.7783
1840.000000 0.7799 0.7811 0.7825 0.7838 0.7851
1845.000000 0.7861 0.7867 0.7872 0.7878 0.7885
1850.000000 0.7888 0.7890 0.7892 0.7894 0.7896
1855.000000 0.7898 0.7900 0.7901 0.7903 0.7904
1860.000000 0.7906 0.7907 0.7907 0.7907 0.7907
1865.000000 0.7907 0.7907 0.7907 0.7910 0.7912
1870.000000 0.7915 0.7918 0.7921 0.7925 0.7928
1875.000000 0.7931 0.7934 0.7937 0.7940 0.7943
1880.000000 0.7944 0.7943 0.7942 0.7940 0.7937
1885.000000 0.7935 0.7932 0.7928 0.7925 0.7922
1890.000000 0.7919 0.7917 0.7915 0.7915 0.7915
1895.000000 0.7915 0.7914 0.7914 0.7914 0.7912
1900.000000 0.7912 0.7912 0.7912 0.7915 0.7918
1905.000000 0.7921 0.7924 0.7926 0.7928 0.7932
1910.000000 0.7940 0.7949 0.7958 0.7965 0.7975
1915.000000 0.7984 0.7993 0.8001 0.8010 0.8018
1920.000000 0.8026 0.8036 0.8042 0.8048 0.8054
1925.000000 0.8060 0.8065 0.8071 0.8076 0.8080
1930.000000 0.8082 0.8083 0.8084 0.8085 0.8086
1935.000000 0.8088 0.8088 0.8089 0.8089 0.8090
1940.000000 0.8091 0.8091 0.8092 0.8093 0.8093
1945.000000 0.8094 0.8095 0.8095 0.8096 0.8101
1950.000000 0.8107 0.8114 0.8119 0.8128 0.8136
1955.000000 0.8144 0.8151 0.8161 0.8168 0.8175
1960.000000 0.8181 0.8187 0.8193 0.8198 0.8204
1965.000000 0.8209 0.8215 0.8220 0.8227 0.8234
1970.000000 0.8240 0.8247 0.8253 0.8260 0.8266
1975.000000 0.8273 0.8278 0.8286 0.8292 0.8299
1980.000000 0.8305 0.8311 0.8318 0.8324 0.8331
1985.000000 0.8337 0.8343 0.8350 0.8356 0.8363
1990.000000 0.8368 0.8375 0.8382 0.8388 0.8395
1995.000000 0.8401 0.8407 0.8414 0.8418 0.8423
2000.000000 0.8425 0.8428 0.8433 0.8434 0.8436
2005.000000 0.8437 0.8439 0.8439 0.8440 0.8437
2010.000000 0.8435 0.8432 0.8430 0.8427 0.8425
2015.000000 0.8421 0.8420 0.8416 0.8412 0.8407
2020.000000 0.8403 0.8398 0.8393 0.8388 0.8384
2025.000000 0.8378 0.8374 0.8368 0.8364 0.8358
2030.000000 0.8353 0.8347 0.8342 0.8337 0.8332
2035.000000 0.8327 0.8321 0.8317 0.8312 0.8310
2040.000000 0.8308 0.8308 0.8308 0.8308 0.8309
2045.000000 0.8309 0.8310 0.8310 0.8310 0.8310
2050.000000 0.8311 0.8311 0.8311 0.8311 0.8312
2055.000000 0.8314 0.8316 0.8318 0.8320 0.8321
2060.000000 0.8325 0.8327 0.8330 0.8333 0.8336
2065.000000 0.8339 0.8343 0.8346 0.8349 0.8352
2070.000000 0.8356 0.8359 0.8363 0.8366 0.8368
2075.000000 0.8371 0.8375 0.8378 0.8382 0.8385
2080.000000 0.8388 0.8391 0.8394 0.8397 0.8401
2085.000000 0.8404 0.8407 0.8410 0.8413 0.8416
2090.000000 0.8418 0.8421 0.8425 0.8428 0.8431
2095.000000 0.8434 0.8437 0.8440 0.8443 0.8446
2100.000000 0.8449 0.8452 0.8455 0.8458 0.8461
2105.000000 0.8464 0.8467 0.8467 0.8467 0.8466
2110.000000 0.8466 0.8466 0.8466 0.8466 0.8466
2115.000000 0.8465 0.8465 0.8465 0.8465 0.8465
2120.000000 0.8465 0.8464 0.8464 0.8464 0.8464
2125.000000 0.8460 0.8456 0.8451 0.8447 0.8443
2130.000000 0.8452 0.8435 0.8431 0.8425 0.8421
2135.000000 0.8414 0.8407 0.8399 0.8392 0.8384
2140.000000 0.8377 0.8365 0.8353 0.8340 0.8327
2145.000000 0.8314 0.8302 0.8289 0.8275 0.8263
2150.000000 0.8250 0.8236 0.8221 0.8208 0.8195
2155.000000 0.8181 0.8168 0.8157 0.8146 0.8135
2160.000000 0.8125 0.8115 0.8105 0.8095 0.8085
2165.000000 0.8075 0.8065 0.8058 0.8051 0.8051
2170.000000 0.8051 0.8057 0.8071 0.8069 0.8078
2175.000000 0.8087 0.8097 0.8108 0.8118 0.8130
2180.000000 0.8141 0.8156 0.8171 0.8189 0.8207
2185.000000 0.8224 0.8242 0.8259 0.8275 0.8293
2190.000000 0.8310 0.8324 0.8338 0.8352 0.8367
2195.000000 0.8381 0.8396 0.8410 0.8424 0.8433
2200.000000 0.8442 0.8448 0.8455 0.8462 0.8468
2205.000000 0.8475 0.8483 0.8487 0.8487 0.8487
2210.000000 0.8486 0.8483 0.8481 0.8478 0.8475
2215.000000 0.8473 0.8470 0.8467 0.8465 0.8462
2220.000000 0.8460 0.8457 0.8455 0.8452 0.8449
2225.000000 0.8444 0.8439 0.8434 0.8428 0.8424
2230.000000 0.8420 0.8415 0.8410 0.8405 0.8400
2235.000000 0.8394 0.8389 0.8381 0.8374 0.8367
2240.000000 0.8360 0.8352 0.8345 0.8338 0.8331
2245.000000 0.8318 0.8308 0.8295 0.8282 0.8268
2250.000000 0.8257 0.8244 0.8231 0.8218 0.8205
2255.000000 0.8191 0.8176 0.8176 0.8178 0.8180
2260.000000 0.8183 0.8190 0.8198 0.8207 0.8217
2265.000000 0.8227 0.8237 0.8245 0.8254 0.8260
2270.000000 0.8266 0.8271 0.8278 0.8285 0.8291
2275.000000 0.8297 0.8303 0.8301 0.8300 0.8295
2280.000000 0.8291 0.8282 0.8274 0.8265 0.8257
2285.000000 0.8247 0.8238 0.8228 0.8218 0.8209
2290.000000 0.8200 0.8190 0.8181 0.8171 0.8161
2295.000000 0.8156 0.8150 0.8144 0.8139 0.8133
2300.000000 0.8128 0.8121 0.8117 0.8111 0.8106
2305.000000 0.8101 0.8097 0.8097 0.8097 0.8101
2310.000000 0.8107 0.8111 0.8117 0.8121 0.8126
2315.000000 0.8133 0.8140 0.8149 0.8158 0.8167
2320.000000 0.8175 0.8185 0.8194 0.8202 0.8211
2325.000000 0.8221 0.8233 0.8245 0.8258 0.8271
2330.000000 0.8284 0.8297 0.8310 0.8318 0.8327
2335.000000 0.8332 0.8337 0.8341 0.8346 0.8351
2340.000000 0.8356 0.8353 0.8351 0.8348 0.8345
2345.000000 0.8341 0.8338 0.8333 0.8328 0.8323
2350.000000 0.8318 0.8314 0.8309 0.8304 0.8299
2355.000000 0.8293 0.8288 0.8282 0.8277 0.8271
2360.000000 0.8265 0.8260 0.8255 0.8252 0.8249
2365.000000 0.8246 0.8243 0.8240 0.8237 0.8233
2370.000000 0.8230 0.8227 0.8224 0.8221 0.8218
2375.000000 0.8215 0.8213 0.8211 0.8210 0.8208
2380.000000 0.8207 0.8205 0.8204 0.8202 0.8201
2385.000000 0.8199 0.8197 0.8195 0.8194 0.8192
2390.000000 0.8191 0.8189 0.8188 0.8186 0.8185
2395.000000 0.8183 0.8182 0.8180 0.8178 0.8176
2400.000000 0.8175 0.8174 0.8172 0.8171 0.8168
2405.000000 0.8165 0.8164 0.8161 0.8160 0.8158
2410.000000 0.8156 0.8153 0.8151 0.8149 0.8147
2415.000000 0.8145 0.8143 0.8141 0.8139 0.8136
2420.000000 0.8134 0.8130 0.8126 0.8122 0.8118
2425.000000 0.8115 0.8111 0.8108 0.8104 0.8100
2430.000000 0.8097 0.8093 0.8089 0.8085 0.8082
2435.000000 0.8078 0.8074 0.8069 0.8067 0.8062
2440.000000 0.8058 0.8055 0.8051 0.8047 0.8044
2445.000000 0.8040 0.8036 0.8032 0.8028 0.8025
2450.000000 0.8021 0.8017 0.8014 0.8010 0.8006
2455.000000 0.8000 0.7995 0.7990 0.7985 0.7980
2460.000000 0.7975 0.7968 0.7964 0.7958 0.7954
2465.000000 0.7948 0.7943 0.7938 0.7933 0.7928
2470.000000 0.7922 0.7917 0.7911 0.7907 0.7901
2475.000000 0.7896 0.7891 0.7886 0.7881 0.7875
2480.000000 0.7871 0.7865 0.7860 0.7855 0.7850
2485.000000 0.7845 0.7840 0.7833 0.7826 0.7821
2490.000000 0.7815 0.7808 0.7803 0.7796 0.7790
2495.000000 0.7784 0.7778 0.7771 0.7765 0.7758
2500.000000 0.7753 0.7747 0.7741 0.7733 0.7725
2505.000000 0.7711 0.7700 0.7687 0.7674 0.7661
2510.000000 0.7649 0.7636 0.7622 0.7610 0.7598
2515.000000 0.7580 0.7562 0.7536 0.7510 0.7483
2520.000000 0.7456 0.7428 0.7403 0.7375 0.7350
2525.000000 0.7324 0.7299 0.7274 0.7249 0.7224
2530.000000 0.7199 0.7174 0.7149 0.7122 0.7098
2535.000000 0.7069 0.7042 0.7010 0.6978 0.6945
2540.000000 0.6912 0.6881 0.6849 0.6817 0.6785
2545.000000 0.6744 0.6704 0.6661 0.6621 0.6578
2550.000000 0.6538 0.6494 0.6451 0.6404 0.6358
2555.000000 0.6310 0.6264 0.6224 0.6185 0.6146
2560.000000 0.6108 0.6072 0.6036 0.6005 0.5974
2565.000000 0.5968 0.5962 0.5966 0.5970 0.5978
2570.000000 0.5987 0.6003 0.6019 0.6049 0.6079
2575.000000 0.6142 0.6206 0.6281 0.6356 0.6498
2580.000000 0.6641 0.6747 0.6853 0.6921 0.6989
2585.000000 0.7046 0.7104 0.7158 0.7211 0.7264
2590.000000 0.7317 0.7335 0.7354 0.7354 0.7355
2595.000000 0.7355 0.7378 0.7351 0.7348 0.7333
2600.000000 0.7318 0.7293 0.7267 0.7228 0.7191
2605.000000 0.7140 0.7090 0.7026 0.6964 0.6900
2610.000000 0.6837 0.6772 0.6710 0.6646 0.6583
2615.000000 0.6518 0.6456 0.6392 0.6329 0.6265
2620.000000 0.6202 0.6138 0.6075 0.6012 0.5949
2625.000000 0.5885 0.5822 0.5758 0.5695 0.5631
2630.000000 0.5568 0.5504 0.5441 0.5377 0.5314
2635.000000 0.5236 0.5158 0.5136 0.5114 0.5099
2640.000000 0.5085 0.5079 0.5074 0.5075 0.5080
2645.000000 0.5080 0.5083 0.5110 0.5138 0.5253
2650.000000 0.5368 0.5484 0.5600 0.5720 0.5841
2655.000000 0.5862 0.5884 0.5885 0.5887 0.5888
2660.000000 0.5887 0.5887 0.5895 0.5878 0.5872
2665.000000 0.5865 0.5858 0.5850 0.5843 0.5835
2670.000000 0.5828 0.5819 0.5810 0.5795 0.5780
2675.000000 0.5760 0.5742 0.5723 0.5704 0.5678
2680.000000 0.5653 0.5615 0.5578 0.5523 0.5469
2685.000000 0.5407 0.5345 0.5300 0.5255 0.5210
2690.000000 0.5165 0.5118 0.5071 0.5021 0.4972
2695.000000 0.4944 0.4917 0.4903 0.4889 0.4888
2700.000000 0.4888 0.4888 0.4894 0.4902 0.4910
2705.000000 0.4924 0.4938 0.4973 0.5009 0.5105
2710.000000 0.5201 0.5250 0.5299 0.5342 0.5386
2715.000000 0.5429 0.5473 0.5521 0.5570 0.5622
2720.000000 0.5674 0.5709 0.5744 0.5771 0.5798
2725.000000 0.5825 0.5852 0.5870 0.5888 0.5900
2730.000000 0.5912 0.5925 0.5937 0.5949 0.5962
2735.000000 0.5965 0.5969 0.5973 0.5977 0.5981
2740.000000 0.5982 0.5983 0.6020 0.5978 0.5976
2745.000000 0.5973 0.5971 0.5960 0.5952 0.5941
2750.000000 0.5931 0.5917 0.5903 0.5881 0.5859
2755.000000 0.5827 0.5795 0.5757 0.5719 0.5668
2760.000000 0.5618 0.5566 0.5514 0.5460 0.5406
2765.000000 0.5351 0.5297 0.5247 0.5197 0.5151
2770.000000 0.5106 0.5083 0.5060 0.5060 0.5060
2775.000000 0.5060 0.5060 0.5060 0.5060 0.5062
2780.000000 0.5067 0.5071 0.5075 0.5083 0.5092
2785.000000 0.5106 0.5121 0.5136 0.5151 0.5162
2790.000000 0.5175 0.5187 0.5199 0.5214 0.5229
2795.000000 0.5241 0.5253 0.5259 0.5265 0.5271
2800.000000 0.5277 0.5277 0.5278 0.5278 0.5279
2805.000000 0.5279 0.5279 0.5279 0.5279 0.5275
2810.000000 0.5272 0.5268 0.5264 0.5255 0.5246
2815.000000 0.5234 0.5222 0.5206 0.5191 0.5169
2820.000000 0.5148 0.5129 0.5110 0.5092 0.5074
2825.000000 0.5056 0.5039 0.5021 0.5004 0.4986
2830.000000 0.4969 0.4953 0.4937 0.4921 0.4906
2835.000000 0.4901 0.4897 0.4894 0.4891 0.4889
2840.000000 0.4888 0.4886 0.4885 0.4884 0.4883
2845.000000 0.4882 0.4882 0.4881 0.4880 0.4879
2850.000000 0.4879 0.4878 0.4877 0.4876 0.4876
2855.000000 0.4875 0.4874 0.4873 0.4873 0.4872
2860.000000 0.4872 0.4871 0.4871 0.4871 0.4871
2865.000000 0.4870 0.4870 0.4869 0.4869 0.4869
2870.000000 0.4869 0.4868 0.4868 0.4867 0.4867
2875.000000 0.4867 0.4867 0.4866 0.4866 0.4862
2880.000000 0.4858 0.4850 0.4842 0.4827 0.4812
2885.000000 0.4792 0.4772 0.4735 0.4698 0.4657
2890.000000 0.4617 0.4576 0.4536 0.4495 0.4455
2895.000000 0.4409 0.4362 0.4300 0.4237 0.4175
2900.000000 0.4114 0.4056 0.3999 0.3942 0.3884
2905.000000 0.3827 0.3770 0.3710 0.3652 0.3593
2910.000000 0.3534 0.3475 0.3416 0.3359 0.3302
2915.000000 0.3245 0.3189 0.3139 0.3090 0.3040
2920.000000 0.2991 0.2953 0.2916 0.2880 0.2844
2925.000000 0.2811 0.2779 0.2753 0.2728 0.2702
2930.000000 0.2677 0.2652 0.2627 0.2603 0.2580
2935.000000 0.2556 0.2533 0.2510 0.2487 0.2467
2940.000000 0.2448 0.2429 0.2410 0.2391 0.2372
2945.000000 0.2353 0.2334 0.2319 0.2304 0.2289
2950.000000 0.2275 0.2263 0.2252 0.2248 0.2244
2955.000000 0.2245 0.2247 0.2249 0.2240 0.2257
2960.000000 0.2263 0.2279 0.2296 0.2312 0.2329
2965.000000 0.2369 0.2410 0.2498 0.2587 0.2675
2970.000000 0.2763 0.2851 0.2940 0.3028 0.3116
2975.000000 0.3204 0.3293 0.3349 0.3406 0.3410
2980.000000 0.3416 0.3420 0.3432 0.3393 0.3362
2985.000000 0.3292 0.3222 0.3152 0.3082 0.3012
2990.000000 0.2942 0.2871 0.2801 0.2731 0.2661
2995.000000 0.2591 0.2521 0.2450 0.2380 0.2335
3000.000000 0.2293 0.2264 0.2235 0.2208 0.2181
3005.000000 0.2167 0.2154 0.2141 0.2129 0.2118
3010.000000 0.2107 0.2096 0.2085 0.2083 0.2081
3015.000000 0.2078 0.2076 0.2073 0.2071 0.2070
3020.000000 0.2070 0.2069 0.2070 0.2071 0.2075
3025.000000 0.2084 0.2094 0.2104 0.2115 0.2126
3030.000000 0.2138 0.2150 0.2163 0.2177 0.2191
3035.000000 0.2204 0.2218 0.2231 0.2244 0.2256
3040.000000 0.2269 0.2272 0.2303 0.2277 0.2277
3045.000000 0.2277 0.2275 0.2272 0.2269 0.2264
3050.000000 0.2260 0.2254 0.2249 0.2244 0.2239
3055.000000 0.2234 0.2229 0.2224 0.2219 0.2214
3060.000000 0.2210 0.2205 0.2200 0.2195 0.2191
3065.000000 0.2185 0.2182 0.2180 0.2165 0.2176
3070.000000 0.2175 0.2174 0.2174 0.2174 0.2176
3075.000000 0.2182 0.2188 0.2196 0.2204 0.2223
3080.000000 0.2242 0.2261 0.2281 0.2297 0.2313
3085.000000 0.2328 0.2343 0.2358 0.2374 0.2391
3090.000000 0.2409 0.2426 0.2443 0.2460 0.2478
3095.000000 0.2495 0.2512 0.2526 0.2540 0.2554
3100.000000 0.2568 0.2576 0.2584 0.2590 0.2595
3105.000000 0.2597 0.2598 0.2597 0.2596 0.2592
3110.000000 0.2588 0.2583 0.2579 0.2575 0.2571
3115.000000 0.2563 0.2556 0.2546 0.2537 0.2530
3120.000000 0.2523 0.2520 0.2518 0.2515 0.2512
3125.000000 0.2511 0.2510 0.2510 0.2510 0.2512
3130.000000 0.2514 0.2515 0.2517 0.2519 0.2521
3135.000000 0.2525 0.2529 0.2534 0.2539 0.2544
3140.000000 0.2549 0.2567 0.2584 0.2646 0.2708
3145.000000 0.2754 0.2801 0.2837 0.2873 0.2905
3150.000000 0.2937 0.2969 0.3001 0.3027 0.3053
3155.000000 0.3079 0.3105 0.3130 0.3156 0.3182
3160.000000 0.3209 0.3234 0.3260 0.3284 0.3307
3165.000000 0.3328 0.3349 0.3364 0.3382 0.3393
3170.000000 0.3405 0.3412 0.3422 0.3429 0.3437
3175.000000 0.3444 0.3452 0.3459 0.3466 0.3474
3180.000000 0.3482 0.3489 0.3497 0.3503 0.3509
3185.000000 0.3514 0.3520 0.3525 0.3530 0.3537
3190.000000 0.3544 0.3550 0.3556 0.3564 0.3574
3195.000000 0.3588 0.3602 0.3616 0.3630 0.3648
3200.000000 0.3666 0.3682 0.3699 0.3714 0.3732
3205.000000 0.3749 0.3766 0.3782 0.3799 0.3816
3210.000000 0.3832 0.3850 0.3868 0.3884 0.3903
3215.000000 0.3920 0.3938 0.3953 0.3968 0.3984
3220.000000 0.4000 0.4016 0.4032 0.4049 0.4066
3225.000000 0.4086 0.4106 0.4126 0.4147 0.4167
3230.000000 0.4187 0.4208 0.4230 0.4252 0.4275
3235.000000 0.4297 0.4319 0.4341 0.4362 0.4385
3240.000000 0.4407 0.4429 0.4452 0.4474 0.4496
3245.000000 0.4518 0.4540 0.4564 0.4588 0.4615
3250.000000 0.4643 0.4670 0.4698 0.4725 0.4753
3255.000000 0.4782 0.4810 0.4841 0.4871 0.4901
3260.000000 0.4931 0.4960 0.4991 0.5021 0.5051
3265.000000 0.5079 0.5108 0.5137 0.5166 0.5194
3270.000000 0.5223 0.5252 0.5281 0.5310 0.5339
3275.000000 0.5371 0.5403 0.5435 0.5467 0.5499
3280.000000 0.5532 0.5562 0.5592 0.5618 0.5644
3285.000000 0.5670 0.5696 0.5722 0.5748 0.5774
3290.000000 0.5800 0.5824 0.5849 0.5869 0.5890
3295.000000 0.5910 0.5932 0.5953 0.5974 0.5995
3300.000000 0.6016 0.6037 0.6058 0.6080 0.6103
3305.000000 0.6131 0.6159 0.6187 0.6216 0.6244
3310.000000 0.6273 0.6301 0.6329 0.6357 0.6386
3315.000000 0.6414 0.6442 0.6469 0.6499 0.6526
3320.000000 0.6555 0.6583 0.6611 0.6640 0.6668
3325.000000 0.6697 0.6725 0.6751 0.6778 0.6804
3330.000000 0.6830 0.6856 0.6882 0.6907 0.6933
3335.000000 0.6958 0.6985 0.7010 0.7036 0.7058
3340.000000 0.7081 0.7103 0.7125 0.7148 0.7171
3345.000000 0.7193 0.7215 0.7240 0.7264 0.7290
3350.000000 0.7317 0.7344 0.7371 0.7395 0.7419
3355.000000 0.7439 0.7458 0.7476 0.7497 0.7515
3360.000000 0.7536 0.7555 0.7574 0.7590 0.7607
3365.000000 0.7624 0.7642 0.7664 0.7687 0.7694
3370.000000 0.7701 0.7707 0.7714 0.7719 0.7725
3375.000000 0.7728 0.7733 0.7736 0.7739 0.7742
3380.000000 0.7746 0.7749 0.7751 0.7756 0.7760
3385.000000 0.7762 0.7767 0.7771 0.7775 0.7780
3390.000000 0.7785 0.7792 0.7799 0.7806 0.7812
3395.000000 0.7825 0.7838 0.7851 0.7867 0.7881
3400.000000 0.7896 0.7921 0.7946 0.7971 0.7997
3405.000000 0.8025 0.8053 0.8081 0.8108 0.8137
3410.000000 0.8165 0.8184 0.8203 0.8221 0.8240
3415.000000 0.8258 0.8277 0.8291 0.8306 0.8317
3420.000000 0.8328 0.8339 0.8351 0.8362 0.8374
3425.000000 0.8385 0.8396 0.8406 0.8416 0.8423
3430.000000 0.8430 0.8437 0.8444 0.8451 0.8458
3435.000000 0.8465 0.8471 0.8478 0.8486 0.8493
3440.000000 0.8500 0.8506 0.8513 0.8518 0.8525
3445.000000 0.8532 0.8538 0.8543 0.8549 0.8555
3450.000000 0.8561 0.8566 0.8571 0.8578 0.8584
3455.000000 0.8589 0.8595 0.8600 0.8606 0.8611
3460.000000 0.8617 0.8621 0.8625 0.8628 0.8634
3465.000000 0.8638 0.8642 0.8646 0.8651 0.8655
3470.000000 0.8659 0.8663 0.8668 0.8671 0.8675
3475.000000 0.8680 0.8684 0.8688 0.8693 0.8697
3480.000000 0.8701 0.8705 0.8710 0.8712 0.8714
3485.000000 0.8716 0.8718 0.8720 0.8723 0.8725
3490.000000 0.8727 0.8728 0.8731 0.8733 0.8735
3495.000000 0.8737 0.8739 0.8741 0.8743 0.8745
3500.000000 0.8747 0.8749 0.8752 0.8752 0.8753
3505.000000 0.8753 0.8753 0.8753 0.8753 0.8753
3510.000000 0.8753 0.8753 0.8754 0.8754 0.8754
3515.000000 0.8754 0.8754 0.8754 0.8754 0.8754
3520.000000 0.8754 0.8754 0.8754 0.8751 0.8749
3525.000000 0.8744 0.8740 0.8735 0.8731 0.8725
3530.000000 0.8721 0.8714 0.8708 0.8700 0.8693
3535.000000 0.8682 0.8671 0.8660 0.8648 0.8634
3540.000000 0.8621 0.8603 0.8586 0.8564 0.8542
3545.000000 0.8520 0.8499 0.8473 0.8448 0.8416
3550.000000 0.8384 0.8352 0.8320 0.8287 0.8254
3555.000000 0.8224 0.8195 0.8175 0.8157 0.8146
3560.000000 0.8136 0.8128 0.8121 0.8104 0.8088
3565.000000 0.8058 0.8028 0.8011 0.7995 0.7987
3570.000000 0.7978 0.7978 0.7999 0.7998 0.7997
3575.000000 0.8021 0.8048 0.8075 0.8104 0.8118
3580.000000 0.8132 0.8138 0.8145 0.8149 0.8154
3585.000000 0.8175 0.8199 0.8255 0.8311 0.8367
3590.000000 0.8424 0.8468 0.8512 0.8551 0.8590
3595.000000 0.8616 0.8643 0.8670 0.8697 0.8718
3600.000000 0.8739 0.8752 0.8765 0.8778 0.8792
3605.000000 0.8797 0.8802 0.8804 0.8807 0.8809
3610.000000 0.8811 0.8812 0.8814 0.8814 0.8815
3615.000000 0.8815 0.8816 0.8816 0.8817 0.8818
3620.000000 0.8818 0.8818 0.8820 0.8820 0.8821
3625.000000 0.8821 0.8821 0.8821 0.8821 0.8821
3630.000000 0.8821 0.8821 0.8821 0.8821 0.8821
3635.000000 0.8821 0.8821 0.8821 0.8821 0.8821
3640.000000 0.8821 0.8821 0.8823 0.8823 0.8824
3645.000000 0.8824 0.8824 0.8824 0.8825 0.8825
3650.000000 0.8825 0.8825 0.8825 0.8825 0.8827
3655.000000 0.8827 0.8828 0.8828 0.8828 0.8828
3660.000000 0.8828 0.8828 0.8830 0.8830 0.8830
3665.000000 0.8830 0.8830 0.8830 0.8830 0.8828
3670.000000 0.8828 0.8828 0.8828 0.8828 0.8828
3675.000000 0.8828 0.8828 0.8828 0.8828 0.8828
3680.000000 0.8828 0.8828 0.8828 0.8827 0.8827
3685.000000 0.8827 0.8827 0.8827 0.8828 0.8828
3690.000000 0.8828 0.8828 0.8828 0.8828 0.8830
3695.000000 0.8830 0.8830 0.8831 0.8832 0.8832
3700.000000 0.8833 0.8833 0.8834 0.8834 0.8834
3705.000000 0.8834 0.8835 0.8835 0.8836 0.8836
3710.000000 0.8837 0.8837 0.8838 0.8838 0.8839
3715.000000 0.8839 0.8840 0.8841 0.8842 0.8842
3720.000000 0.8843 0.8844 0.8845 0.8846 0.8847
3725.000000 0.8848 0.8849 0.8850 0.8851 0.8851
3730.000000 0.8852 0.8853 0.8854 0.8855 0.8856
3735.000000 0.8857 0.8858 0.8858 0.8859 0.8859
3740.000000 0.8860 0.8860 0.8861 0.8862 0.8863
3745.000000 0.8863 0.8864 0.8864 0.8865 0.8865
3750.000000 0.8866 0.8866 0.8867 0.8867 0.8868
3755.000000 0.8868 0.8868 0.8870 0.8871 0.8871
3760.000000 0.8871 0.8871 0.8871 0.8871 0.8871
3765.000000 0.8871 0.8871 0.8871 0.8871 0.8871
3770.000000 0.8871 0.8871 0.8871 0.8871 0.8871
3775.000000 0.8871 0.8871 0.8871 0.8871 0.8871
3780.000000 0.8873 0.8873 0.8873 0.8873 0.8874
3785.000000 0.8874 0.8874 0.8874 0.8875 0.8875
3790.000000 0.8875 0.8875 0.8875
##END=
