##TITLE=1-CYCLOPENTENE, 1-METHYL
##JCAMP-DX=4.24
##DATA TYPE=INFRARED SPECTRUM
##CLASS=COBLENTZ III
##ORIGIN=DOW CORNING CORP.
##OWNER=COBLENTZ SOCIETY
Collection (C) 2018 copyright by the U.S. Secretary of Commerce
on behalf of the United States of America. All rights reserved.
##DATE=Not specified, most likely prior to 1970
##NAMES=1-methyl-1-cyclopentene
1-METHYL CYCLOPENTENE
##CAS REGISTRY NO=693-89-0
##MOLFORM=C6 H10
##SOURCE REFERENCE=COBLENTZ NO. 4271
##$NIST SOURCE=COBLENTZ
##$NIST IMAGE=cob4271
##SPECTROMETER/DATA SYSTEM=PERKIN-ELMER 521 (GRATING)
##INSTRUMENT PARAMETERS=FILTERS AT 3150, 2500, 2000, 1150, 700, 410; GRATING CHANGES AT 2000, 630 CM^-^1
##STATE=SOLUTION (10% IN CCl4 FOR 3800-1300, 10% IN CS2 FOR 1300-650, AND 10% IN CCl4 FOR 650-250 CM^-^1) VERSUS SOLVENT
##PATH LENGTH=0.011, 0.011, AND 0.020 CM (CsBr CELL)
##SAMPLING PROCEDURE=TRANSMISSION
##RESOLUTION=4
##DATA PROCESSING=DIGITIZED BY NIST FROM HARD COPY (FROM TWO SEGMENTS)
##XUNITS=1/CM
##YUNITS=TRANSMITTANCE
##XFACTOR=1.000000
##YFACTOR=1
##DELTAX=1.020410
##FIRSTX=248.98
##LASTX=3811.23
##FIRSTY=0.848
##MAXX=3811.23
##MINX=248.98
##MAXY=0.891
##MINY=0.024
##NPOINTS=3492
##XYDATA=(X++(Y..Y))
248.980000 0.8480 0.8500 0.8500 0.8510 0.8510
254.082051 0.8540 0.8550 0.8570 0.8580 0.8580
259.184103 0.8580 0.8580 0.8580 0.8570 0.8570
264.286154 0.8570 0.8580 0.8580 0.8590 0.8590
269.388205 0.8590 0.8590 0.8590 0.8590 0.8590
274.490257 0.8590 0.8590 0.8580 0.8580 0.8580
279.592308 0.8580 0.8590 0.8590 0.8590 0.8590
284.694359 0.8590 0.8590 0.8590 0.8580 0.8580
289.796411 0.8580 0.8570 0.8570 0.8570 0.8550
294.898462 0.8550 0.8540 0.8540 0.8530 0.8510
300.000513 0.8510 0.8500 0.8500 0.8480 0.8470
305.102565 0.8440 0.8430 0.8400 0.8390 0.8320
310.204616 0.8310 0.8290 0.8260 0.8200 0.8140
315.306667 0.8110 0.8070 0.8110 0.8150 0.8200
320.408719 0.8290 0.8500 0.8540 0.8580 0.8610
325.510770 0.8660 0.8660 0.8690 0.8690 0.8720
330.612821 0.8720 0.8730 0.8730 0.8730 0.8750
335.714873 0.8750 0.8750 0.8750 0.8730 0.8730
340.816924 0.8730 0.8730 0.8750 0.8750 0.8770
345.918975 0.8790 0.8790 0.8790 0.8790 0.8770
351.021027 0.8770 0.8760 0.8760 0.8760 0.8760
356.123078 0.8750 0.8750 0.8750 0.8730 0.8730
361.225129 0.8750 0.8760 0.8770 0.8770 0.8790
366.327181 0.8790 0.8790 0.8790 0.8770 0.8760
371.429232 0.8750 0.8730 0.8720 0.8720 0.8700
376.531283 0.8690 0.8650 0.8610 0.8590 0.8590
381.633335 0.8590 0.8590 0.8590 0.8610 0.8610
386.735386 0.8620 0.8650 0.8650 0.8650 0.8650
391.837437 0.8650 0.8640 0.8640 0.8620 0.8620
396.939489 0.8590 0.8580 0.8570 0.8550 0.8540
402.041540 0.8540 0.8510 0.8480 0.8470 0.8440
407.143591 0.8400 0.8260 0.8170 0.8090 0.8000
412.245643 0.7920 0.7840 0.7760 0.7450 0.7340
417.347694 0.7220 0.6901 0.6681 0.6411 0.6042
422.449745 0.5670 0.5240 0.5020 0.4790 0.4361
427.551797 0.3921 0.3701 0.3481 0.3809 0.4158
432.653848 0.4491 0.5240 0.6220 0.6550 0.6850
437.755899 0.7429 0.7480 0.7580 0.7759 0.7840
442.857951 0.8000 0.8100 0.8180 0.8240 0.8320
447.960002 0.8390 0.8420 0.8440 0.8460 0.8470
453.062053 0.8480 0.8510 0.8570 0.8590 0.8610
458.164105 0.8610 0.8620 0.8620 0.8620 0.8620
463.266156 0.8620 0.8620 0.8640 0.8640 0.8640
468.368207 0.8640 0.8650 0.8650 0.8660 0.8660
473.470259 0.8660 0.8660 0.8680 0.8680 0.8680
478.572310 0.8680 0.8700 0.8700 0.8700 0.8700
483.674362 0.8700 0.8700 0.8700 0.8690 0.8690
488.776413 0.8680 0.8660 0.8650 0.8640 0.8640
493.878464 0.8640 0.8640 0.8620 0.8620 0.8610
498.980516 0.8610 0.8610 0.8610 0.8610 0.8610
504.082567 0.8610 0.8610 0.8610 0.8610 0.8610
509.184618 0.8610 0.8610 0.8610 0.8610 0.8610
514.286670 0.8620 0.8620 0.8620 0.8610 0.8610
519.388721 0.8610 0.8610 0.8610 0.8610 0.8610
524.490772 0.8610 0.8610 0.8610 0.8610 0.8610
529.592824 0.8610 0.8590 0.8590 0.8590 0.8580
534.694875 0.8580 0.8580 0.8580 0.8580 0.8590
539.796926 0.8590 0.8590 0.8590 0.8590 0.8590
544.898978 0.8590 0.8590 0.8590 0.8590 0.8590
550.001029 0.8590 0.8590 0.8590 0.8590 0.8590
555.103080 0.8590 0.8590 0.8590 0.8590 0.8590
560.205132 0.8590 0.8590 0.8590 0.8590 0.8590
565.307183 0.8590 0.8590 0.8590 0.8590 0.8610
570.409234 0.8610 0.8610 0.8610 0.8610 0.8610
575.511286 0.8610 0.8620 0.8620 0.8620 0.8620
580.613337 0.8640 0.8640 0.8650 0.8650 0.8650
585.715388 0.8650 0.8660 0.8660 0.8660 0.8660
590.817440 0.8680 0.8680 0.8680 0.8680 0.8680
595.919491 0.8680 0.8680 0.8680 0.8680 0.8680
601.021542 0.8680 0.8680 0.8680 0.8680 0.8680
606.123594 0.8680 0.8680 0.8680 0.8680 0.8680
611.225645 0.8680 0.8660 0.8660 0.8660 0.8660
616.327696 0.8660 0.8640 0.8640 0.8620 0.8570
621.429748 0.8510 0.8470 0.8440 0.8430 0.8420
626.531799 0.8400 0.8360 0.8250 0.8200 0.8140
631.633850 0.8110 0.8060 0.8030 0.7990 0.7880
636.735902 0.7810 0.7780 0.7740 0.7730 0.7700
641.837953 0.7700 0.7690 0.7690 0.7690 0.7700
646.940004 0.7710 0.7770 0.7870 0.7920 0.7930
652.042056 0.7930 0.7950 0.7950 0.7950 0.7960
657.144107 0.7960 0.7960 0.7980 0.7990 0.8020
662.246158 0.8070 0.8100 0.8110 0.8140 0.8150
667.348210 0.8200 0.8210 0.8220 0.8220 0.8220
672.450261 0.8220 0.8240 0.8240 0.8240 0.8240
677.552312 0.8240 0.8240 0.8240 0.8240 0.8240
682.654364 0.8220 0.8220 0.8220 0.8220 0.8220
687.756415 0.8220 0.8220 0.8220 0.8210 0.8210
692.858466 0.8210 0.8210 0.8200 0.8200 0.8200
697.960518 0.8200 0.8200 0.8200 0.8200 0.8200
703.062569 0.8200 0.8200 0.8200 0.8180 0.8180
708.164620 0.8180 0.8180 0.8180 0.8180 0.8170
713.266672 0.8170 0.8170 0.8150 0.8140 0.8140
718.368723 0.8140 0.8130 0.8130 0.8130 0.8110
723.470774 0.8110 0.8100 0.8100 0.8100 0.8090
728.572826 0.8070 0.8070 0.8060 0.8040 0.8030
733.674877 0.8020 0.8000 0.8000 0.7990 0.7980
738.776928 0.7960 0.7950 0.7930 0.7910 0.7890
743.878980 0.7880 0.7870 0.7820 0.7740 0.7700
748.981031 0.7670 0.7670 0.7650 0.7630 0.7620
754.083082 0.7600 0.7590 0.7580 0.7470 0.7430
759.185134 0.7390 0.7290 0.7280 0.7220 0.7180
764.287185 0.7100 0.7010 0.6930 0.6850 0.6770
769.389236 0.6590 0.6460 0.6350 0.6250 0.6090
774.491288 0.5930 0.5710 0.5501 0.5281 0.5151
779.593339 0.5020 0.4780 0.4510 0.4380 0.4250
784.695390 0.4130 0.4030 0.4020 0.4020 0.4050
789.797442 0.4120 0.4170 0.4210 0.4230 0.4320
794.899493 0.4400 0.4460 0.4669 0.4859 0.4970
800.001544 0.5050 0.5130 0.5150 0.5160 0.5160
805.103596 0.5160 0.5160 0.5160 0.5170 0.5190
810.205647 0.5230 0.5260 0.5340 0.5380 0.5480
815.307698 0.5480 0.5600 0.5760 0.6179 0.6449
820.409750 0.6510 0.6530 0.6780 0.7060 0.7100
825.511801 0.7360 0.7540 0.7560 0.7580 0.7600
830.613852 0.7650 0.7820 0.7850 0.7870 0.7890
835.715904 0.7920 0.7950 0.7960 0.7980 0.7990
840.817955 0.8000 0.8020 0.8020 0.8020 0.8000
845.920006 0.8000 0.7990 0.7980 0.7960 0.7950
851.022058 0.7930 0.7920 0.7910 0.7890 0.7880
856.124109 0.7880 0.7870 0.7870 0.7840 0.7840
861.226160 0.7820 0.7800 0.7770 0.7740 0.7730
866.328212 0.7700 0.7690 0.7650 0.7630 0.7620
871.430263 0.7620 0.7630 0.7650 0.7690 0.7770
876.532314 0.7800 0.7810 0.7840 0.7850 0.7850
881.634366 0.7840 0.7820 0.7820 0.7800 0.7780
886.736417 0.7770 0.7760 0.7740 0.7710 0.7650
891.838468 0.7590 0.7560 0.7520 0.7500 0.7440
896.940520 0.7400 0.7340 0.7300 0.7250 0.7170
902.042571 0.7170 0.7440 0.7470 0.7500 0.7540
907.144622 0.7550 0.7560 0.7580 0.7590 0.7600
912.246674 0.7600 0.7590 0.7580 0.7580 0.7550
917.348725 0.7550 0.7540 0.7520 0.7440 0.7340
922.450776 0.7230 0.6970 0.6560 0.6440 0.6190
927.552828 0.6160 0.6190 0.6519 0.6620 0.7447
932.654879 0.7710 0.7780 0.7820 0.7910 0.7930
937.756931 0.7960 0.7980 0.8060 0.8100 0.8150
942.858982 0.8170 0.8180 0.8180 0.8180 0.8200
947.961033 0.8200 0.8210 0.8210 0.8210 0.8210
953.063085 0.8210 0.8180 0.8180 0.8170 0.8170
958.165136 0.8150 0.8150 0.8150 0.8150 0.8150
963.267187 0.8140 0.8110 0.8100 0.8090 0.8090
968.369239 0.8070 0.8070 0.8040 0.8030 0.8000
973.471290 0.7950 0.7870 0.7840 0.7810 0.7770
978.573341 0.7760 0.7700 0.7620 0.7560 0.7500
983.675393 0.7410 0.7340 0.7250 0.7100 0.6990
988.777444 0.6890 0.6620 0.6041 0.5451 0.5121
993.879495 0.4940 0.4760 0.4400 0.4050 0.3690
998.981547 0.3510 0.3330 0.3749 0.4169 0.4608
1004.083598 0.4600 0.4490 0.4380 0.4280 0.4280
1009.185649 0.4360 0.4450 0.4580 0.5088 0.5409
1014.287701 0.5720 0.5790 0.5820 0.5820 0.5790
1019.389752 0.5780 0.5760 0.5780 0.5820 0.5920
1024.491803 0.6070 0.6250 0.6530 0.6860 0.6960
1029.593855 0.6990 0.7040 0.7150 0.7280 0.7290
1034.695906 0.7320 0.7330 0.7340 0.7340 0.7340
1039.797957 0.7330 0.7330 0.7320 0.7300 0.7300
1044.900009 0.7260 0.7190 0.7170 0.7150 0.7070
1050.002060 0.7000 0.6920 0.6820 0.6730 0.6670
1055.104111 0.6590 0.6460 0.6350 0.6230 0.6190
1060.206163 0.6220 0.6270 0.6290 0.6330 0.6370
1065.308214 0.6380 0.6380 0.6400 0.6410 0.6460
1070.410265 0.6510 0.6600 0.6740 0.6780 0.6900
1075.512317 0.6930 0.7070 0.7100 0.7140 0.7260
1080.614368 0.7300 0.7440 0.7450 0.7470 0.7480
1085.716419 0.7510 0.7520 0.7540 0.7550 0.7580
1090.818471 0.7590 0.7590 0.7600 0.7600 0.7620
1095.920522 0.7630 0.7650 0.7660 0.7670 0.7690
1101.022573 0.7690 0.7700 0.7700 0.7710 0.7730
1106.124625 0.7730 0.7710 0.7690 0.7670 0.7650
1111.226676 0.7630 0.7620 0.7620 0.7600 0.7590
1116.328727 0.7560 0.7550 0.7520 0.7510 0.7480
1121.430779 0.7470 0.7450 0.7440 0.7440 0.7480
1126.532830 0.7560 0.7580 0.7580 0.7590 0.7590
1131.634881 0.7600 0.7600 0.7600 0.7600 0.7600
1136.736933 0.7600 0.7620 0.7620 0.7600 0.7580
1141.838984 0.7580 0.7580 0.7580 0.7590 0.7590
1146.941035 0.7590 0.7590 0.7600 0.7630 0.7670
1152.043087 0.7710 0.7730 0.7730 0.7740 0.7740
1157.145138 0.7760 0.7760 0.7770 0.7770 0.7780
1162.247189 0.7800 0.7800 0.7800 0.7800 0.7800
1167.349241 0.7800 0.7800 0.7800 0.7800 0.7780
1172.451292 0.7780 0.7780 0.7770 0.7770 0.7770
1177.553343 0.7740 0.7740 0.7730 0.7710 0.7700
1182.655395 0.7690 0.7670 0.7660 0.7650 0.7630
1187.757446 0.7620 0.7590 0.7580 0.7550 0.7500
1192.859497 0.7440 0.7370 0.7290 0.7260 0.7230
1197.961549 0.6989 0.6750 0.6730 0.6740 0.6850
1203.063600 0.7030 0.7080 0.7100 0.7180 0.7260
1208.165651 0.7430 0.7480 0.7510 0.7520 0.7520
1213.267703 0.7520 0.7520 0.7510 0.7500 0.7500
1218.369754 0.7510 0.7510 0.7510 0.7510 0.7510
1223.471805 0.7520 0.7520 0.7520 0.7520 0.7540
1228.573857 0.7540 0.7540 0.7540 0.7560 0.7560
1233.675908 0.7580 0.7580 0.7580 0.7580 0.7560
1238.777959 0.7540 0.7510 0.7470 0.7440 0.7430
1243.880011 0.7410 0.7390 0.7340 0.7330 0.7290
1248.982062 0.7250 0.7080 0.6810 0.6640 0.6490
1254.084113 0.6490 0.6620 0.6740 0.6860 0.6990
1259.186165 0.7081 0.7430 0.7440 0.7440 0.7450
1264.288216 0.7450 0.7440 0.7430 0.7410 0.7400
1269.390267 0.7370 0.7330 0.7300 0.7290 0.7250
1274.492319 0.7220 0.7190 0.7170 0.7140 0.7110
1279.594370 0.7040 0.7010 0.6950 0.6810 0.6670
1284.696421 0.6590 0.6490 0.6340 0.6190 0.6030
1289.798473 0.5609 0.5300 0.5300 0.5570 0.5590
1294.900524 0.6140 0.6310 0.6510 0.6680 0.7917
1300.002575 0.7930 0.8020 0.8090 0.8100 0.8100
1305.104627 0.8130 0.8130 0.8130 0.8130 0.8110
1310.206678 0.8110 0.8100 0.8070 0.8060 0.8040
1315.308729 0.8020 0.7980 0.7930 0.7840 0.7780
1320.410781 0.7760 0.7620 0.7450 0.7340 0.7220
1325.512832 0.6950 0.6890 0.6441 0.6270 0.6090
1330.614883 0.6851 0.7041 0.7430 0.7700 0.7950
1335.716935 0.8020 0.8100 0.8130 0.8150 0.8200
1340.818986 0.8240 0.8250 0.8260 0.8280 0.8280
1345.921037 0.8290 0.8290 0.8290 0.8280 0.8280
1351.023089 0.8280 0.8260 0.8260 0.8250 0.8250
1356.125140 0.8250 0.8250 0.8240 0.8210 0.8200
1361.227191 0.8180 0.8110 0.8070 0.7980 0.7950
1366.329243 0.7880 0.7770 0.7660 0.7550 0.6971
1371.431294 0.6379 0.5869 0.5369 0.4900 0.4430
1376.533346 0.5459 0.6968 0.6990 0.7190 0.7599
1381.635397 0.7890 0.7930 0.7950 0.8000 0.8070
1386.737448 0.8090 0.8100 0.8110 0.8140 0.8140
1391.839500 0.8140 0.8130 0.8130 0.8110 0.8100
1396.941551 0.8070 0.8040 0.8020 0.7990 0.7980
1402.043602 0.7960 0.7950 0.7920 0.7880 0.7850
1407.145654 0.7840 0.7780 0.7760 0.7700 0.7600
1412.247705 0.7580 0.7510 0.7430 0.7410 0.7400
1417.349756 0.7330 0.7260 0.7000 0.6840 0.6621
1422.451808 0.6350 0.6220 0.6080 0.5790 0.5630
1427.553859 0.5050 0.4690 0.4320 0.4170 0.4020
1432.655910 0.3880 0.3730 0.3650 0.3550 0.3360
1437.757962 0.3170 0.2880 0.2820 0.2481 0.2141
1442.860013 0.1740 0.1730 0.1740 0.1860 0.1990
1447.962064 0.2340 0.3649 0.3660 0.4129 0.5168
1453.064116 0.5350 0.5370 0.5560 0.5720 0.5810
1458.166167 0.5940 0.6030 0.6070 0.6080 0.6090
1463.268218 0.6160 0.6220 0.6310 0.6370 0.6700
1468.370270 0.6770 0.6920 0.7100 0.7430 0.7450
1473.472321 0.7480 0.7500 0.7560 0.7650 0.7710
1478.574372 0.7780 0.7840 0.7930 0.7950 0.7960
1483.676424 0.7990 0.8020 0.8040 0.8060 0.8070
1488.778475 0.8110 0.8130 0.8140 0.8140 0.8170
1493.880526 0.8180 0.8210 0.8220 0.8240 0.8260
1498.982578 0.8290 0.8320 0.8320 0.8330 0.8330
1504.084629 0.8350 0.8390 0.8420 0.8440 0.8470
1509.186680 0.8480 0.8510 0.8510 0.8530 0.8530
1514.288732 0.8540 0.8540 0.8570 0.8570 0.8550
1519.390783 0.8510 0.8500 0.8480 0.8480 0.8480
1524.492834 0.8480 0.8470 0.8470 0.8470 0.8470
1529.594886 0.8460 0.8460 0.8440 0.8420 0.8390
1534.696937 0.8360 0.8350 0.8330 0.8330 0.8330
1539.798988 0.8320 0.8320 0.8320 0.8320 0.8320
1544.901040 0.8320 0.8320 0.8320 0.8320 0.8320
1550.003091 0.8320 0.8320 0.8320 0.8320 0.8320
1555.105142 0.8320 0.8310 0.8310 0.8310 0.8310
1560.207194 0.8310 0.8310 0.8310 0.8310 0.8310
1565.309245 0.8310 0.8310 0.8310 0.8310 0.8310
1570.411296 0.8310 0.8290 0.8290 0.8290 0.8280
1575.513348 0.8280 0.8280 0.8280 0.8280 0.8280
1580.615399 0.8280 0.8290 0.8290 0.8290 0.8310
1585.717450 0.8310 0.8310 0.8320 0.8320 0.8320
1590.819502 0.8320 0.8320 0.8320 0.8310 0.8310
1595.921553 0.8310 0.8290 0.8290 0.8290 0.8290
1601.023604 0.8290 0.8290 0.8310 0.8310 0.8320
1606.125656 0.8320 0.8320 0.8310 0.8310 0.8310
1611.227707 0.8290 0.8290 0.8290 0.8290 0.8280
1616.329758 0.8260 0.8260 0.8250 0.8250 0.8250
1621.431810 0.8250 0.8250 0.8250 0.8250 0.8250
1626.533861 0.8240 0.8240 0.8240 0.8240 0.8240
1631.635912 0.8240 0.8240 0.8240 0.8220 0.8220
1636.737964 0.8210 0.8210 0.8170 0.8140 0.8060
1641.840015 0.8000 0.7950 0.7890 0.7820 0.7760
1646.942066 0.7669 0.7500 0.7299 0.6839 0.6300
1652.044118 0.6300 0.6520 0.6530 0.6710 0.6890
1657.146169 0.7061 0.7442 0.8110 0.8130 0.8140
1662.248220 0.8180 0.8220 0.8320 0.8330 0.8350
1667.350272 0.8350 0.8370 0.8390 0.8430 0.8480
1672.452323 0.8510 0.8530 0.8540 0.8540 0.8550
1677.554374 0.8550 0.8570 0.8570 0.8570 0.8580
1682.656426 0.8580 0.8580 0.8580 0.8590 0.8590
1687.758477 0.8590 0.8590 0.8610 0.8610 0.8610
1692.860528 0.8610 0.8620 0.8620 0.8620 0.8620
1697.962580 0.8620 0.8620 0.8620 0.8620 0.8620
1703.064631 0.8620 0.8620 0.8620 0.8620 0.8620
1708.166682 0.8620 0.8640 0.8640 0.8640 0.8650
1713.268734 0.8650 0.8650 0.8660 0.8660 0.8680
1718.370785 0.8680 0.8680 0.8680 0.8680 0.8680
1723.472836 0.8680 0.8680 0.8690 0.8690 0.8690
1728.574888 0.8690 0.8690 0.8690 0.8690 0.8690
1733.676939 0.8690 0.8690 0.8690 0.8690 0.8690
1738.778990 0.8690 0.8690 0.8690 0.8690 0.8690
1743.881042 0.8690 0.8690 0.8690 0.8690 0.8690
1748.983093 0.8690 0.8690 0.8690 0.8690 0.8690
1754.085144 0.8690 0.8690 0.8690 0.8690 0.8690
1759.187196 0.8690 0.8690 0.8690 0.8690 0.8690
1764.289247 0.8680 0.8680 0.8660 0.8660 0.8660
1769.391298 0.8650 0.8640 0.8620 0.8620 0.8620
1774.493350 0.8620 0.8620 0.8640 0.8640 0.8640
1779.595401 0.8650 0.8680 0.8690 0.8700 0.8700
1784.697452 0.8700 0.8700 0.8690 0.8680 0.8660
1789.799504 0.8650 0.8640 0.8640 0.8640 0.8620
1794.901555 0.8620 0.8620 0.8620 0.8620 0.8620
1800.003606 0.8620 0.8620 0.8620 0.8610 0.8610
1805.105658 0.8610 0.8610 0.8610 0.8620 0.8640
1810.207709 0.8650 0.8650 0.8660 0.8660 0.8650
1815.309760 0.8650 0.8650 0.8650 0.8650 0.8650
1820.411812 0.8650 0.8650 0.8650 0.8660 0.8660
1825.513863 0.8660 0.8680 0.8680 0.8680 0.8680
1830.615915 0.8660 0.8660 0.8660 0.8660 0.8660
1835.717966 0.8690 0.8690 0.8690 0.8700 0.8700
1840.820017 0.8700 0.8700 0.8700 0.8690 0.8690
1845.922069 0.8690 0.8690 0.8680 0.8680 0.8680
1851.024120 0.8660 0.8660 0.8660 0.8660 0.8650
1856.126171 0.8650 0.8650 0.8650 0.8650 0.8650
1861.228223 0.8650 0.8650 0.8650 0.8650 0.8650
1866.330274 0.8650 0.8650 0.8650 0.8660 0.8660
1871.432325 0.8660 0.8660 0.8660 0.8660 0.8680
1876.534377 0.8680 0.8680 0.8680 0.8680 0.8680
1881.636428 0.8690 0.8690 0.8700 0.8700 0.8700
1886.738479 0.8690 0.8690 0.8690 0.8690 0.8690
1891.840531 0.8690 0.8680 0.8680 0.8680 0.8680
1896.942582 0.8680 0.8680 0.8680 0.8680 0.8690
1902.044633 0.8690 0.8690 0.8690 0.8690 0.8700
1907.146685 0.8700 0.8700 0.8700 0.8700 0.8700
1912.248736 0.8700 0.8700 0.8700 0.8700 0.8700
1917.350787 0.8700 0.8700 0.8700 0.8700 0.8700
1922.452839 0.8700 0.8700 0.8700 0.8700 0.8700
1927.554890 0.8700 0.8700 0.8700 0.8700 0.8700
1932.656941 0.8700 0.8720 0.8720 0.8720 0.8720
1937.758993 0.8720 0.8700 0.8700 0.8700 0.8700
1942.861044 0.8700 0.8700 0.8700 0.8700 0.8690
1947.963095 0.8690 0.8690 0.8690 0.8680 0.8680
1953.065147 0.8680 0.8680 0.8680 0.8690 0.8690
1958.167198 0.8690 0.8700 0.8700 0.8700 0.8720
1963.269249 0.8720 0.8720 0.8720 0.8720 0.8720
1968.371301 0.8720 0.8720 0.8720 0.8720 0.8720
1973.473352 0.8720 0.8720 0.8720 0.8720 0.8700
1978.575403 0.8700 0.8700 0.8700 0.8700 0.8700
1983.677455 0.8690 0.8690 0.8690 0.8690 0.8680
1988.779506 0.8680 0.8680 0.8680 0.8680 0.8680
1993.881557 0.8690 0.8690 0.8700 0.8700 0.8720
1998.983609 0.8720 0.8720 0.8725 0.8730 0.8730
2004.085660 0.8730 0.8730 0.8730 0.8730 0.8730
2009.187711 0.8730 0.8730 0.8730 0.8730 0.8730
2014.289763 0.8730 0.8730 0.8730 0.8740 0.8750
2019.391814 0.8750 0.8750 0.8750 0.8750 0.8750
2024.493865 0.8750 0.8750 0.8750 0.8750 0.8750
2029.595917 0.8750 0.8750 0.8750 0.8750 0.8750
2034.697968 0.8750 0.8750 0.8750 0.8750 0.8750
2039.800019 0.8750 0.8750 0.8750 0.8749 0.8739
2044.902071 0.8730 0.8730 0.8730 0.8730 0.8730
2050.004122 0.8725 0.8720 0.8720 0.8720 0.8720
2055.106173 0.8720 0.8720 0.8720 0.8720 0.8720
2060.208225 0.8720 0.8720 0.8720 0.8720 0.8720
2065.310276 0.8720 0.8720 0.8720 0.8720 0.8720
2070.412327 0.8720 0.8720 0.8720 0.8720 0.8720
2075.514379 0.8720 0.8720 0.8720 0.8720 0.8719
2080.616430 0.8709 0.8700 0.8700 0.8700 0.8700
2085.718481 0.8700 0.8700 0.8700 0.8700 0.8700
2090.820533 0.8700 0.8700 0.8700 0.8700 0.8700
2095.922584 0.8700 0.8700 0.8700 0.8700 0.8700
2101.024635 0.8700 0.8700 0.8700 0.8699 0.8694
2106.126687 0.8690 0.8690 0.8690 0.8690 0.8690
2111.228738 0.8690 0.8690 0.8690 0.8690 0.8690
2116.330789 0.8690 0.8690 0.8690 0.8690 0.8690
2121.432841 0.8690 0.8690 0.8690 0.8690 0.8690
2126.534892 0.8689 0.8684 0.8680 0.8680 0.8680
2131.636943 0.8680 0.8680 0.8680 0.8678 0.8668
2136.738995 0.8660 0.8660 0.8660 0.8660 0.8660
2141.841046 0.8660 0.8660 0.8660 0.8660 0.8660
2146.943097 0.8660 0.8660 0.8662 0.8672 0.8680
2152.045149 0.8680 0.8680 0.8680 0.8680 0.8680
2157.147200 0.8680 0.8680 0.8680 0.8680 0.8680
2162.249251 0.8680 0.8680 0.8680 0.8680 0.8680
2167.351303 0.8680 0.8680 0.8678 0.8668 0.8660
2172.453354 0.8660 0.8660 0.8660 0.8660 0.8660
2177.555405 0.8660 0.8660 0.8662 0.8672 0.8680
2182.657457 0.8680 0.8680 0.8680 0.8681 0.8686
2187.759508 0.8690 0.8690 0.8690 0.8690 0.8690
2192.861559 0.8690 0.8690 0.8690 0.8690 0.8690
2197.963611 0.8690 0.8690 0.8690 0.8690 0.8690
2203.065662 0.8690 0.8690 0.8690 0.8690 0.8690
2208.167713 0.8690 0.8690 0.8690 0.8690 0.8690
2213.269765 0.8690 0.8690 0.8690 0.8690 0.8690
2218.371816 0.8690 0.8690 0.8690 0.8690 0.8690
2223.473867 0.8690 0.8689 0.8684 0.8680 0.8680
2228.575919 0.8680 0.8680 0.8680 0.8680 0.8680
2233.677970 0.8680 0.8680 0.8680 0.8680 0.8680
2238.780021 0.8680 0.8680 0.8680 0.8680 0.8680
2243.882073 0.8680 0.8680 0.8680 0.8680 0.8680
2248.984124 0.8680 0.8680 0.8680 0.8680 0.8680
2254.086175 0.8680 0.8680 0.8680 0.8680 0.8680
2259.188227 0.8680 0.8680 0.8680 0.8680 0.8680
2264.290278 0.8680 0.8680 0.8680 0.8680 0.8680
2269.392329 0.8680 0.8680 0.8680 0.8680 0.8680
2274.494381 0.8680 0.8680 0.8680 0.8680 0.8680
2279.596432 0.8680 0.8680 0.8680 0.8680 0.8680
2284.698484 0.8680 0.8680 0.8680 0.8676 0.8666
2289.800535 0.8660 0.8660 0.8660 0.8660 0.8660
2294.902586 0.8660 0.8660 0.8660 0.8660 0.8660
2300.004638 0.8660 0.8660 0.8660 0.8660 0.8660
2305.106689 0.8660 0.8664 0.8674 0.8680 0.8680
2310.208740 0.8680 0.8680 0.8680 0.8680 0.8682
2315.310792 0.8687 0.8690 0.8690 0.8690 0.8690
2320.412843 0.8690 0.8690 0.8690 0.8690 0.8688
2325.514894 0.8683 0.8680 0.8680 0.8680 0.8680
2330.616946 0.8680 0.8680 0.8676 0.8666 0.8660
2335.718997 0.8660 0.8660 0.8660 0.8660 0.8660
2340.821048 0.8658 0.8653 0.8650 0.8650 0.8650
2345.923100 0.8650 0.8650 0.8650 0.8650 0.8650
2351.025151 0.8652 0.8657 0.8660 0.8660 0.8660
2356.127202 0.8660 0.8664 0.8674 0.8680 0.8680
2361.229254 0.8680 0.8680 0.8682 0.8687 0.8690
2366.331305 0.8690 0.8690 0.8690 0.8690 0.8690
2371.433356 0.8690 0.8690 0.8690 0.8690 0.8690
2376.535408 0.8690 0.8690 0.8690 0.8690 0.8690
2381.637459 0.8692 0.8697 0.8700 0.8700 0.8700
2386.739510 0.8700 0.8698 0.8693 0.8690 0.8690
2391.841562 0.8690 0.8690 0.8690 0.8690 0.8688
2396.943613 0.8683 0.8680 0.8680 0.8680 0.8680
2402.045664 0.8675 0.8665 0.8660 0.8660 0.8658
2407.147716 0.8652 0.8650 0.8650 0.8650 0.8650
2412.249767 0.8650 0.8650 0.8650 0.8650 0.8650
2417.351818 0.8650 0.8650 0.8650 0.8650 0.8650
2422.453870 0.8650 0.8650 0.8650 0.8650 0.8647
2427.555921 0.8642 0.8640 0.8640 0.8640 0.8640
2432.657972 0.8640 0.8640 0.8640 0.8640 0.8640
2437.760024 0.8640 0.8640 0.8640 0.8640 0.8640
2442.862075 0.8640 0.8640 0.8635 0.8625 0.8620
2447.964126 0.8620 0.8620 0.8620 0.8620 0.8620
2453.066178 0.8617 0.8612 0.8610 0.8610 0.8610
2458.168229 0.8610 0.8610 0.8610 0.8610 0.8610
2463.270280 0.8610 0.8610 0.8610 0.8610 0.8610
2468.372332 0.8610 0.8610 0.8610 0.8610 0.8610
2473.474383 0.8610 0.8610 0.8610 0.8610 0.8610
2478.576434 0.8610 0.8604 0.8594 0.8587 0.8582
2483.678486 0.8580 0.8580 0.8580 0.8580 0.8580
2488.780537 0.8580 0.8580 0.8580 0.8580 0.8580
2493.882588 0.8577 0.8572 0.8570 0.8570 0.8570
2498.984640 0.8570 0.8570 0.8570 0.8570 0.8570
2504.086691 0.8570 0.8570 0.8570 0.8570 0.8570
2509.188742 0.8570 0.8570 0.8570 0.8570 0.8570
2514.290794 0.8570 0.8570 0.8570 0.8570 0.8570
2519.392845 0.8570 0.8570 0.8570 0.8570 0.8570
2524.494896 0.8570 0.8570 0.8564 0.8554 0.8550
2529.596948 0.8550 0.8547 0.8542 0.8540 0.8540
2534.698999 0.8537 0.8532 0.8523 0.8513 0.8510
2539.801050 0.8510 0.8507 0.8502 0.8500 0.8500
2544.903102 0.8500 0.8500 0.8503 0.8508 0.8510
2550.005153 0.8510 0.8510 0.8510 0.8510 0.8510
2555.107204 0.8510 0.8510 0.8510 0.8510 0.8507
2560.209256 0.8502 0.8500 0.8500 0.8490 0.8475
2565.311307 0.8467 0.8462 0.8453 0.8443 0.8436
2570.413358 0.8431 0.8430 0.8430 0.8430 0.8430
2575.515410 0.8434 0.8439 0.8440 0.8440 0.8451
2580.617461 0.8466 0.8474 0.8479 0.8487 0.8497
2585.719512 0.8504 0.8509 0.8517 0.8527 0.8530
2590.821564 0.8530 0.8534 0.8539 0.8544 0.8549
2595.923615 0.8557 0.8567 0.8574 0.8579 0.8580
2601.025666 0.8580 0.8576 0.8571 0.8570 0.8570
2606.127718 0.8570 0.8570 0.8563 0.8553 0.8550
2611.229769 0.8550 0.8550 0.8550 0.8550 0.8550
2616.331820 0.8550 0.8550 0.8550 0.8550 0.8558
2621.433872 0.8568 0.8570 0.8570 0.8570 0.8570
2626.535923 0.8574 0.8579 0.8580 0.8580 0.8584
2631.637974 0.8589 0.8590 0.8590 0.8590 0.8590
2636.740026 0.8590 0.8590 0.8586 0.8581 0.8580
2641.842077 0.8580 0.8576 0.8571 0.8570 0.8570
2646.944128 0.8570 0.8570 0.8562 0.8552 0.8546
2652.046180 0.8541 0.8536 0.8531 0.8522 0.8512
2657.148231 0.8506 0.8501 0.8500 0.8500 0.8500
2662.250282 0.8500 0.8500 0.8500 0.8500 0.8500
2667.352334 0.8504 0.8509 0.8510 0.8510 0.8510
2672.454385 0.8510 0.8510 0.8510 0.8506 0.8501
2677.556436 0.8500 0.8500 0.8492 0.8482 0.8476
2682.658488 0.8471 0.8466 0.8461 0.8460 0.8460
2687.760539 0.8452 0.8442 0.8436 0.8431 0.8417
2692.862590 0.8402 0.8387 0.8372 0.8361 0.8351
2697.964642 0.8341 0.8331 0.8326 0.8321 0.8316
2703.066693 0.8311 0.8301 0.8291 0.8299 0.8309
2708.168744 0.8310 0.8310 0.8314 0.8319 0.8320
2713.270796 0.8320 0.8307 0.8292 0.8277 0.8262
2718.372847 0.8238 0.8213 0.8174 0.8134 0.8072
2723.474898 0.8007 0.7928 0.7848 0.7732 0.7612
2728.576950 0.7492 0.7372 0.7243 0.7113 0.7100
2733.679001 0.7100 0.7423 0.7773 0.7888 0.7983
2738.781053 0.8036 0.8086 0.8099 0.8109 0.8110
2743.883104 0.8110 0.8110 0.8110 0.8110 0.8110
2748.985155 0.8105 0.8100 0.8095 0.8090 0.8081
2754.087207 0.8071 0.8037 0.8002 0.7976 0.7951
2759.189258 0.7931 0.7911 0.7901 0.7891 0.7880
2764.291309 0.7870 0.7860 0.7851 0.7845 0.7840
2769.393361 0.7826 0.7811 0.7796 0.7781 0.7761
2774.495412 0.7741 0.7706 0.7671 0.7646 0.7621
2779.597463 0.7601 0.7581 0.7580 0.7580 0.7570
2784.699515 0.7560 0.7536 0.7511 0.7481 0.7451
2789.801566 0.7430 0.7410 0.7386 0.7361 0.7311
2794.903617 0.7260 0.7205 0.7150 0.6895 0.6640
2800.005669 0.6595 0.6550 0.6500 0.6450 0.6410
2805.107720 0.6370 0.6320 0.6270 0.6210 0.6150
2810.209771 0.6135 0.6120 0.6100 0.6080 0.6045
2815.311823 0.6005 0.5820 0.5637 0.5502 0.5362
2820.413874 0.5052 0.4742 0.4427 0.4119 0.4094
2825.515925 0.4067 0.3931 0.3796 0.3651 0.3507
2830.617977 0.3377 0.3245 0.3060 0.2871 0.2542
2835.720028 0.2214 0.1894 0.1574 0.1249 0.0924
2840.822079 0.0614 0.0319 0.0309 0.0299 0.0289
2845.924131 0.0280 0.0280 0.0280 0.0280 0.0281
2851.026182 0.0291 0.0301 0.0311 0.0321 0.0336
2856.128233 0.0355 0.0420 0.0489 0.0604 0.0719
2861.230285 0.0834 0.0942 0.0972 0.1002 0.1022
2866.332336 0.1042 0.1062 0.1087 0.1172 0.1256
2871.434387 0.1331 0.1402 0.1422 0.1440 0.1440
2876.536439 0.1434 0.1379 0.1323 0.1253 0.1183
2881.638490 0.1113 0.1046 0.1011 0.0976 0.0936
2886.740541 0.0892 0.0812 0.0730 0.0630 0.0539
2891.842593 0.0529 0.0519 0.0509 0.0500 0.0500
2896.944644 0.0501 0.0511 0.0519 0.0509 0.0496
2902.046695 0.0461 0.0429 0.0424 0.0416 0.0381
2907.148747 0.0347 0.0327 0.0309 0.0304 0.0299
2912.250798 0.0289 0.0279 0.0274 0.0270 0.0270
2917.352849 0.0269 0.0264 0.0260 0.0260 0.0258
2922.454901 0.0248 0.0240 0.0240 0.0240 0.0240
2927.556952 0.0242 0.0252 0.0260 0.0260 0.0261
2932.659003 0.0266 0.0271 0.0276 0.0280 0.0280
2937.761055 0.0284 0.0304 0.0320 0.0320 0.0322
2942.863106 0.0332 0.0340 0.0340 0.0338 0.0328
2947.965157 0.0316 0.0296 0.0279 0.0274 0.0270
2953.067209 0.0270 0.0270 0.0270 0.0271 0.0276
2958.169260 0.0282 0.0292 0.0305 0.0330 0.0354
2963.271311 0.0374 0.0396 0.0426 0.0461 0.0516
2968.373363 0.0568 0.0608 0.0648 0.0688 0.0779
2973.475414 0.1064 0.1313 0.1423 0.1591 0.1986
2978.577465 0.2328 0.2493 0.2729 0.3204 0.3591
2983.679517 0.3681 0.3752 0.3762 0.3794 0.3899
2988.781568 0.4005 0.4115 0.4225 0.4335 0.4443
2993.883619 0.4543 0.4671 0.4891 0.5085 0.5191
2998.985671 0.5298 0.5408 0.5594 0.6005 0.6328
3004.087722 0.6398 0.6465 0.6525 0.6579 0.6614
3009.189773 0.6645 0.6665 0.6684 0.6699 0.6713
3014.291825 0.6723 0.6731 0.6736 0.6740 0.6740
3019.393876 0.6723 0.6663 0.6602 0.6537 0.6475
3024.495927 0.6420 0.6365 0.6310 0.6252 0.6187
3029.597979 0.6115 0.6025 0.5935 0.5845 0.5671
3034.700030 0.5286 0.4970 0.4830 0.4691 0.4555
3039.802081 0.4371 0.4081 0.3836 0.3691 0.3547
3044.904133 0.3407 0.3364 0.3539 0.3715 0.3895
3050.006184 0.4075 0.4255 0.4489 0.4844 0.5139
3055.108235 0.5299 0.5532 0.5927 0.6262 0.6465
3060.210287 0.6655 0.6820 0.6985 0.7150 0.7265
3065.312338 0.7280 0.7328 0.7443 0.7533 0.7573
3070.414389 0.7605 0.7620 0.7652 0.7717 0.7762
3075.516441 0.7767 0.7782 0.7817 0.7848 0.7874
3080.618492 0.7906 0.7951 0.7991 0.8021 0.8049
3085.720543 0.8074 0.8092 0.8097 0.8105 0.8120
3090.822595 0.8130 0.8130 0.8130 0.8130 0.8132
3095.924646 0.8137 0.8140 0.8140 0.8142 0.8147
3101.026697 0.8175 0.8240 0.8286 0.8301 0.8312
3106.128749 0.8317 0.8320 0.8320 0.8322 0.8327
3111.230800 0.8330 0.8330 0.8334 0.8344 0.8352
3116.332851 0.8357 0.8362 0.8367 0.8376 0.8391
3121.434903 0.8406 0.8421 0.8440 0.8465 0.8484
3126.536954 0.8494 0.8502 0.8507 0.8514 0.8524
3131.639005 0.8532 0.8537 0.8540 0.8540 0.8542
3136.741057 0.8547 0.8550 0.8550 0.8554 0.8564
3141.843108 0.8570 0.8570 0.8572 0.8577 0.8580
3146.945159 0.8580 0.8582 0.8587 0.8590 0.8590
3152.047211 0.8594 0.8604 0.8610 0.8610 0.8612
3157.149262 0.8617 0.8624 0.8634 0.8642 0.8647
3162.251313 0.8650 0.8650 0.8652 0.8657 0.8660
3167.353365 0.8660 0.8665 0.8675 0.8680 0.8680
3172.455416 0.8680 0.8680 0.8682 0.8687 0.8690
3177.557468 0.8690 0.8690 0.8690 0.8697 0.8712
3182.659519 0.8720 0.8720 0.8720 0.8720 0.8722
3187.761570 0.8727 0.8730 0.8730 0.8735 0.8745
3192.863622 0.8750 0.8750 0.8752 0.8757 0.8760
3197.965673 0.8760 0.8760 0.8760 0.8760 0.8760
3203.067724 0.8757 0.8752 0.8750 0.8750 0.8750
3208.169776 0.8750 0.8750 0.8750 0.8750 0.8750
3213.271827 0.8753 0.8758 0.8760 0.8760 0.8760
3218.373878 0.8760 0.8760 0.8760 0.8760 0.8760
3223.475930 0.8760 0.8760 0.8760 0.8760 0.8760
3228.577981 0.8760 0.8760 0.8760 0.8763 0.8768
3233.680032 0.8770 0.8770 0.8770 0.8770 0.8770
3238.782084 0.8770 0.8770 0.8770 0.8770 0.8770
3243.884135 0.8770 0.8770 0.8770 0.8770 0.8770
3248.986186 0.8770 0.8770 0.8770 0.8770 0.8770
3254.088238 0.8767 0.8762 0.8760 0.8760 0.8760
3259.190289 0.8760 0.8760 0.8760 0.8760 0.8760
3264.292340 0.8760 0.8760 0.8757 0.8752 0.8750
3269.394392 0.8750 0.8750 0.8750 0.8750 0.8750
3274.496443 0.8750 0.8750 0.8744 0.8734 0.8730
3279.598494 0.8730 0.8727 0.8722 0.8720 0.8720
3284.700546 0.8720 0.8720 0.8714 0.8704 0.8700
3289.802597 0.8700 0.8700 0.8700 0.8700 0.8700
3294.904648 0.8700 0.8700 0.8697 0.8692 0.8690
3300.006700 0.8690 0.8690 0.8690 0.8690 0.8690
3305.108751 0.8690 0.8690 0.8693 0.8698 0.8700
3310.210802 0.8700 0.8700 0.8700 0.8700 0.8700
3315.312854 0.8700 0.8700 0.8700 0.8700 0.8700
3320.414905 0.8700 0.8706 0.8716 0.8720 0.8720
3325.516956 0.8720 0.8720 0.8720 0.8720 0.8720
3330.619008 0.8720 0.8720 0.8720 0.8720 0.8720
3335.721059 0.8723 0.8728 0.8730 0.8730 0.8730
3340.823110 0.8730 0.8737 0.8747 0.8750 0.8750
3345.925162 0.8750 0.8750 0.8753 0.8758 0.8760
3351.027213 0.8760 0.8760 0.8760 0.8760 0.8760
3356.129264 0.8760 0.8760 0.8760 0.8760 0.8760
3361.231316 0.8760 0.8760 0.8760 0.8760 0.8760
3366.333367 0.8760 0.8760 0.8760 0.8760 0.8760
3371.435418 0.8760 0.8760 0.8760 0.8760 0.8760
3376.537470 0.8760 0.8760 0.8764 0.8769 0.8770
3381.639521 0.8770 0.8777 0.8787 0.8790 0.8790
3386.741572 0.8790 0.8790 0.8790 0.8790 0.8794
3391.843624 0.8799 0.8800 0.8800 0.8800 0.8800
3396.945675 0.8800 0.8800 0.8800 0.8800 0.8800
3402.047726 0.8800 0.8800 0.8800 0.8800 0.8800
3407.149778 0.8800 0.8800 0.8800 0.8800 0.8800
3412.251829 0.8800 0.8800 0.8800 0.8800 0.8800
3417.353880 0.8800 0.8800 0.8800 0.8800 0.8800
3422.455932 0.8800 0.8800 0.8800 0.8800 0.8800
3427.557983 0.8800 0.8800 0.8800 0.8800 0.8800
3432.660034 0.8800 0.8800 0.8800 0.8800 0.8800
3437.762086 0.8804 0.8809 0.8810 0.8810 0.8810
3442.864137 0.8810 0.8810 0.8810 0.8810 0.8810
3447.966188 0.8810 0.8810 0.8810 0.8810 0.8810
3453.068240 0.8810 0.8810 0.8810 0.8810 0.8810
3458.170291 0.8806 0.8801 0.8800 0.8800 0.8800
3463.272342 0.8800 0.8800 0.8800 0.8800 0.8800
3468.374394 0.8800 0.8800 0.8796 0.8791 0.8790
3473.476445 0.8790 0.8790 0.8790 0.8790 0.8790
3478.578496 0.8794 0.8799 0.8800 0.8800 0.8800
3483.680548 0.8800 0.8800 0.8800 0.8800 0.8800
3488.782599 0.8800 0.8800 0.8800 0.8800 0.8800
3493.884650 0.8800 0.8804 0.8809 0.8810 0.8810
3498.986702 0.8810 0.8810 0.8810 0.8810 0.8810
3504.088753 0.8810 0.8810 0.8810 0.8806 0.8801
3509.190804 0.8800 0.8800 0.8800 0.8800 0.8796
3514.292856 0.8791 0.8790 0.8790 0.8790 0.8790
3519.394907 0.8781 0.8771 0.8770 0.8770 0.8761
3524.496958 0.8751 0.8750 0.8750 0.8741 0.8731
3529.599010 0.8730 0.8730 0.8725 0.8720 0.8720
3534.701061 0.8720 0.8720 0.8720 0.8711 0.8701
3539.803112 0.8700 0.8700 0.8695 0.8690 0.8685
3544.905164 0.8680 0.8680 0.8680 0.8680 0.8680
3550.007215 0.8685 0.8690 0.8690 0.8690 0.8695
3555.109266 0.8700 0.8714 0.8729 0.8744 0.8759
3560.211318 0.8774 0.8789 0.8795 0.8800 0.8795
3565.313369 0.8790 0.8781 0.8771 0.8780 0.8790
3570.415420 0.8800 0.8810 0.8825 0.8840 0.8869
3575.517472 0.8899 0.8905 0.8910 0.8910 0.8910
3580.619523 0.8895 0.8880 0.8865 0.8850 0.8845
3585.721574 0.8840 0.8835 0.8830 0.8835 0.8840
3590.823626 0.8840 0.8840 0.8835 0.8830 0.8830
3595.925677 0.8830 0.8830 0.8830 0.8820 0.8810
3601.027728 0.8810 0.8810 0.8810 0.8810 0.8810
3606.129780 0.8810 0.8810 0.8810 0.8810 0.8810
3611.231831 0.8810 0.8810 0.8810 0.8810 0.8820
3616.333882 0.8830 0.8835 0.8840 0.8845 0.8850
3621.435934 0.8860 0.8870 0.8870 0.8870 0.8860
3626.537985 0.8850 0.8840 0.8830 0.8820 0.8810
3631.640037 0.8805 0.8800 0.8800 0.8800 0.8805
3636.742088 0.8811 0.8831 0.8851 0.8866 0.8880
3641.844139 0.8880 0.8879 0.8864 0.8850 0.8840
3646.946191 0.8830 0.8830 0.8830 0.8819 0.8810
3652.048242 0.8810 0.8810 0.8810 0.8810 0.8810
3657.150293 0.8811 0.8821 0.8830 0.8830 0.8830
3662.252345 0.8835 0.8840 0.8840 0.8839 0.8824
3667.354396 0.8810 0.8805 0.8800 0.8795 0.8790
3672.456447 0.8790 0.8789 0.8779 0.8770 0.8770
3677.558499 0.8770 0.8765 0.8760 0.8760 0.8760
3682.660550 0.8755 0.8750 0.8750 0.8750 0.8750
3687.762601 0.8750 0.8750 0.8750 0.8750 0.8749
3692.864653 0.8739 0.8730 0.8730 0.8730 0.8730
3697.966704 0.8730 0.8730 0.8730 0.8730 0.8731
3703.068755 0.8741 0.8750 0.8750 0.8751 0.8756
3708.170807 0.8760 0.8760 0.8760 0.8760 0.8762
3713.272858 0.8777 0.8790 0.8790 0.8791 0.8796
3718.374909 0.8801 0.8806 0.8811 0.8821 0.8830
3723.476961 0.8830 0.8830 0.8830 0.8831 0.8836
3728.579012 0.8841 0.8846 0.8850 0.8850 0.8852
3733.681063 0.8862 0.8870 0.8870 0.8871 0.8876
3738.783115 0.8880 0.8880 0.8880 0.8880 0.8879
3743.885166 0.8874 0.8868 0.8858 0.8849 0.8844
3748.987217 0.8839 0.8834 0.8828 0.8818 0.8809
3754.089269 0.8804 0.8799 0.8794 0.8790 0.8790
3759.191320 0.8790 0.8790 0.8790 0.8790 0.8788
3764.293371 0.8778 0.8770 0.8770 0.8770 0.8770
3769.395423 0.8770 0.8770 0.8772 0.8782 0.8790
3774.497474 0.8790 0.8790 0.8790 0.8791 0.8796
3779.599525 0.8800 0.8800 0.8801 0.8806 0.8810
3784.701577 0.8810 0.8810 0.8810 0.8812 0.8822
3789.803628 0.8831 0.8836 0.8841 0.8846 0.8852
3794.905679 0.8862 0.8871 0.8876 0.8882 0.8892
3800.007731 0.8891 0.8856 0.8831 0.8836 0.8841
3805.109782 0.8846 0.8853 0.8863 0.8871 0.8876
3810.211833 0.8883 0.8893
##END=
