##TITLE=PYRIDINE, 1,2,5,6-TETRAHYDRO-
##JCAMP-DX=4.24
##DATA TYPE=INFRARED SPECTRUM
##CLASS=COBLENTZ III
##ORIGIN=WESTERN REGIONAL RES. USDA
##OWNER=COBLENTZ SOCIETY
Collection (C) 2018 copyright by the U.S. Secretary of Commerce
on behalf of the United States of America. All rights reserved.
##DATE=1967/06/13
##NAMES=1,2,3,6-tetrahydropyridine
##CAS REGISTRY NO=694-05-3
##MOLFORM=C5 H9 N
##SOURCE REFERENCE=COBLENTZ NO. 10427
##$NIST SOURCE=COBLENTZ
##$NIST IMAGE=cob10427
##SPECTROMETER/DATA SYSTEM=CARY 90 (GRATING)
##INSTRUMENT PARAMETERS=GRATING CHANGES AT 3000, 2000, 1200 CM^-^1
##STATE=LIQUID (NEAT)
##PATH LENGTH=0.0025 CM
$$ SEE SPECTRUM NO. 7073 FOR THIN RUN
##SAMPLING PROCEDURE=TRANSMISSION
##RESOLUTION=4
##DATA PROCESSING=DIGITIZED BY NIST FROM HARD COPY (FROM TWO SEGMENTS)
##XUNITS=1/CM
##YUNITS=TRANSMITTANCE
##XFACTOR=1.000000
##YFACTOR=1
##DELTAX=0.906005
##FIRSTX=479.728
##LASTX=3982.34
##FIRSTY=0.261
##MAXX=3982.34
##MINX=479.728
##MAXY=0.908
##MINY=0
##NPOINTS=3867
##XYDATA=(X++(Y..Y))
479.728000 0.2610 0.2630 0.2610 0.2630 0.2670
484.258025 0.2690 0.2720 0.2740 0.2770 0.2929
488.788050 0.3270 0.3280 0.3360 0.3420 0.3600
493.318075 0.3889 0.4189 0.4220 0.4320 0.4499
497.848099 0.4590 0.4660 0.5090 0.5140 0.5360
502.378124 0.5400 0.5420 0.5619 0.5630 0.5700
506.908149 0.5770 0.5840 0.5910 0.5940 0.5970
511.438174 0.6000 0.6010 0.6010 0.5990 0.5950
515.968199 0.5820 0.5350 0.5300 0.5230 0.5150
520.498224 0.5080 0.5030 0.5020 0.5020 0.5030
525.028249 0.5130 0.5230 0.5350 0.5500 0.5630
529.558273 0.5780 0.5969 0.6109 0.6329 0.6380
534.088298 0.6430 0.6450 0.6470 0.6510 0.6530
538.618323 0.6540 0.6550 0.6570 0.6590 0.6600
543.148348 0.6610 0.6610 0.6620 0.6620 0.6630
547.678373 0.6630 0.6630 0.6630 0.6630 0.6630
552.208398 0.6630 0.6630 0.6630 0.6630 0.6630
556.738422 0.6630 0.6630 0.6630 0.6620 0.6620
561.268447 0.6620 0.6620 0.6620 0.6620 0.6620
565.798472 0.6610 0.6610 0.6600 0.6600 0.6590
570.328497 0.6590 0.6570 0.6570 0.6560 0.6550
574.858522 0.6550 0.6540 0.6540 0.6530 0.6530
579.388547 0.6520 0.6520 0.6510 0.6480 0.6470
583.918572 0.6460 0.6440 0.6430 0.6420 0.6400
588.448596 0.6400 0.6390 0.6370 0.6350 0.6330
592.978621 0.6310 0.6290 0.6270 0.6250 0.6240
597.508646 0.6210 0.6190 0.6170 0.6140 0.6120
602.038671 0.6100 0.6070 0.6030 0.6010 0.5970
606.568696 0.5930 0.5760 0.5660 0.5660 0.5690
611.098721 0.5820 0.5840 0.5850 0.5840 0.5760
615.628746 0.5700 0.5650 0.5600 0.5570 0.5520
620.158770 0.5480 0.5370 0.5360 0.5261 0.5151
624.688795 0.5060 0.4960 0.4800 0.4600 0.4460
629.218820 0.4310 0.4021 0.3592 0.3102 0.1658
633.748845 0.1290 0.0700 0.0201 0.0150 0.0100
638.278870 0.0070 0.0040 0.0020 0.0000 0.0000
642.808895 0.0000 0.0010 0.0010 0.0020 0.0030
647.338919 0.0060 0.0090 0.0150 0.0210 0.0290
651.868944 0.0380 0.0490 0.0610 0.0720 0.0900
656.398969 0.1089 0.1299 0.1589 0.1749 0.1830
660.928994 0.1910 0.2070 0.2380 0.2630 0.2770
665.459019 0.2939 0.3060 0.3199 0.3220 0.3290
669.989044 0.3520 0.3650 0.3780 0.3860 0.3900
674.519069 0.3910 0.3920 0.3950 0.4000 0.4040
679.049093 0.4050 0.4060 0.4060 0.4050 0.4040
683.579118 0.4030 0.4000 0.3880 0.3810 0.3740
688.109143 0.3560 0.3520 0.3380 0.3220 0.3110
692.639168 0.3020 0.2751 0.2581 0.2480 0.2311
697.169193 0.2190 0.2090 0.2040 0.1780 0.1580
701.699218 0.1490 0.1470 0.1460 0.1440 0.1440
706.229243 0.1460 0.1460 0.1480 0.1490 0.1510
710.759267 0.1550 0.1580 0.1600 0.1640 0.1650
715.289292 0.1680 0.1710 0.1720 0.1730 0.1740
719.819317 0.1750 0.1750 0.1740 0.1730 0.1720
724.349342 0.1690 0.1600 0.1550 0.1520 0.1490
728.879367 0.1440 0.1350 0.1270 0.1210 0.1140
733.409392 0.1070 0.1030 0.0980 0.0930 0.0900
737.939417 0.0880 0.0860 0.0840 0.0830 0.0840
742.469441 0.0870 0.0890 0.0950 0.0980 0.1030
746.999466 0.1080 0.1130 0.1160 0.1289 0.1370
751.529491 0.1460 0.1540 0.1640 0.1750 0.1820
756.059516 0.1870 0.2000 0.2159 0.2319 0.2499
760.589541 0.2590 0.2720 0.2750 0.2710 0.2690
765.119566 0.2540 0.2440 0.2251 0.2041 0.1751
769.649590 0.1590 0.1470 0.1340 0.1250 0.1150
774.179615 0.1100 0.1080 0.1070 0.1060 0.1040
778.709640 0.1000 0.0950 0.0930 0.0920 0.0920
783.239665 0.0910 0.0900 0.0880 0.0880 0.0840
787.769690 0.0800 0.0740 0.0690 0.0640 0.0610
792.299715 0.0600 0.0460 0.0390 0.0360 0.0350
796.829740 0.0300 0.0230 0.0200 0.0180 0.0180
801.359764 0.0160 0.0160 0.0160 0.0160 0.0180
805.889789 0.0180 0.0190 0.0190 0.0200 0.0210
810.419814 0.0230 0.0260 0.0270 0.0290 0.0300
814.949839 0.0330 0.0370 0.0400 0.0440 0.0470
819.479864 0.0500 0.0540 0.0600 0.0670 0.0740
824.009889 0.0780 0.0920 0.0980 0.1060 0.1240
828.539914 0.1420 0.1550 0.1799 0.1900 0.2000
833.069938 0.2160 0.2320 0.2600 0.2760 0.2890
837.599963 0.3040 0.3170 0.3180 0.3150 0.3060
842.129988 0.2970 0.2610 0.2400 0.2320 0.2260
846.660013 0.2250 0.2250 0.2240 0.2210 0.2170
851.190038 0.2110 0.2060 0.2040 0.2030 0.2030
855.720063 0.2040 0.2060 0.2080 0.2100 0.2140
860.250088 0.2180 0.2210 0.2250 0.2290 0.2330
864.780112 0.2370 0.2400 0.2430 0.2480 0.2510
869.310137 0.2530 0.2530 0.2510 0.2440 0.2400
873.840162 0.2330 0.2190 0.2001 0.1890 0.1840
878.370187 0.1830 0.1840 0.2080 0.2340 0.2610
882.900212 0.2800 0.3039 0.3269 0.3479 0.3570
887.430237 0.3660 0.3810 0.4000 0.4020 0.4000
891.960261 0.3561 0.3211 0.3200 0.3349 0.3370
896.490286 0.3490 0.3620 0.3900 0.4120 0.4330
901.020311 0.4330 0.4300 0.3103 0.3090 0.3100
905.550336 0.3210 0.3320 0.3450 0.3560 0.3620
910.080361 0.3680 0.3820 0.4000 0.4159 0.4529
914.610386 0.4790 0.4940 0.5060 0.5200 0.5320
919.140411 0.5410 0.5490 0.5590 0.5700 0.5800
923.670435 0.5870 0.5960 0.6030 0.6090 0.6170
928.200460 0.6170 0.6180 0.6170 0.6120 0.6040
932.730485 0.5950 0.5839 0.5330 0.5230 0.5220
937.260510 0.5230 0.5300 0.5350 0.5400 0.5430
941.790535 0.5500 0.5530 0.5580 0.5660 0.5710
946.320560 0.5730 0.5740 0.5730 0.5650 0.5540
950.850585 0.5220 0.4980 0.4619 0.3270 0.2920
955.380609 0.2590 0.2400 0.2380 0.2400 0.2510
959.910634 0.2550 0.2660 0.2800 0.2890 0.2960
964.440659 0.3050 0.3120 0.3200 0.3260 0.3390
968.970684 0.3420 0.3420 0.3400 0.3190 0.3090
973.500709 0.2890 0.2421 0.1592 0.1271 0.1001
978.030734 0.0800 0.0650 0.0580 0.0570 0.0580
982.560758 0.0600 0.0610 0.0630 0.0650 0.0690
987.090783 0.0710 0.0790 0.0950 0.1060 0.1170
991.620808 0.1310 0.1440 0.1590 0.1750 0.1840
996.150833 0.1920 0.2090 0.2260 0.2500 0.2720
1000.680858 0.2930 0.3140 0.3340 0.3520 0.3600
1005.210883 0.3680 0.3830 0.3960 0.4060 0.4210
1009.740908 0.4300 0.4360 0.4410 0.4500 0.4510
1014.270932 0.4530 0.4540 0.4560 0.4580 0.4640
1018.800957 0.4710 0.4730 0.4740 0.4730 0.4720
1023.330982 0.4660 0.4640 0.4510 0.4310 0.4120
1027.861007 0.3900 0.3441 0.3440 0.3520 0.3600
1032.391032 0.3680 0.4020 0.4290 0.4390 0.4710
1036.921057 0.5069 0.5270 0.5350 0.5430 0.5649
1041.451082 0.5800 0.5920 0.5990 0.6040 0.6080
1045.981106 0.6110 0.6160 0.6200 0.6220 0.6220
1050.511131 0.6210 0.6160 0.6070 0.6010 0.5970
1055.041156 0.5930 0.5880 0.5860 0.5860 0.5880
1059.571181 0.5900 0.5920 0.5940 0.5960 0.5970
1064.101206 0.6000 0.6030 0.6030 0.6000 0.5990
1068.631231 0.5970 0.5970 0.5970 0.5990 0.6020
1073.161256 0.6040 0.6020 0.5970 0.5930 0.5900
1077.691280 0.5860 0.5770 0.5620 0.5320 0.5160
1082.221305 0.5010 0.4860 0.4661 0.4511 0.4500
1086.751330 0.4500 0.4480 0.4430 0.4340 0.4160
1091.281355 0.3481 0.2941 0.1783 0.1302 0.0961
1095.811380 0.0800 0.0770 0.0560 0.0540 0.0560
1100.341405 0.0640 0.0710 0.0710 0.0700 0.0610
1104.871429 0.0520 0.0440 0.0280 0.0220 0.0220
1109.401454 0.0270 0.0520 0.0719 0.1059 0.1369
1113.931479 0.1690 0.1890 0.2080 0.2550 0.2910
1118.461504 0.3200 0.3459 0.3600 0.3730 0.4049
1122.991529 0.4461 0.4810 0.5020 0.5200 0.5360
1127.521554 0.5440 0.5520 0.5630 0.5740 0.5830
1132.051579 0.5910 0.5970 0.6050 0.6130 0.6210
1136.581603 0.6260 0.6330 0.6390 0.6420 0.6430
1141.111628 0.6510 0.6520 0.6530 0.6530 0.6520
1145.641653 0.6510 0.6470 0.6440 0.6430 0.6440
1150.171678 0.6450 0.6480 0.6510 0.6540 0.6550
1154.701703 0.6570 0.6600 0.6610 0.6610 0.6620
1159.231728 0.6620 0.6620 0.6620 0.6610 0.6600
1163.761753 0.6560 0.6460 0.6340 0.6270 0.6160
1168.291777 0.6020 0.5839 0.5320 0.5020 0.4620
1172.821802 0.3601 0.3310 0.3080 0.2861 0.2691
1177.351827 0.2540 0.2420 0.2310 0.2210 0.2110
1181.881852 0.2010 0.1581 0.1241 0.0781 0.0601
1186.411877 0.0600 0.0660 0.0950 0.1320 0.1650
1190.941902 0.1840 0.2020 0.2369 0.2719 0.3049
1195.471926 0.3390 0.3550 0.3710 0.4030 0.4320
1200.001951 0.4590 0.4850 0.5399 0.5580 0.5749
1204.531976 0.5960 0.6100 0.6180 0.6260 0.6370
1209.062001 0.6470 0.6530 0.6570 0.6600 0.6620
1213.592026 0.6620 0.6590 0.6480 0.6370 0.6250
1218.122051 0.6020 0.5311 0.5250 0.5250 0.5360
1222.652076 0.5480 0.5511 0.5830 0.6100 0.6240
1227.182100 0.6250 0.6240 0.6220 0.6050 0.5661
1231.712125 0.4929 0.4630 0.4620 0.4630 0.4810
1236.242150 0.4990 0.5170 0.5330 0.5559 0.5779
1240.772175 0.6121 0.6340 0.6460 0.6620 0.6800
1245.302200 0.6880 0.7030 0.7080 0.7110 0.7120
1249.832225 0.7120 0.7120 0.7130 0.7130 0.7120
1254.362250 0.7080 0.6990 0.6900 0.6820 0.6730
1258.892274 0.6519 0.6220 0.5999 0.5330 0.5330
1263.422299 0.5460 0.5590 0.5620 0.5909 0.6030
1267.952324 0.6160 0.6350 0.6600 0.6780 0.6890
1272.482349 0.6970 0.7020 0.7040 0.7070 0.7100
1277.012374 0.7120 0.7130 0.7130 0.7130 0.7130
1281.542399 0.7120 0.7110 0.7060 0.7020 0.6990
1286.072424 0.6980 0.6970 0.6930 0.6880 0.6800
1290.602448 0.6730 0.6650 0.6540 0.6430 0.6340
1295.132473 0.6250 0.6180 0.6100 0.6020 0.5930
1299.662498 0.5840 0.5740 0.5610 0.4402 0.3093
1304.192523 0.2617 0.1598 0.0830 0.0750 0.0750
1308.722548 0.0840 0.1460 0.1710 0.1940 0.2359
1313.252573 0.2861 0.3151 0.3560 0.3830 0.4090
1317.782597 0.4430 0.4760 0.4970 0.5050 0.5140
1322.312622 0.5150 0.5140 0.5020 0.4890 0.4740
1326.842647 0.4560 0.4370 0.3961 0.2593 0.2291
1331.372672 0.2290 0.2381 0.2701 0.3320 0.3520
1335.902697 0.3700 0.4040 0.4410 0.4749 0.5059
1340.432722 0.5400 0.5530 0.5670 0.5930 0.6190
1344.962747 0.6300 0.6370 0.6420 0.6430 0.6420
1349.492771 0.6390 0.6330 0.6250 0.6140 0.6080
1354.022796 0.5700 0.5330 0.5100 0.4920 0.4681
1358.552821 0.4670 0.4680 0.4790 0.4930 0.5160
1363.082846 0.5280 0.5410 0.5560 0.5760 0.5960
1367.612871 0.6050 0.6130 0.6210 0.6220 0.6210
1372.142896 0.6160 0.6080 0.5960 0.5880 0.5830
1376.672921 0.5659 0.5259 0.4969 0.4559 0.4109
1381.202945 0.3440 0.3440 0.3570 0.3700 0.3870
1385.732970 0.4171 0.4511 0.4811 0.5080 0.5270
1390.262995 0.5350 0.5430 0.5600 0.5750 0.5920
1394.793020 0.6080 0.6160 0.6200 0.6240 0.6280
1399.323045 0.6310 0.6350 0.6370 0.6400 0.6440
1403.853070 0.6450 0.6460 0.6460 0.6460 0.6450
1408.383095 0.6430 0.6400 0.6350 0.6300 0.6270
1412.913119 0.6220 0.6170 0.6080 0.6020 0.5930
1417.443144 0.5780 0.5650 0.5281 0.5080 0.4801
1421.973169 0.4428 0.3559 0.3059 0.2529 0.1430
1426.503194 0.1010 0.0770 0.0740 0.0750 0.0900
1431.033219 0.1000 0.1030 0.1050 0.1080 0.1100
1435.563244 0.1160 0.1230 0.1350 0.1480 0.1640
1440.093268 0.1650 0.1610 0.1440 0.1390 0.1310
1444.623293 0.1270 0.1210 0.1160 0.1140 0.1160
1449.153318 0.1240 0.1410 0.1600 0.1780 0.1860
1453.683343 0.1940 0.2100 0.2250 0.2360 0.2460
1458.213368 0.2540 0.2580 0.2590 0.2650 0.2720
1462.743393 0.2790 0.2890 0.3030 0.3190 0.3370
1467.273418 0.3560 0.3680 0.3780 0.3980 0.4170
1471.803442 0.4410 0.4640 0.4800 0.4920 0.5030
1476.333467 0.5170 0.5270 0.5340 0.5400 0.5450
1480.863492 0.5540 0.5610 0.5660 0.5750 0.5900
1485.393517 0.6000 0.6130 0.6260 0.6340 0.6420
1489.923542 0.6520 0.6610 0.6690 0.6780 0.6880
1494.453567 0.6970 0.7060 0.7130 0.7200 0.7220
1498.983592 0.7240 0.7300 0.7370 0.7440 0.7450
1503.513616 0.7490 0.7560 0.7630 0.7660 0.7670
1508.043641 0.7720 0.7750 0.7810 0.7830 0.7840
1512.573666 0.7850 0.7890 0.7930 0.8010 0.8020
1517.103691 0.8040 0.8060 0.8070 0.8090 0.8100
1521.633716 0.8140 0.8160 0.8180 0.8210 0.8220
1526.163741 0.8230 0.8240 0.8260 0.8270 0.8280
1530.693765 0.8300 0.8310 0.8330 0.8340 0.8360
1535.223790 0.8380 0.8390 0.8400 0.8410 0.8410
1539.753815 0.8420 0.8420 0.8430 0.8430 0.8440
1544.283840 0.8440 0.8450 0.8450 0.8470 0.8470
1548.813865 0.8480 0.8480 0.8490 0.8490 0.8500
1553.343890 0.8500 0.8510 0.8510 0.8510 0.8510
1557.873915 0.8510 0.8510 0.8500 0.8500 0.8490
1562.403939 0.8470 0.8450 0.8430 0.8420 0.8410
1566.933964 0.8400 0.8360 0.8340 0.8320 0.8310
1571.463989 0.8260 0.8230 0.8180 0.8100 0.8050
1575.994014 0.8040 0.8040 0.8020 0.7980 0.7900
1580.524039 0.7840 0.7780 0.7620 0.7590 0.7610
1585.054064 0.7710 0.7790 0.7820 0.7880 0.7890
1589.584089 0.7880 0.7820 0.7800 0.7760 0.7760
1594.114113 0.7720 0.7660 0.7580 0.7490 0.7390
1598.644138 0.7310 0.7150 0.7070 0.7030 0.7020
1603.174163 0.7010 0.7020 0.7040 0.7050 0.7070
1607.704188 0.7100 0.7110 0.7140 0.7190 0.7220
1612.234213 0.7270 0.7280 0.7310 0.7380 0.7410
1616.764238 0.7420 0.7450 0.7480 0.7530 0.7540
1621.294263 0.7540 0.7550 0.7550 0.7560 0.7560
1625.824287 0.7560 0.7560 0.7560 0.7560 0.7550
1630.354312 0.7550 0.7550 0.7550 0.7550 0.7550
1634.884337 0.7550 0.7540 0.7530 0.7530 0.7530
1639.414362 0.7510 0.7470 0.7440 0.7400 0.7390
1643.944387 0.7200 0.7060 0.6940 0.6820 0.6590
1648.474412 0.6299 0.5988 0.5340 0.5170 0.4990
1653.004436 0.4810 0.4800 0.4810 0.4930 0.5070
1657.534461 0.5331 0.5501 0.5671 0.6081 0.6380
1662.064486 0.6680 0.6970 0.7200 0.7280 0.7360
1666.594511 0.7400 0.7500 0.7580 0.7660 0.7720
1671.124536 0.7750 0.7790 0.7800 0.7820 0.7850
1675.654561 0.7870 0.7880 0.7900 0.7920 0.7930
1680.184586 0.7950 0.7960 0.7980 0.8000 0.8010
1684.714610 0.8050 0.8060 0.8080 0.8100 0.8100
1689.244635 0.8130 0.8170 0.8190 0.8210 0.8230
1693.774660 0.8240 0.8250 0.8260 0.8280 0.8310
1698.304685 0.8330 0.8340 0.8350 0.8350 0.8360
1702.834710 0.8360 0.8380 0.8390 0.8390 0.8400
1707.364735 0.8400 0.8400 0.8400 0.8400 0.8400
1711.894760 0.8400 0.8400 0.8390 0.8390 0.8390
1716.424784 0.8380 0.8360 0.8360 0.8360 0.8350
1720.954809 0.8350 0.8350 0.8360 0.8380 0.8420
1725.484834 0.8430 0.8440 0.8450 0.8480 0.8510
1730.014859 0.8520 0.8530 0.8560 0.8590 0.8620
1734.544884 0.8650 0.8680 0.8700 0.8720 0.8720
1739.074909 0.8730 0.8730 0.8740 0.8750 0.8760
1743.604934 0.8770 0.8780 0.8780 0.8790 0.8790
1748.134958 0.8810 0.8820 0.8820 0.8830 0.8830
1752.664983 0.8840 0.8850 0.8850 0.8860 0.8860
1757.195008 0.8870 0.8890 0.8890 0.8900 0.8900
1761.725033 0.8900 0.8900 0.8910 0.8910 0.8910
1766.255058 0.8920 0.8920 0.8920 0.8930 0.8930
1770.785083 0.8930 0.8940 0.8940 0.8940 0.8950
1775.315107 0.8950 0.8950 0.8960 0.8960 0.8980
1779.845132 0.8980 0.8990 0.8990 0.8990 0.9000
1784.375157 0.9000 0.9010 0.9010 0.9010 0.9010
1788.905182 0.9010 0.9020 0.9020 0.9020 0.9020
1793.435207 0.9030 0.9030 0.9030 0.9040 0.9040
1797.965232 0.9040 0.9060 0.9060 0.9060 0.9060
1802.495257 0.9040 0.9040 0.9030 0.9020 0.9020
1807.025281 0.9010 0.9000 0.9000 0.8990 0.8990
1811.555306 0.8980 0.8980 0.8980 0.8960 0.8960
1816.085331 0.8940 0.8940 0.8930 0.8930 0.8920
1820.615356 0.8920 0.8910 0.8910 0.8900 0.8900
1825.145381 0.8890 0.8890 0.8890 0.8890 0.8890
1829.675406 0.8890 0.8890 0.8900 0.8900 0.8900
1834.205431 0.8900 0.8900 0.8910 0.8910 0.8910
1838.735455 0.8910 0.8910 0.8920 0.8920 0.8930
1843.265480 0.8930 0.8940 0.8940 0.8950 0.8950
1847.795505 0.8960 0.8960 0.8980 0.8980 0.8990
1852.325530 0.8990 0.9000 0.9010 0.9010 0.9020
1856.855555 0.9030 0.9030 0.9040 0.9040 0.9060
1861.385580 0.9060 0.9070 0.9070 0.9080 0.9080
1865.915604 0.9080 0.9080 0.9080 0.9080 0.9080
1870.445629 0.9070 0.9070 0.9070 0.9070 0.9070
1874.975654 0.9060 0.9040 0.9040 0.9040 0.9040
1879.505679 0.9040 0.9040 0.9060 0.9060 0.9060
1884.035704 0.9060 0.9060 0.9060 0.9060 0.9060
1888.565729 0.9060 0.9060 0.9060 0.9060 0.9060
1893.095754 0.9040 0.9040 0.9030 0.9030 0.9020
1897.625778 0.9020 0.9020 0.9000 0.8990 0.8980
1902.155803 0.8960 0.8960 0.8950 0.8940 0.8930
1906.685828 0.8920 0.8910 0.8890 0.8870 0.8860
1911.215853 0.8840 0.8830 0.8820 0.8810 0.8780
1915.745878 0.8770 0.8760 0.8750 0.8740 0.8730
1920.275903 0.8720 0.8700 0.8680 0.8670 0.8660
1924.805928 0.8640 0.8620 0.8610 0.8600 0.8590
1929.335952 0.8570 0.8560 0.8560 0.8550 0.8550
1933.865977 0.8530 0.8530 0.8530 0.8530 0.8530
1938.396002 0.8550 0.8550 0.8550 0.8550 0.8560
1942.926027 0.8560 0.8560 0.8560 0.8570 0.8570
1947.456052 0.8570 0.8570 0.8580 0.8580 0.8590
1951.986077 0.8590 0.8600 0.8600 0.8610 0.8620
1956.516102 0.8640 0.8640 0.8650 0.8650 0.8650
1961.046126 0.8660 0.8660 0.8660 0.8670 0.8670
1965.576151 0.8670 0.8680 0.8680 0.8680 0.8690
1970.106176 0.8690 0.8690 0.8690 0.8690 0.8690
1974.636201 0.8690 0.8690 0.8690 0.8690 0.8690
1979.166226 0.8700 0.8700 0.8700 0.8700 0.8700
1983.696251 0.8700 0.8700 0.8700 0.8700 0.8700
1988.226275 0.8700 0.8700 0.8700 0.8700 0.8700
1992.756300 0.8700 0.8700 0.8700 0.8690 0.8690
1997.286325 0.8690 0.8690 0.8690 0.8690 0.8690
2001.816350 0.8690 0.8690 0.8690 0.8685 0.8680
2006.346375 0.8680 0.8680 0.8680 0.8680 0.8680
2010.876400 0.8680 0.8680 0.8680 0.8680 0.8680
2015.406425 0.8680 0.8680 0.8675 0.8670 0.8670
2019.936449 0.8670 0.8670 0.8670 0.8670 0.8670
2024.466474 0.8670 0.8670 0.8670 0.8670 0.8670
2028.996499 0.8670 0.8665 0.8660 0.8660 0.8660
2033.526524 0.8660 0.8660 0.8660 0.8660 0.8655
2038.056549 0.8650 0.8650 0.8650 0.8650 0.8650
2042.586574 0.8650 0.8650 0.8646 0.8641 0.8640
2047.116599 0.8640 0.8640 0.8640 0.8631 0.8621
2051.646623 0.8620 0.8620 0.8616 0.8611 0.8610
2056.176648 0.8610 0.8606 0.8601 0.8600 0.8600
2060.706673 0.8591 0.8581 0.8580 0.8580 0.8576
2065.236698 0.8571 0.8570 0.8570 0.8566 0.8561
2069.766723 0.8556 0.8551 0.8550 0.8550 0.8550
2074.296748 0.8550 0.8542 0.8532 0.8530 0.8530
2078.826772 0.8530 0.8530 0.8538 0.8548 0.8554
2083.356797 0.8559 0.8560 0.8560 0.8564 0.8569
2087.886822 0.8578 0.8588 0.8598 0.8608 0.8622
2092.416847 0.8637 0.8652 0.8667 0.8674 0.8679
2096.946872 0.8684 0.8689 0.8690 0.8690 0.8694
2101.476897 0.8699 0.8700 0.8700 0.8708 0.8717
2106.006922 0.8720 0.8720 0.8720 0.8720 0.8720
2110.536946 0.8720 0.8720 0.8720 0.8720 0.8720
2115.066971 0.8720 0.8720 0.8720 0.8720 0.8720
2119.596996 0.8720 0.8713 0.8703 0.8700 0.8700
2124.127021 0.8700 0.8700 0.8696 0.8691 0.8690
2128.657046 0.8690 0.8690 0.8690 0.8687 0.8682
2133.187071 0.8680 0.8680 0.8680 0.8680 0.8677
2137.717096 0.8672 0.8667 0.8662 0.8660 0.8660
2142.247120 0.8657 0.8652 0.8650 0.8650 0.8647
2146.777145 0.8642 0.8640 0.8640 0.8640 0.8640
2151.307170 0.8643 0.8648 0.8656 0.8666 0.8673
2155.837195 0.8678 0.8683 0.8688 0.8690 0.8690
2160.367220 0.8693 0.8698 0.8700 0.8700 0.8706
2164.897245 0.8716 0.8720 0.8720 0.8720 0.8720
2169.427270 0.8720 0.8720 0.8714 0.8704 0.8700
2173.957294 0.8700 0.8697 0.8692 0.8684 0.8674
2178.487319 0.8667 0.8662 0.8657 0.8652 0.8647
2183.017344 0.8642 0.8640 0.8640 0.8634 0.8624
2187.547369 0.8617 0.8612 0.8607 0.8602 0.8600
2192.077394 0.8600 0.8597 0.8592 0.8587 0.8582
2196.607419 0.8577 0.8572 0.8570 0.8570 0.8570
2201.137443 0.8570 0.8567 0.8562 0.8560 0.8560
2205.667468 0.8560 0.8560 0.8560 0.8560 0.8560
2210.197493 0.8560 0.8560 0.8560 0.8560 0.8560
2214.727518 0.8560 0.8560 0.8560 0.8560 0.8560
2219.257543 0.8560 0.8560 0.8560 0.8560 0.8560
2223.787568 0.8562 0.8567 0.8570 0.8570 0.8572
2228.317593 0.8577 0.8580 0.8580 0.8580 0.8580
2232.847617 0.8582 0.8587 0.8590 0.8590 0.8592
2237.377642 0.8597 0.8602 0.8607 0.8617 0.8632
2241.907667 0.8644 0.8654 0.8662 0.8667 0.8672
2246.437692 0.8677 0.8680 0.8680 0.8680 0.8680
2250.967717 0.8682 0.8687 0.8690 0.8690 0.8690
2255.497742 0.8690 0.8690 0.8690 0.8688 0.8683
2260.027767 0.8678 0.8673 0.8668 0.8663 0.8658
2264.557791 0.8653 0.8648 0.8643 0.8636 0.8626
2269.087816 0.8616 0.8606 0.8596 0.8586 0.8578
2273.617841 0.8573 0.8566 0.8556 0.8546 0.8536
2278.147866 0.8530 0.8530 0.8530 0.8530 0.8533
2282.677891 0.8543 0.8550 0.8550 0.8552 0.8557
2287.207916 0.8562 0.8567 0.8570 0.8570 0.8573
2291.737941 0.8583 0.8592 0.8597 0.8603 0.8613
2296.267965 0.8620 0.8620 0.8623 0.8633 0.8641
2300.797990 0.8646 0.8651 0.8656 0.8660 0.8660
2305.328015 0.8661 0.8666 0.8670 0.8670 0.8671
2309.858040 0.8676 0.8680 0.8680 0.8681 0.8686
2314.388065 0.8691 0.8696 0.8700 0.8700 0.8700
2318.918090 0.8700 0.8700 0.8700 0.8700 0.8700
2323.448114 0.8700 0.8700 0.8700 0.8700 0.8700
2327.978139 0.8700 0.8700 0.8700 0.8702 0.8712
2332.508164 0.8720 0.8720 0.8720 0.8720 0.8721
2337.038189 0.8726 0.8730 0.8730 0.8730 0.8730
2341.568214 0.8731 0.8736 0.8740 0.8740 0.8740
2346.098239 0.8740 0.8740 0.8740 0.8740 0.8740
2350.628264 0.8739 0.8734 0.8730 0.8730 0.8730
2355.158288 0.8730 0.8729 0.8724 0.8720 0.8720
2359.688313 0.8720 0.8720 0.8718 0.8708 0.8700
2364.218338 0.8700 0.8699 0.8694 0.8689 0.8684
2368.748363 0.8679 0.8674 0.8670 0.8670 0.8669
2373.278388 0.8664 0.8660 0.8660 0.8660 0.8660
2377.808413 0.8660 0.8660 0.8659 0.8654 0.8650
2382.338438 0.8650 0.8650 0.8650 0.8650 0.8650
2386.868462 0.8650 0.8650 0.8650 0.8650 0.8650
2391.398487 0.8650 0.8650 0.8650 0.8650 0.8650
2395.928512 0.8650 0.8655 0.8660 0.8660 0.8660
2400.458537 0.8660 0.8660 0.8660 0.8660 0.8660
2404.988562 0.8660 0.8660 0.8660 0.8660 0.8660
2409.518587 0.8660 0.8660 0.8660 0.8660 0.8655
2414.048611 0.8650 0.8650 0.8650 0.8650 0.8650
2418.578636 0.8645 0.8640 0.8640 0.8640 0.8630
2423.108661 0.8620 0.8620 0.8620 0.8615 0.8610
2427.638686 0.8610 0.8610 0.8610 0.8610 0.8610
2432.168711 0.8610 0.8605 0.8600 0.8600 0.8600
2436.698736 0.8600 0.8600 0.8600 0.8600 0.8605
2441.228761 0.8610 0.8610 0.8610 0.8610 0.8610
2445.758785 0.8615 0.8620 0.8620 0.8620 0.8620
2450.288810 0.8620 0.8629 0.8639 0.8640 0.8640
2454.818835 0.8649 0.8659 0.8669 0.8679 0.8680
2459.348860 0.8680 0.8685 0.8690 0.8690 0.8690
2463.878885 0.8695 0.8700 0.8709 0.8719 0.8725
2468.408910 0.8730 0.8730 0.8730 0.8730 0.8730
2472.938935 0.8730 0.8730 0.8730 0.8730 0.8726
2477.468959 0.8721 0.8711 0.8701 0.8687 0.8672
2481.998984 0.8648 0.8623 0.8607 0.8592 0.8573
2486.529009 0.8553 0.8520 0.8485 0.8454 0.8424
2491.059034 0.8390 0.8355 0.8329 0.8304 0.8262
2495.589059 0.8217 0.8210 0.8210 0.8231 0.8256
2500.119084 0.8298 0.8342 0.8371 0.8396 0.8433
2504.649109 0.8473 0.8517 0.8562 0.8582 0.8597
2509.179133 0.8604 0.8609 0.8606 0.8601 0.8596
2513.709158 0.8591 0.8586 0.8581 0.8576 0.8571
2518.239183 0.8562 0.8552 0.8542 0.8532 0.8526
2522.769208 0.8521 0.8516 0.8511 0.8502 0.8492
2527.299233 0.8486 0.8481 0.8484 0.8489 0.8498
2531.829258 0.8508 0.8518 0.8528 0.8545 0.8565
2536.359282 0.8578 0.8587 0.8597 0.8607 0.8614
2540.889307 0.8619 0.8620 0.8620 0.8616 0.8611
2545.419332 0.8606 0.8601 0.8600 0.8600 0.8596
2549.949357 0.8591 0.8590 0.8590 0.8590 0.8590
2554.479382 0.8586 0.8581 0.8580 0.8580 0.8573
2559.009407 0.8563 0.8557 0.8552 0.8543 0.8533
2563.539432 0.8527 0.8522 0.8513 0.8503 0.8497
2568.069456 0.8492 0.8487 0.8482 0.8480 0.8480
2572.599481 0.8477 0.8472 0.8470 0.8470 0.8470
2577.129506 0.8470 0.8464 0.8454 0.8444 0.8433
2581.659531 0.8423 0.8413 0.8390 0.8361 0.8340
2586.189556 0.8325 0.8314 0.8304 0.8281 0.8251
2590.719581 0.8234 0.8224 0.8198 0.8163 0.8141
2595.249606 0.8126 0.8108 0.8088 0.8068 0.8048
2599.779630 0.8022 0.7992 0.7950 0.7900 0.7832
2604.309655 0.7752 0.7565 0.7306 0.7079 0.6875
2608.839680 0.6746 0.6671 0.6513 0.6294 0.6163
2613.369705 0.6098 0.6070 0.6070 0.6112 0.6188
2617.899730 0.6349 0.6573 0.6755 0.6904 0.6984
2622.429755 0.7009 0.7009 0.6989 0.6955 0.6910
2626.959779 0.6866 0.6821 0.6773 0.6723 0.6666
2631.489804 0.6601 0.6539 0.6479 0.6434 0.6404
2636.019829 0.6374 0.6344 0.6309 0.6269 0.6250
2640.549854 0.6250 0.6273 0.6318 0.6368 0.6423
2645.079879 0.6475 0.6525 0.6552 0.6557 0.6548
2649.609904 0.6523 0.6491 0.6451 0.6423 0.6408
2654.139929 0.6398 0.6393 0.6361 0.6301 0.6268
2658.669953 0.6263 0.6267 0.6282 0.6304 0.6334
2663.199978 0.6350 0.6350 0.6330 0.6285 0.6209
2667.730003 0.6094 0.5892 0.5578 0.5330 0.5169
2672.260028 0.5000 0.4820 0.4720 0.4720 0.4774
2676.790053 0.4899 0.4998 0.5063 0.5115 0.5150
2681.320078 0.5201 0.5276 0.5349 0.5418 0.5474
2685.850103 0.5509 0.5576 0.5690 0.5768 0.5788
2690.380127 0.5794 0.5779 0.5756 0.5721 0.5682
2694.910152 0.5637 0.5550 0.5396 0.5254 0.5135
2699.440177 0.5019 0.4909 0.4790 0.4656 0.4521
2703.970202 0.4387 0.4252 0.4117 0.3989 0.3874
2708.500227 0.3728 0.3528 0.3339 0.3170 0.3035
2713.030252 0.2966 0.2861 0.2692 0.2543 0.2433
2717.560277 0.2332 0.2247 0.2115 0.1886 0.1695
2722.090301 0.1585 0.1490 0.1425 0.1374 0.1354
2726.620326 0.1321 0.1261 0.1193 0.1109 0.1036
2731.150351 0.0991 0.0939 0.0869 0.0810 0.0775
2735.680376 0.0749 0.0744 0.0741 0.0746 0.0785
2740.210401 0.0909 0.1031 0.1146 0.1288 0.1504
2744.740426 0.1686 0.1781 0.1874 0.1964 0.2057
2749.270450 0.2156 0.2233 0.2243 0.2250 0.2250
2753.800475 0.2245 0.2225 0.2193 0.2123 0.2059
2758.330500 0.2015 0.1977 0.1962 0.1923 0.1802
2762.860525 0.1698 0.1648 0.1597 0.1543 0.1489
2767.390550 0.1439 0.1388 0.1333 0.1280 0.1236
2771.920575 0.1190 0.1140 0.1093 0.1058 0.1023
2776.450600 0.0988 0.0953 0.0919 0.0881 0.0831
2780.980624 0.0782 0.0742 0.0704 0.0674 0.0646
2785.510649 0.0626 0.0606 0.0587 0.0568 0.0558
2790.040674 0.0546 0.0521 0.0497 0.0477 0.0455
2794.570699 0.0420 0.0386 0.0356 0.0326 0.0301
2799.100724 0.0276 0.0251 0.0228 0.0213 0.0197
2803.630749 0.0177 0.0159 0.0154 0.0149 0.0144
2808.160774 0.0140 0.0140 0.0140 0.0140 0.0141
2812.690798 0.0146 0.0151 0.0156 0.0160 0.0160
2817.220823 0.0162 0.0182 0.0201 0.0211 0.0224
2821.750848 0.0264 0.0301 0.0316 0.0330 0.0325
2826.280873 0.0319 0.0304 0.0289 0.0274 0.0257
2830.810898 0.0217 0.0178 0.0148 0.0119 0.0109
2835.340923 0.0100 0.0095 0.0090 0.0095 0.0103
2839.870948 0.0153 0.0203 0.0258 0.0313 0.0372
2844.400972 0.0432 0.0487 0.0542 0.0597 0.0651
2848.930997 0.0701 0.0752 0.0877 0.1000 0.1005
2853.461022 0.1010 0.1005 0.0999 0.0949 0.0900
2857.991047 0.0870 0.0840 0.0790 0.0740 0.0700
2862.521072 0.0660 0.0635 0.0610 0.0580 0.0550
2867.051097 0.0525 0.0501 0.0476 0.0451 0.0430
2871.581121 0.0410 0.0395 0.0380 0.0351 0.0321
2876.111146 0.0310 0.0300 0.0290 0.0280 0.0261
2880.641171 0.0241 0.0235 0.0230 0.0225 0.0220
2885.171196 0.0215 0.0210 0.0201 0.0191 0.0185
2889.701221 0.0180 0.0171 0.0161 0.0151 0.0141
2894.231246 0.0135 0.0130 0.0125 0.0120 0.0115
2898.761271 0.0110 0.0105 0.0100 0.0086 0.0072
2903.291295 0.0066 0.0061 0.0056 0.0051 0.0050
2907.821320 0.0050 0.0050 0.0050 0.0046 0.0041
2912.351345 0.0040 0.0040 0.0040 0.0040 0.0040
2916.881370 0.0040 0.0044 0.0049 0.0050 0.0050
2921.411395 0.0054 0.0059 0.0060 0.0060 0.0064
2925.941420 0.0069 0.0070 0.0070 0.0083 0.0098
2930.471445 0.0104 0.0109 0.0118 0.0128 0.0138
2935.001469 0.0148 0.0162 0.0177 0.0184 0.0189
2939.531494 0.0194 0.0199 0.0204 0.0209 0.0218
2944.061519 0.0228 0.0234 0.0239 0.0248 0.0258
2948.591544 0.0264 0.0269 0.0274 0.0279 0.0292
2953.121569 0.0307 0.0330 0.0355 0.0368 0.0378
2957.651594 0.0384 0.0389 0.0482 0.0602 0.0718
2962.181618 0.0834 0.1014 0.1214 0.1325 0.1410
2966.711643 0.1544 0.1694 0.1768 0.1818 0.1864
2971.241668 0.1909 0.2035 0.2190 0.2348 0.2507
2975.771693 0.2681 0.2861 0.2964 0.3039 0.3118
2980.301718 0.3198 0.3308 0.3427 0.3511 0.3580
2984.831743 0.3614 0.3634 0.3654 0.3674 0.3705
2989.361768 0.3740 0.3774 0.3809 0.3848 0.3888
2993.891792 0.3921 0.3951 0.4001 0.4061 0.4080
2998.421817 0.4080 0.4073 0.4063 0.3995 0.3901
3002.951842 0.3742 0.3552 0.3413 0.3298 0.3184
3007.481867 0.3069 0.2905 0.2716 0.2526 0.2337
3012.011892 0.2025 0.1646 0.1417 0.1273 0.1150
3016.541917 0.1039 0.0935 0.0836 0.0742 0.0653
3021.071942 0.0538 0.0408 0.0338 0.0303 0.0268
3025.601966 0.0233 0.0214 0.0204 0.0203 0.0208
3030.131991 0.0240 0.0290 0.0364 0.0454 0.0565
3034.662016 0.0690 0.0939 0.1268 0.1591 0.1910
3039.192041 0.2359 0.2898 0.3257 0.3492 0.3720
3043.722066 0.3945 0.4132 0.4291 0.4437 0.4571
3048.252091 0.4638 0.4653 0.4654 0.4644 0.4604
3052.782116 0.4539 0.4504 0.4494 0.4457 0.4397
3057.312140 0.4370 0.4370 0.4465 0.4640 0.4817
3061.842165 0.4996 0.5125 0.5210 0.5295 0.5379
3066.372190 0.5462 0.5541 0.5613 0.5678 0.5769
3070.902215 0.5885 0.5953 0.5978 0.6000 0.6020
3075.432240 0.6033 0.6038 0.6050 0.6070 0.6095
3079.962265 0.6125 0.6182 0.6266 0.6320 0.6340
3084.492289 0.6355 0.6365 0.6386 0.6421 0.6447
3089.022314 0.6462 0.6480 0.6500 0.6512 0.6517
3093.552339 0.6522 0.6527 0.6532 0.6537 0.6542
3098.082364 0.6547 0.6552 0.6557 0.6567 0.6582
3102.612389 0.6592 0.6597 0.6602 0.6607 0.6612
3107.142414 0.6617 0.6620 0.6620 0.6622 0.6627
3111.672439 0.6630 0.6630 0.6630 0.6630 0.6632
3116.202463 0.6637 0.6640 0.6640 0.6640 0.6640
3120.732488 0.6640 0.6640 0.6640 0.6640 0.6638
3125.262513 0.6633 0.6630 0.6630 0.6628 0.6623
3129.792538 0.6620 0.6620 0.6614 0.6599 0.6584
3134.322563 0.6570 0.6556 0.6546 0.6536 0.6526
3138.852588 0.6516 0.6507 0.6500 0.6500 0.6493
3143.382613 0.6473 0.6456 0.6447 0.6438 0.6433
3147.912637 0.6422 0.6397 0.6377 0.6367 0.6352
3152.442662 0.6327 0.6304 0.6284 0.6267 0.6257
3156.972687 0.6250 0.6250 0.6244 0.6224 0.6198
3161.502712 0.6158 0.6127 0.6117 0.6104 0.6084
3166.032737 0.6061 0.6031 0.6009 0.6004 0.5989
3170.562762 0.5949 0.5917 0.5907 0.5890 0.5856
3175.092787 0.5823 0.5798 0.5775 0.5755 0.5728
3179.622811 0.5683 0.5645 0.5625 0.5598 0.5553
3184.152836 0.5496 0.5401 0.5328 0.5318 0.5297
3188.682861 0.5242 0.5188 0.5138 0.5092 0.5057
3193.212886 0.5024 0.4999 0.4973 0.4943 0.4911
3197.742911 0.4871 0.4823 0.4748 0.4676 0.4611
3202.272936 0.4549 0.4499 0.4450 0.4400 0.4353
3206.802960 0.4318 0.4285 0.4260 0.4222 0.4127
3211.332985 0.4047 0.4032 0.4016 0.3997 0.3966
3215.863010 0.3886 0.3799 0.3684 0.3583 0.3543
3220.393035 0.3503 0.3463 0.3418 0.3343 0.3276
3224.923060 0.3251 0.3225 0.3195 0.3160 0.3096
3229.453085 0.3031 0.2966 0.2900 0.2825 0.2757
3233.983110 0.2732 0.2709 0.2704 0.2689 0.2609
3238.513134 0.2532 0.2472 0.2417 0.2392 0.2362
3243.043159 0.2298 0.2237 0.2212 0.2186 0.2151
3247.573184 0.2116 0.2076 0.2038 0.2013 0.1988
3252.103209 0.1963 0.1938 0.1918 0.1895 0.1845
3256.633234 0.1797 0.1767 0.1739 0.1724 0.1709
3261.163259 0.1699 0.1688 0.1658 0.1629 0.1619
3265.693284 0.1609 0.1594 0.1579 0.1564 0.1549
3270.223308 0.1529 0.1510 0.1505 0.1500 0.1500
3274.753333 0.1500 0.1500 0.1500 0.1505 0.1510
3279.283358 0.1510 0.1510 0.1525 0.1540 0.1550
3283.813383 0.1560 0.1565 0.1570 0.1580 0.1590
3288.343408 0.1600 0.1610 0.1635 0.1660 0.1670
3292.873433 0.1680 0.1720 0.1760 0.1780 0.1800
3297.403457 0.1815 0.1830 0.1869 0.1909 0.1949
3301.933482 0.1989 0.2005 0.2020 0.2083 0.2148
3306.463507 0.2179 0.2209 0.2273 0.2338 0.2412
3310.993532 0.2487 0.2500 0.2510 0.2562 0.2617
3315.523557 0.2691 0.2766 0.2841 0.2915 0.3009
3320.053582 0.3104 0.3166 0.3226 0.3318 0.3412
3324.583607 0.3489 0.3565 0.3584 0.3599 0.3609
3329.113631 0.3619 0.3712 0.3811 0.3866 0.3915
3333.643656 0.3983 0.4053 0.4096 0.4136 0.4211
3338.173681 0.4291 0.4344 0.4394 0.4431 0.4466
3342.703706 0.4541 0.4621 0.4683 0.4743 0.4821
3347.233731 0.4900 0.4971 0.5041 0.5128 0.5218
3351.763756 0.5273 0.5323 0.5369 0.5413 0.5454
3356.293781 0.5494 0.5555 0.5620 0.5685 0.5749
3360.823805 0.5802 0.5852 0.5877 0.5897 0.5904
3365.353830 0.5909 0.5977 0.6056 0.6082 0.6097
3369.883855 0.6108 0.6118 0.6136 0.6156 0.6172
3374.413880 0.6187 0.6214 0.6244 0.6262 0.6277
3378.943905 0.6292 0.6307 0.6326 0.6346 0.6362
3383.473930 0.6377 0.6396 0.6416 0.6428 0.6438
3388.003955 0.6448 0.6458 0.6475 0.6495 0.6508
3392.533979 0.6518 0.6528 0.6538 0.6548 0.6558
3397.064004 0.6579 0.6604 0.6621 0.6636 0.6655
3401.594029 0.6675 0.6691 0.6706 0.6721 0.6736
3406.124054 0.6751 0.6766 0.6781 0.6796 0.6815
3410.654079 0.6834 0.6847 0.6857 0.6871 0.6886
3415.184104 0.6904 0.6924 0.6937 0.6947 0.6961
3419.714128 0.6976 0.6991 0.7006 0.7017 0.7027
3424.244153 0.7040 0.7055 0.7067 0.7077 0.7090
3428.774178 0.7105 0.7117 0.7127 0.7137 0.7147
3433.304203 0.7160 0.7175 0.7187 0.7197 0.7203
3437.834228 0.7208 0.7213 0.7218 0.7227 0.7237
3442.364253 0.7250 0.7265 0.7273 0.7278 0.7286
3446.894278 0.7296 0.7303 0.7308 0.7316 0.7326
3451.424302 0.7333 0.7338 0.7350 0.7364 0.7373
3455.954327 0.7378 0.7383 0.7388 0.7393 0.7398
3460.484352 0.7421 0.7456 0.7488 0.7518 0.7539
3465.014377 0.7554 0.7569 0.7584 0.7599 0.7614
3469.544402 0.7626 0.7636 0.7643 0.7648 0.7653
3474.074427 0.7658 0.7663 0.7668 0.7673 0.7678
3478.604452 0.7689 0.7704 0.7716 0.7726 0.7738
3483.134476 0.7753 0.7771 0.7791 0.7805 0.7815
3487.664501 0.7820 0.7820 0.7823 0.7828 0.7835
3492.194526 0.7845 0.7855 0.7865 0.7873 0.7878
3496.724551 0.7885 0.7895 0.7903 0.7908 0.7913
3501.254576 0.7918 0.7923 0.7928 0.7935 0.7945
3505.784601 0.7953 0.7958 0.7965 0.7975 0.7983
3510.314625 0.7988 0.7992 0.7997 0.8000 0.8000
3514.844650 0.8002 0.8007 0.8010 0.8010 0.8019
3519.374675 0.8039 0.8050 0.8050 0.8052 0.8057
3523.904700 0.8060 0.8060 0.8062 0.8067 0.8072
3528.434725 0.8077 0.8080 0.8080 0.8082 0.8087
3532.964750 0.8092 0.8097 0.8104 0.8114 0.8122
3537.494775 0.8127 0.8132 0.8137 0.8146 0.8161
3542.024799 0.8174 0.8184 0.8196 0.8211 0.8224
3546.554824 0.8234 0.8242 0.8247 0.8250 0.8250
3551.084849 0.8252 0.8257 0.8262 0.8267 0.8270
3555.614874 0.8270 0.8272 0.8277 0.8288 0.8307
3560.144899 0.8331 0.8361 0.8386 0.8401 0.8412
3564.674924 0.8417 0.8422 0.8427 0.8432 0.8437
3569.204949 0.8442 0.8447 0.8454 0.8464 0.8473
3573.734973 0.8483 0.8492 0.8497 0.8502 0.8507
3578.264998 0.8512 0.8517 0.8522 0.8527 0.8530
3582.795023 0.8530 0.8530 0.8530 0.8533 0.8543
3587.325048 0.8550 0.8550 0.8552 0.8557 0.8560
3591.855073 0.8560 0.8560 0.8560 0.8560 0.8560
3596.385098 0.8560 0.8560 0.8560 0.8560 0.8560
3600.915123 0.8560 0.8561 0.8566 0.8570 0.8570
3605.445147 0.8570 0.8570 0.8570 0.8570 0.8570
3609.975172 0.8570 0.8570 0.8570 0.8570 0.8570
3614.505197 0.8570 0.8570 0.8570 0.8570 0.8570
3619.035222 0.8570 0.8570 0.8570 0.8570 0.8570
3623.565247 0.8570 0.8570 0.8570 0.8570 0.8570
3628.095272 0.8570 0.8570 0.8570 0.8571 0.8576
3632.625296 0.8580 0.8580 0.8580 0.8580 0.8580
3637.155321 0.8580 0.8580 0.8580 0.8581 0.8586
3641.685346 0.8590 0.8590 0.8590 0.8590 0.8590
3646.215371 0.8590 0.8590 0.8590 0.8591 0.8596
3650.745396 0.8600 0.8600 0.8600 0.8600 0.8600
3655.275421 0.8600 0.8601 0.8606 0.8610 0.8610
3659.805446 0.8611 0.8616 0.8621 0.8631 0.8640
3664.335470 0.8640 0.8641 0.8646 0.8651 0.8661
3668.865495 0.8671 0.8676 0.8681 0.8691 0.8701
3673.395520 0.8711 0.8721 0.8731 0.8741 0.8746
3677.925545 0.8751 0.8761 0.8771 0.8775 0.8781
3682.455570 0.8796 0.8811 0.8821 0.8831 0.8841
3686.985595 0.8850 0.8855 0.8860 0.8865 0.8871
3691.515620 0.8881 0.8890 0.8895 0.8900 0.8905
3696.045644 0.8910 0.8910 0.8910 0.8910 0.8910
3700.575669 0.8910 0.8910 0.8910 0.8910 0.8905
3705.105694 0.8900 0.8900 0.8900 0.8895 0.8890
3709.635719 0.8890 0.8890 0.8880 0.8870 0.8870
3714.165744 0.8870 0.8865 0.8860 0.8860 0.8860
3718.695769 0.8855 0.8850 0.8850 0.8850 0.8845
3723.225794 0.8840 0.8840 0.8840 0.8835 0.8830
3727.755818 0.8830 0.8830 0.8830 0.8830 0.8825
3732.285843 0.8820 0.8820 0.8820 0.8820 0.8820
3736.815868 0.8815 0.8810 0.8810 0.8810 0.8810
3741.345893 0.8810 0.8800 0.8790 0.8790 0.8790
3745.875918 0.8790 0.8790 0.8785 0.8780 0.8780
3750.405943 0.8780 0.8775 0.8770 0.8770 0.8770
3754.935967 0.8770 0.8770 0.8770 0.8770 0.8770
3759.465992 0.8770 0.8770 0.8770 0.8770 0.8770
3763.996017 0.8770 0.8770 0.8770 0.8770 0.8770
3768.526042 0.8770 0.8770 0.8770 0.8770 0.8770
3773.056067 0.8770 0.8770 0.8770 0.8770 0.8770
3777.586092 0.8770 0.8770 0.8770 0.8770 0.8770
3782.116117 0.8770 0.8770 0.8770 0.8770 0.8774
3786.646141 0.8779 0.8780 0.8780 0.8780 0.8780
3791.176166 0.8784 0.8789 0.8790 0.8790 0.8790
3795.706191 0.8790 0.8798 0.8808 0.8810 0.8810
3800.236216 0.8810 0.8810 0.8814 0.8819 0.8820
3804.766241 0.8820 0.8824 0.8829 0.8830 0.8830
3809.296266 0.8834 0.8839 0.8844 0.8849 0.8850
3813.826291 0.8850 0.8854 0.8859 0.8860 0.8860
3818.356315 0.8864 0.8869 0.8878 0.8888 0.8890
3822.886340 0.8890 0.8894 0.8899 0.8904 0.8909
3827.416365 0.8910 0.8910 0.8914 0.8919 0.8920
3831.946390 0.8920 0.8924 0.8929 0.8934 0.8939
3836.476415 0.8947 0.8957 0.8967 0.8977 0.8984
3841.006440 0.8989 0.8994 0.8999 0.9004 0.9009
3845.536464 0.9014 0.9019 0.9024 0.9029 0.9034
3850.066489 0.9039 0.9040 0.9040 0.9040 0.9040
3854.596514 0.9040 0.9040 0.9037 0.9032 0.9030
3859.126539 0.9030 0.9027 0.9022 0.9013 0.9003
3863.656564 0.8997 0.8992 0.8987 0.8982 0.8970
3868.186589 0.8955 0.8947 0.8942 0.8933 0.8923
3872.716614 0.8917 0.8912 0.8907 0.8902 0.8897
3877.246638 0.8892 0.8884 0.8874 0.8867 0.8862
3881.776663 0.8860 0.8860 0.8857 0.8852 0.8850
3886.306688 0.8850 0.8847 0.8842 0.8837 0.8832
3890.836713 0.8830 0.8830 0.8827 0.8822 0.8817
3895.366738 0.8812 0.8804 0.8794 0.8790 0.8790
3899.896763 0.8787 0.8782 0.8780 0.8780 0.8780
3904.426788 0.8780 0.8777 0.8772 0.8770 0.8770
3908.956812 0.8770 0.8770 0.8767 0.8762 0.8760
3913.486837 0.8760 0.8760 0.8760 0.8757 0.8752
3918.016862 0.8750 0.8750 0.8750 0.8750 0.8747
3922.546887 0.8742 0.8740 0.8740 0.8737 0.8732
3927.076912 0.8730 0.8730 0.8727 0.8722 0.8720
3931.606937 0.8720 0.8715 0.8705 0.8700 0.8700
3936.136962 0.8700 0.8700 0.8698 0.8693 0.8690
3940.666986 0.8690 0.8688 0.8683 0.8680 0.8680
3945.197011 0.8680 0.8680 0.8678 0.8673 0.8670
3949.727036 0.8670 0.8670 0.8670 0.8670 0.8670
3954.257061 0.8670 0.8670 0.8670 0.8670 0.8670
3958.787086 0.8670 0.8670 0.8670 0.8670 0.8670
3963.317111 0.8670 0.8670 0.8670 0.8670 0.8670
3967.847135 0.8670 0.8670 0.8670 0.8670 0.8670
3972.377160 0.8670 0.8670 0.8670 0.8670 0.8670
3976.907185 0.8670 0.8668 0.8663 0.8660 0.8660
3981.437210 0.8660 0.8660
##END=
