##TITLE=n-PROPANOL
##JCAMP-DX=4.24
##DATA TYPE=INFRARED SPECTRUM
##CLASS=COBLENTZ
##ORIGIN=DOW CHEMICAL COMPANY
##OWNER=COBLENTZ SOCIETY
Collection (C) 2018 copyright by the U.S. Secretary of Commerce
on behalf of the United States of America. All rights reserved.
##DATE=1965/10/15
##NAMES=1-propanol
##CAS REGISTRY NO=71-23-8
##MOLFORM=C3 H8 O
##SOURCE REFERENCE=COBLENTZ NO. 10490
##$NIST SOURCE=COBLENTZ
##$NIST IMAGE=cob10490
##SPECTROMETER/DATA SYSTEM=DOW KBr FOREPRISM-GRATING
##INSTRUMENT PARAMETERS=BLAZED AT 3.5, 12.0, 20.0 MICRON, CHANGED AT 5.0, 7.5, 14.9 MICRON
##STATE=GAS (SATURATED)
##PATH LENGTH=12.5 CM CELL
##SAMPLING PROCEDURE=TRANSMISSION
##RESOLUTION=4
##DATA PROCESSING=DIGITIZED BY NIST FROM HARD COPY (FROM TWO SEGMENTS)
##XUNITS=1/CM
##YUNITS=TRANSMITTANCE
##XFACTOR=1.000000
##YFACTOR=1
##DELTAX=0.889803
##FIRSTX=455.305
##LASTX=3792.07
##FIRSTY=0.714
##MAXX=3792.07
##MINX=455.305
##MAXY=0.995
##MINY=0.0401399
##NPOINTS=3751
##XYDATA=(X++(Y..Y))
455.305000 0.7140 0.7140 0.7120 0.7120 0.7120
459.754015 0.7110 0.7110 0.7110 0.7100 0.7100
464.203029 0.7100 0.7100 0.7100 0.7100 0.7100
468.652044 0.7110 0.7110 0.7110 0.7110 0.7110
473.101059 0.7110 0.7110 0.7120 0.7120 0.7120
477.550073 0.7140 0.7140 0.7140 0.7150 0.7150
481.999088 0.7170 0.7170 0.7180 0.7180 0.7180
486.448103 0.7190 0.7190 0.7220 0.7230 0.7250
490.897117 0.7280 0.7290 0.7300 0.7320 0.7330
495.346132 0.7360 0.7370 0.7390 0.7400 0.7420
499.795146 0.7440 0.7470 0.7500 0.7530 0.7540
504.244161 0.7550 0.7570 0.7580 0.7580 0.7600
508.693176 0.7600 0.7610 0.7610 0.7610 0.7620
513.142190 0.7620 0.7640 0.7640 0.7640 0.7640
517.591205 0.7640 0.7640 0.7640 0.7640 0.7620
522.040220 0.7620 0.7620 0.7620 0.7620 0.7620
526.489234 0.7620 0.7620 0.7620 0.7620 0.7620
530.938249 0.7620 0.7620 0.7620 0.7620 0.7620
535.387264 0.7620 0.7620 0.7620 0.7620 0.7620
539.836278 0.7620 0.7620 0.7620 0.7620 0.7620
544.285293 0.7620 0.7620 0.7620 0.7620 0.7620
548.734308 0.7620 0.7620 0.7620 0.7620 0.7620
553.183322 0.7640 0.7640 0.7640 0.7640 0.7640
557.632337 0.7650 0.7650 0.7650 0.7650 0.7640
562.081352 0.7620 0.7620 0.7620 0.7610 0.7610
566.530366 0.7610 0.7610 0.7610 0.7610 0.7610
570.979381 0.7610 0.7610 0.7620 0.7620 0.7620
575.428396 0.7620 0.7620 0.7620 0.7640 0.7640
579.877410 0.7650 0.7660 0.7660 0.7680 0.7680
584.326425 0.7690 0.7690 0.7690 0.7690 0.7690
588.775439 0.7690 0.7690 0.7690 0.7690 0.7690
593.224454 0.7690 0.7690 0.7710 0.7710 0.7710
597.673469 0.7720 0.7720 0.7720 0.7730 0.7730
602.122483 0.7730 0.7730 0.7730 0.7750 0.7750
606.571498 0.7750 0.7750 0.7750 0.7760 0.7760
611.020513 0.7760 0.7780 0.7780 0.7780 0.7790
615.469527 0.7790 0.7790 0.7790 0.7790 0.7800
619.918542 0.7800 0.7800 0.7820 0.7820 0.7820
624.367557 0.7820 0.7820 0.7820 0.7830 0.7830
628.816571 0.7830 0.7830 0.7850 0.7850 0.7860
633.265586 0.7860 0.7850 0.7850 0.7850 0.7850
637.714601 0.7860 0.7870 0.7890 0.7890 0.7900
642.163615 0.7900 0.7910 0.7910 0.7910 0.7930
646.612630 0.7930 0.7930 0.7930 0.7930 0.7930
651.061645 0.7930 0.7930 0.7930 0.7930 0.7930
655.510659 0.7930 0.7930 0.7930 0.7930 0.7940
659.959674 0.7940 0.7940 0.7940 0.7940 0.7940
664.408689 0.7940 0.7940 0.7960 0.7960 0.7960
668.857703 0.7960 0.7960 0.7960 0.7960 0.7960
673.306718 0.7960 0.7970 0.7980 0.7980 0.7980
677.755732 0.8000 0.8010 0.8010 0.8030 0.8030
682.204747 0.8030 0.8030 0.8030 0.8030 0.8030
686.653762 0.8010 0.8010 0.8010 0.8010 0.8010
691.102776 0.8030 0.8030 0.8040 0.8040 0.8050
695.551791 0.8050 0.8050 0.8070 0.8070 0.8070
700.000806 0.8070 0.8070 0.8070 0.8050 0.8050
704.449820 0.8050 0.8050 0.8050 0.8070 0.8080
708.898835 0.8080 0.8070 0.8050 0.8050 0.8050
713.347850 0.8050 0.8050 0.8050 0.8050 0.8050
717.796864 0.8050 0.8050 0.8070 0.8070 0.8070
722.245879 0.8070 0.8070 0.8050 0.8050 0.8050
726.694894 0.8050 0.8050 0.8050 0.8050 0.8070
731.143908 0.8070 0.8070 0.8070 0.8070 0.8070
735.592923 0.8070 0.8070 0.8080 0.8080 0.8080
740.041938 0.8070 0.8050 0.8030 0.8030 0.8030
744.490952 0.8010 0.8010 0.8010 0.7980 0.7980
748.939967 0.7970 0.7970 0.7960 0.7960 0.7940
753.388981 0.7940 0.7940 0.7940 0.7960 0.7960
757.837996 0.7960 0.7960 0.7970 0.7970 0.7980
762.287011 0.7980 0.7980 0.7980 0.7980 0.8000
766.736025 0.8000 0.8000 0.8000 0.8000 0.8000
771.185040 0.8010 0.8010 0.8010 0.8010 0.8030
775.634055 0.8030 0.8040 0.8050 0.8050 0.8070
780.083069 0.8070 0.8070 0.8090 0.8090 0.8110
784.532084 0.8110 0.8110 0.8120 0.8120 0.8140
788.981099 0.8140 0.8140 0.8150 0.8150 0.8150
793.430113 0.8160 0.8160 0.8160 0.8160 0.8160
797.879128 0.8160 0.8160 0.8160 0.8160 0.8160
802.328143 0.8160 0.8160 0.8160 0.8150 0.8150
806.777157 0.8150 0.8150 0.8150 0.8140 0.8140
811.226172 0.8140 0.8140 0.8140 0.8120 0.8120
815.675187 0.8110 0.8110 0.8090 0.8080 0.8070
820.124201 0.8070 0.8040 0.8030 0.8010 0.8010
824.573216 0.8000 0.7980 0.7970 0.7960 0.7940
829.022231 0.7930 0.7910 0.7890 0.7870 0.7850
833.471245 0.7830 0.7820 0.7800 0.7790 0.7790
837.920260 0.7780 0.7760 0.7750 0.7720 0.7690
842.369274 0.7680 0.7660 0.7640 0.7620 0.7600
846.818289 0.7600 0.7580 0.7570 0.7550 0.7540
851.267304 0.7530 0.7500 0.7470 0.7460 0.7440
855.716318 0.7420 0.7420 0.7400 0.7400 0.7390
860.165333 0.7390 0.7360 0.7350 0.7300 0.7280
864.614348 0.7250 0.7230 0.7230 0.7190 0.7180
869.063362 0.7170 0.7170 0.7150 0.7150 0.7150
873.512377 0.7140 0.7140 0.7120 0.7120 0.7120
877.961392 0.7110 0.7110 0.7100 0.7080 0.7070
882.410406 0.7050 0.7030 0.7010 0.7000 0.6970
886.859421 0.6960 0.6940 0.6930 0.6920 0.6920
891.308436 0.6900 0.6900 0.6900 0.6900 0.6920
895.757450 0.6920 0.6920 0.6920 0.6930 0.6940
900.206465 0.6940 0.6960 0.6960 0.6970 0.6990
904.655480 0.7010 0.7040 0.7070 0.7080 0.7100
909.104494 0.7140 0.7150 0.7150 0.7170 0.7170
913.553509 0.7170 0.7180 0.7180 0.7190 0.7210
918.002523 0.7220 0.7230 0.7250 0.7250 0.7260
922.451538 0.7280 0.7290 0.7290 0.7290 0.7290
926.900553 0.7290 0.7260 0.7260 0.7250 0.7250
931.349567 0.7230 0.7150 0.7120 0.7080 0.7070
935.798582 0.7010 0.6970 0.6920 0.6900 0.6820
940.247597 0.6790 0.6620 0.6530 0.6440 0.6310
944.696611 0.6170 0.6010 0.5890 0.5750 0.5630
949.145626 0.5490 0.5001 0.4840 0.4601 0.4411
953.594641 0.4270 0.4070 0.3810 0.3480 0.3380
958.043655 0.3300 0.3240 0.3230 0.3210 0.3210
962.492670 0.3230 0.3230 0.3240 0.3240 0.3230
966.941685 0.3170 0.3090 0.2940 0.2461 0.2460
971.390699 0.3520 0.3520 0.3310 0.3030 0.2920
975.839714 0.2810 0.2770 0.2740 0.2730 0.2740
980.288729 0.2810 0.2840 0.2980 0.3130 0.3230
984.737743 0.3310 0.3410 0.3550 0.3730 0.3889
989.186758 0.4020 0.4110 0.4250 0.4390 0.4790
993.635773 0.4820 0.4960 0.4970 0.4990 0.4990
998.084787 0.4990 0.4960 0.4950 0.4860 0.4780
1002.533802 0.4680 0.4590 0.4470 0.4360 0.4250
1006.982816 0.4170 0.4090 0.4060 0.4040 0.4060
1011.431831 0.4070 0.4090 0.4110 0.4160 0.4180
1015.880846 0.4160 0.4100 0.4070 0.4000 0.4000
1020.329860 0.4030 0.4070 0.4170 0.3851 0.3521
1024.778875 0.3390 0.3310 0.3270 0.3250 0.3240
1029.227890 0.3240 0.3230 0.3230 0.3210 0.3200
1033.676904 0.3170 0.3160 0.3070 0.3000 0.2890
1038.125919 0.2810 0.2690 0.2570 0.2421 0.2241
1042.574934 0.2010 0.1630 0.1590 0.1510 0.1450
1047.023948 0.1420 0.1410 0.1400 0.1380 0.1350
1051.472963 0.1300 0.1270 0.1260 0.1240 0.1200
1055.921978 0.1190 0.1150 0.1100 0.1060 0.0940
1060.370992 0.0850 0.0840 0.0840 0.0850 0.0870
1064.820007 0.0900 0.0920 0.0980 0.1020 0.1090
1069.269022 0.1230 0.1350 0.1590 0.1730 0.2050
1073.718036 0.2090 0.2210 0.2340 0.2450 0.2550
1078.167051 0.2570 0.2630 0.2690 0.2710 0.2810
1082.616066 0.2990 0.3060 0.3090 0.3160 0.3240
1087.065080 0.3310 0.3380 0.3460 0.3550 0.3590
1091.514095 0.3710 0.3820 0.3999 0.4070 0.4170
1095.963109 0.4270 0.4360 0.4470 0.4570 0.4660
1100.412124 0.4810 0.5020 0.5100 0.5220 0.5290
1104.861139 0.5320 0.5360 0.5400 0.5490 0.5530
1109.310153 0.5630 0.5640 0.5750 0.5810 0.6009
1113.759168 0.6030 0.6080 0.6170 0.6250 0.6330
1118.208183 0.6440 0.6510 0.6610 0.6670 0.6750
1122.657197 0.6800 0.6850 0.6870 0.6920 0.6960
1127.106212 0.7010 0.7070 0.7080 0.7100 0.7120
1131.555227 0.7150 0.7190 0.7190 0.7210 0.7210
1136.004241 0.7210 0.7220 0.7250 0.7250 0.7260
1140.453256 0.7260 0.7300 0.7330 0.7360 0.7370
1144.902271 0.7370 0.7370 0.7360 0.7360 0.7360
1149.351285 0.7370 0.7390 0.7400 0.7420 0.7420
1153.800300 0.7430 0.7430 0.7430 0.7430 0.7440
1158.249315 0.7440 0.7470 0.7480 0.7480 0.7500
1162.698329 0.7510 0.7510 0.7510 0.7500 0.7480
1167.147344 0.7470 0.7440 0.7440 0.7430 0.7430
1171.596358 0.7430 0.7420 0.7400 0.7370 0.7350
1176.045373 0.7320 0.7290 0.7260 0.7250 0.7250
1180.494388 0.7230 0.7230 0.7190 0.7180 0.7170
1184.943402 0.7140 0.7080 0.7070 0.7030 0.7000
1189.392417 0.6930 0.6930 0.6830 0.6750 0.6640
1193.841432 0.6610 0.6600 0.6530 0.6460 0.6430
1198.290446 0.6350 0.6320 0.6310 0.6180 0.6040
1202.739461 0.6000 0.5920 0.5880 0.5820 0.5750
1207.188476 0.5740 0.5700 0.5640 0.5640 0.5600
1211.637490 0.5520 0.5490 0.5470 0.5460 0.5430
1216.086505 0.5390 0.5380 0.5360 0.5310 0.5280
1220.535520 0.5270 0.5250 0.5240 0.5220 0.5220
1224.984534 0.5220 0.5240 0.5250 0.5250 0.5290
1229.433549 0.5350 0.5390 0.5470 0.5490 0.5530
1233.882564 0.5570 0.5610 0.5640 0.5700 0.5720
1238.331578 0.5740 0.5750 0.5760 0.5820 0.5900
1242.780593 0.6030 0.6040 0.6060 0.6150 0.6190
1247.229608 0.6310 0.6380 0.6440 0.6470 0.6530
1251.678622 0.6600 0.6680 0.6710 0.6750 0.6760
1256.127637 0.6760 0.6800 0.6860 0.6900 0.6920
1260.576651 0.6920 0.6920 0.6920 0.6920 0.6930
1265.025666 0.6930 0.6930 0.6930 0.6930 0.6930
1269.474681 0.6930 0.6930 0.6920 0.6900 0.6900
1273.923695 0.6890 0.6870 0.6860 0.6860 0.6860
1278.372710 0.6860 0.6860 0.6860 0.6850 0.6850
1282.821725 0.6850 0.6850 0.6830 0.6830 0.6820
1287.270739 0.6820 0.6800 0.6790 0.6780 0.6780
1291.719754 0.6780 0.6780 0.6780 0.6780 0.6780
1296.168769 0.6760 0.6760 0.6760 0.6760 0.6760
1300.617783 0.6760 0.6760 0.6760 0.6780 0.6780
1305.066798 0.6800 0.6820 0.6820 0.6820 0.6830
1309.515813 0.6830 0.6830 0.6830 0.6830 0.6820
1313.964827 0.6820 0.6820 0.6800 0.6800 0.6790
1318.413842 0.6780 0.6760 0.6760 0.6760 0.6750
1322.862857 0.6750 0.6740 0.6720 0.6710 0.6690
1327.311871 0.6680 0.6650 0.6640 0.6620 0.6610
1331.760886 0.6600 0.6580 0.6570 0.6560 0.6540
1336.209900 0.6530 0.6510 0.6500 0.6490 0.6490
1340.658915 0.6470 0.6470 0.6460 0.6440 0.6440
1345.107930 0.6430 0.6430 0.6400 0.6400 0.6360
1349.556944 0.6330 0.6330 0.6320 0.6310 0.6290
1354.005959 0.6260 0.6250 0.6240 0.6180 0.6150
1358.454974 0.6140 0.6080 0.6040 0.6030 0.6000
1362.903988 0.5960 0.5950 0.5900 0.5900 0.5890
1367.353003 0.5880 0.5830 0.5810 0.5780 0.5780
1371.802018 0.5740 0.5680 0.5630 0.5610 0.5500
1376.251032 0.5380 0.5280 0.5210 0.5110 0.5040
1380.700047 0.5030 0.4890 0.4790 0.4750 0.4680
1385.149062 0.4670 0.4610 0.4600 0.4590 0.4570
1389.598076 0.4570 0.4560 0.4560 0.4560 0.4560
1394.047091 0.4570 0.4570 0.4630 0.4670 0.4700
1398.496106 0.4770 0.4770 0.4790 0.4780 0.4700
1402.945120 0.4680 0.4720 0.4750 0.4770 0.4790
1407.394135 0.4890 0.4960 0.5140 0.5280 0.5390
1411.843150 0.5540 0.5760 0.6030 0.6040 0.6170
1416.292164 0.6331 0.6750 0.6790 0.6870 0.6900
1420.741179 0.6920 0.6940 0.7000 0.7030 0.7040
1425.190193 0.7050 0.7070 0.7070 0.7070 0.7070
1429.639208 0.7050 0.7050 0.7040 0.7030 0.7010
1434.088223 0.7000 0.6940 0.6930 0.6900 0.6860
1438.537237 0.6820 0.6790 0.6780 0.6760 0.6640
1442.986252 0.6470 0.6320 0.6260 0.6180 0.6150
1447.435267 0.6110 0.6100 0.6060 0.6040 0.6000
1451.884281 0.5920 0.5880 0.5760 0.5750 0.5740
1456.333296 0.5700 0.5680 0.5650 0.5640 0.5650
1460.782311 0.5680 0.5680 0.5540 0.5330 0.5320
1465.231325 0.5320 0.5330 0.5350 0.5360 0.5390
1469.680340 0.5450 0.5540 0.5610 0.5610 0.5560
1474.129355 0.5490 0.5350 0.5180 0.5180 0.5399
1478.578369 0.5630 0.5650 0.5720 0.5740 0.5860
1483.027384 0.6070 0.6100 0.6130 0.6180 0.6190
1487.476399 0.6320 0.6400 0.6440 0.6470 0.6530
1491.925413 0.6580 0.6610 0.6760 0.6780 0.6830
1496.374428 0.6920 0.6930 0.7000 0.7050 0.7080
1500.823443 0.7150 0.7220 0.7230 0.7470 0.7600
1505.272457 0.7600 0.7650 0.7690 0.7710 0.7710
1509.721472 0.7760 0.7900 0.8000 0.8050 0.8120
1514.170486 0.8150 0.8160 0.8190 0.8210 0.8220
1518.619501 0.8230 0.8280 0.8300 0.8320 0.8320
1523.068516 0.8340 0.8360 0.8390 0.8410 0.8430
1527.517530 0.8440 0.8460 0.8480 0.8500 0.8510
1531.966545 0.8510 0.8510 0.8510 0.8510 0.8520
1536.415560 0.8540 0.8540 0.8520 0.8520 0.8510
1540.864574 0.8500 0.8500 0.8520 0.8540 0.8550
1545.313589 0.8610 0.8610 0.8620 0.8620 0.8640
1549.762604 0.8640 0.8640 0.8640 0.8640 0.8640
1554.211618 0.8620 0.8610 0.8590 0.8580 0.8570
1558.660633 0.8540 0.8520 0.8540 0.8590 0.8650
1563.109648 0.8680 0.8680 0.8660 0.8660 0.8650
1567.558662 0.8650 0.8640 0.8620 0.8620 0.8620
1572.007677 0.8650 0.8660 0.8660 0.8660 0.8650
1576.456692 0.8640 0.8640 0.8660 0.8680 0.8690
1580.905706 0.8710 0.8710 0.8710 0.8720 0.8720
1585.354721 0.8730 0.8750 0.8750 0.8730 0.8730
1589.803735 0.8730 0.8730 0.8720 0.8730 0.8730
1594.252750 0.8730 0.8730 0.8730 0.8730 0.8730
1598.701765 0.8730 0.8730 0.8730 0.8730 0.8730
1603.150779 0.8750 0.8730 0.8730 0.8730 0.8730
1607.599794 0.8730 0.8730 0.8730 0.8730 0.8750
1612.048809 0.8760 0.8770 0.8790 0.8770 0.8770
1616.497823 0.8770 0.8770 0.8790 0.8820 0.8830
1620.946838 0.8830 0.8820 0.8800 0.8800 0.8800
1625.395853 0.8820 0.8820 0.8820 0.8820 0.8800
1629.844867 0.8790 0.8770 0.8730 0.8710 0.8710
1634.293882 0.8690 0.8680 0.8690 0.8690 0.8720
1638.742897 0.8720 0.8720 0.8720 0.8720 0.8720
1643.191911 0.8720 0.8720 0.8710 0.8680 0.8680
1647.640926 0.8660 0.8660 0.8660 0.8710 0.8660
1652.089941 0.8590 0.8570 0.8570 0.8590 0.8640
1656.538955 0.8660 0.8660 0.8690 0.8680 0.8660
1660.987970 0.8650 0.8640 0.8640 0.8650 0.8650
1665.436985 0.8660 0.8650 0.8640 0.8620 0.8620
1669.885999 0.8620 0.8620 0.8620 0.8640 0.8610
1674.335014 0.8590 0.8590 0.8590 0.8610 0.8620
1678.784028 0.8620 0.8620 0.8610 0.8590 0.8590
1683.233043 0.8580 0.8580 0.8610 0.8620 0.8640
1687.682058 0.8640 0.8640 0.8620 0.8620 0.8620
1692.131072 0.8610 0.8590 0.8580 0.8580 0.8570
1696.580087 0.8570 0.8570 0.8550 0.8510 0.8510
1701.029102 0.8590 0.8650 0.8650 0.8640 0.8640
1705.478116 0.8640 0.8650 0.8650 0.8660 0.8680
1709.927131 0.8690 0.8690 0.8690 0.8650 0.8650
1714.376146 0.8650 0.8650 0.8640 0.8640 0.8650
1718.825160 0.8680 0.8690 0.8710 0.8710 0.8710
1723.274175 0.8710 0.8710 0.8720 0.8720 0.8720
1727.723190 0.8710 0.8690 0.8690 0.8690 0.8660
1732.172204 0.8650 0.8640 0.8640 0.8650 0.8690
1736.621219 0.8690 0.8690 0.8690 0.8690 0.8710
1741.070234 0.8710 0.8710 0.8710 0.8720 0.8720
1745.519248 0.8720 0.8720 0.8720 0.8720 0.8720
1749.968263 0.8720 0.8730 0.8730 0.8750 0.8760
1754.417278 0.8760 0.8760 0.8760 0.8760 0.8760
1758.866292 0.8770 0.8770 0.8770 0.8770 0.8770
1763.315307 0.8790 0.8790 0.8790 0.8770 0.8770
1767.764321 0.8770 0.8770 0.8770 0.8770 0.8770
1772.213336 0.8770 0.8790 0.8790 0.8800 0.8820
1776.662351 0.8830 0.8830 0.8830 0.8820 0.8830
1781.111365 0.8820 0.8820 0.8820 0.8820 0.8830
1785.560380 0.8840 0.8840 0.8830 0.8820 0.8800
1790.009395 0.8790 0.8790 0.8800 0.8830 0.8830
1794.458409 0.8830 0.8830 0.8830 0.8830 0.8830
1798.907424 0.8840 0.8840 0.8840 0.8860 0.8860
1803.356439 0.8860 0.8840 0.8840 0.8840 0.8830
1807.805453 0.8830 0.8830 0.8830 0.8840 0.8840
1812.254468 0.8860 0.8860 0.8860 0.8840 0.8840
1816.703483 0.8840 0.8840 0.8840 0.8840 0.8840
1821.152497 0.8830 0.8830 0.8820 0.8820 0.8830
1825.601512 0.8830 0.8830 0.8830 0.8830 0.8840
1830.050527 0.8840 0.8840 0.8840 0.8840 0.8840
1834.499541 0.8840 0.8840 0.8840 0.8840 0.8840
1838.948556 0.8840 0.8830 0.8820 0.8820 0.8820
1843.397570 0.8830 0.8830 0.8860 0.8860 0.8860
1847.846585 0.8860 0.8860 0.8860 0.8860 0.8860
1852.295600 0.8870 0.8870 0.8870 0.8870 0.8870
1856.744614 0.8860 0.8860 0.8860 0.8860 0.8860
1861.193629 0.8860 0.8860 0.8860 0.8860 0.8840
1865.642644 0.8860 0.8860 0.8860 0.8860 0.8860
1870.091658 0.8870 0.8900 0.8900 0.8900 0.8900
1874.540673 0.8900 0.8900 0.8900 0.8900 0.8900
1878.989688 0.8900 0.8900 0.8900 0.8900 0.8890
1883.438702 0.8890 0.8890 0.8890 0.8890 0.8890
1887.887717 0.8890 0.8890 0.8890 0.8890 0.8890
1892.336732 0.8890 0.8890 0.8890 0.8890 0.8900
1896.785746 0.8900 0.8910 0.8910 0.8900 0.8900
1901.234761 0.8890 0.8870 0.8870 0.8870 0.8870
1905.683776 0.8860 0.8860 0.8860 0.8860 0.8860
1910.132790 0.8860 0.8840 0.8830 0.8830 0.8820
1914.581805 0.8800 0.8800 0.8800 0.8800 0.8800
1919.030820 0.8800 0.8800 0.8790 0.8790 0.8790
1923.479834 0.8790 0.8790 0.8790 0.8790 0.8770
1927.928849 0.8770 0.8790 0.8790 0.8790 0.8770
1932.377863 0.8770 0.8770 0.8770 0.8770 0.8770
1936.826878 0.8770 0.8770 0.8770 0.8770 0.8770
1941.275893 0.8770 0.8770 0.8770 0.8770 0.8790
1945.724907 0.8790 0.8790 0.8790 0.8790 0.8790
1950.173922 0.8800 0.8800 0.8820 0.8860 0.8870
1954.622937 0.8870 0.8890 0.8890 0.8900 0.8900
1959.071951 0.8900 0.8900 0.8910 0.8910 0.8910
1963.520966 0.8910 0.8910 0.8910 0.8910 0.8910
1967.969981 0.8910 0.8910 0.8910 0.8910 0.8900
1972.418995 0.8900 0.8910 0.8910 0.8910 0.8910
1976.868010 0.8910 0.8910 0.8900 0.8900 0.8910
1981.317025 0.8930 0.8930 0.8940 0.8940 0.8940
1985.766039 0.8930 0.8910 0.8910 0.8910 0.8930
1990.215054 0.8930 0.8940 0.8940 0.8950 0.8950
1994.664069 0.8940 0.8910 0.8900 0.8890 0.8890
1999.113083 0.8890 0.8890 0.8890 0.8890 0.8890
2003.562098 0.8890 0.8890 0.8890 0.8890 0.8890
2008.011112 0.8890 0.8890 0.8890 0.8890 0.8895
2012.460127 0.8900 0.8900 0.8900 0.8900 0.8900
2016.909142 0.8900 0.8900 0.8900 0.8900 0.8900
2021.358156 0.8900 0.8905 0.8910 0.8910 0.8910
2025.807171 0.8905 0.8900 0.8900 0.8900 0.8900
2030.256186 0.8900 0.8900 0.8900 0.8900 0.8900
2034.705200 0.8895 0.8890 0.8890 0.8889 0.8879
2039.154215 0.8869 0.8864 0.8860 0.8860 0.8860
2043.603230 0.8860 0.8859 0.8849 0.8840 0.8840
2048.052244 0.8839 0.8834 0.8830 0.8830 0.8830
2052.501259 0.8830 0.8830 0.8830 0.8831 0.8836
2056.950274 0.8840 0.8840 0.8839 0.8834 0.8830
2061.399288 0.8830 0.8830 0.8830 0.8829 0.8824
2065.848303 0.8820 0.8820 0.8820 0.8820 0.8821
2070.297318 0.8826 0.8830 0.8830 0.8833 0.8848
2074.746332 0.8861 0.8866 0.8870 0.8870 0.8870
2079.195347 0.8870 0.8870 0.8870 0.8873 0.8888
2083.644362 0.8900 0.8900 0.8901 0.8906 0.8910
2088.093376 0.8910 0.8913 0.8923 0.8930 0.8930
2092.542391 0.8933 0.8943 0.8954 0.8969 0.8980
2096.991405 0.8980 0.8983 0.8993 0.9000 0.9000
2101.440420 0.9000 0.9000 0.9000 0.9000 0.9000
2105.889435 0.9000 0.9000 0.9000 0.9000 0.9000
2110.338449 0.9000 0.9000 0.9000 0.9000 0.9000
2114.787464 0.9000 0.9000 0.9000 0.9000 0.9000
2119.236479 0.9000 0.9000 0.9000 0.9000 0.9002
2123.685493 0.9007 0.9012 0.9017 0.9020 0.9020
2128.134508 0.9020 0.9020 0.9020 0.9020 0.9020
2132.583523 0.9020 0.9020 0.9020 0.9024 0.9034
2137.032537 0.9040 0.9040 0.9040 0.9040 0.9040
2141.481552 0.9040 0.9040 0.9040 0.9040 0.9040
2145.930567 0.9040 0.9040 0.9040 0.9040 0.9040
2150.379581 0.9040 0.9040 0.9040 0.9040 0.9040
2154.828596 0.9040 0.9040 0.9040 0.9040 0.9040
2159.277611 0.9040 0.9040 0.9040 0.9040 0.9040
2163.726625 0.9040 0.9040 0.9040 0.9040 0.9042
2168.175640 0.9047 0.9050 0.9050 0.9050 0.9050
2172.624655 0.9050 0.9050 0.9048 0.9043 0.9040
2177.073669 0.9040 0.9040 0.9040 0.9040 0.9040
2181.522684 0.9040 0.9040 0.9043 0.9048 0.9050
2185.971698 0.9050 0.9050 0.9050 0.9050 0.9050
2190.420713 0.9050 0.9050 0.9047 0.9042 0.9040
2194.869728 0.9040 0.9043 0.9048 0.9050 0.9050
2199.318742 0.9050 0.9050 0.9047 0.9042 0.9040
2203.767757 0.9040 0.9040 0.9040 0.9040 0.9040
2208.216772 0.9043 0.9048 0.9050 0.9050 0.9050
2212.665786 0.9050 0.9056 0.9066 0.9070 0.9070
2217.114801 0.9070 0.9070 0.9070 0.9070 0.9070
2221.563816 0.9070 0.9073 0.9078 0.9080 0.9080
2226.012830 0.9080 0.9080 0.9080 0.9080 0.9080
2230.461845 0.9080 0.9083 0.9088 0.9090 0.9090
2234.910860 0.9090 0.9090 0.9097 0.9107 0.9110
2239.359874 0.9110 0.9110 0.9110 0.9110 0.9110
2243.808889 0.9110 0.9110 0.9110 0.9110 0.9110
2248.257904 0.9110 0.9110 0.9110 0.9110 0.9110
2252.706918 0.9103 0.9093 0.9090 0.9090 0.9090
2257.155933 0.9090 0.9090 0.9090 0.9097 0.9107
2261.604947 0.9110 0.9110 0.9110 0.9110 0.9114
2266.053962 0.9119 0.9120 0.9120 0.9120 0.9120
2270.502977 0.9120 0.9120 0.9128 0.9138 0.9140
2274.951991 0.9140 0.9140 0.9140 0.9140 0.9140
2279.401006 0.9140 0.9140 0.9140 0.9140 0.9140
2283.850021 0.9140 0.9140 0.9140 0.9144 0.9149
2288.299035 0.9150 0.9150 0.9154 0.9159 0.9160
2292.748050 0.9160 0.9168 0.9178 0.9180 0.9180
2297.197065 0.9180 0.9180 0.9180 0.9180 0.9180
2301.646079 0.9180 0.9180 0.9180 0.9184 0.9189
2306.095094 0.9190 0.9190 0.9190 0.9190 0.9190
2310.544109 0.9190 0.9194 0.9199 0.9209 0.9219
2314.993123 0.9224 0.9229 0.9239 0.9249 0.9254
2319.442138 0.9260 0.9260 0.9260 0.9260 0.9260
2323.891153 0.9265 0.9270 0.9270 0.9270 0.9265
2328.340167 0.9260 0.9260 0.9260 0.9260 0.9260
2332.789182 0.9260 0.9260 0.9260 0.9260 0.9260
2337.238197 0.9260 0.9260 0.9260 0.9255 0.9250
2341.687211 0.9240 0.9230 0.9230 0.9230 0.9230
2346.136226 0.9230 0.9230 0.9230 0.9230 0.9230
2350.585240 0.9230 0.9230 0.9230 0.9230 0.9230
2355.034255 0.9230 0.9240 0.9250 0.9250 0.9250
2359.483270 0.9250 0.9250 0.9240 0.9230 0.9230
2363.932284 0.9230 0.9225 0.9220 0.9220 0.9220
2368.381299 0.9210 0.9200 0.9200 0.9200 0.9200
2372.830314 0.9200 0.9200 0.9200 0.9200 0.9200
2377.279328 0.9200 0.9200 0.9200 0.9200 0.9200
2381.728343 0.9200 0.9195 0.9190 0.9190 0.9190
2386.177358 0.9190 0.9190 0.9185 0.9180 0.9180
2390.626372 0.9180 0.9180 0.9180 0.9180 0.9179
2395.075387 0.9169 0.9160 0.9160 0.9160 0.9160
2399.524402 0.9159 0.9154 0.9150 0.9150 0.9150
2403.973416 0.9150 0.9149 0.9144 0.9140 0.9140
2408.422431 0.9140 0.9140 0.9140 0.9140 0.9138
2412.871446 0.9128 0.9120 0.9120 0.9120 0.9120
2417.320460 0.9120 0.9120 0.9120 0.9120 0.9122
2421.769475 0.9132 0.9140 0.9140 0.9140 0.9140
2426.218489 0.9140 0.9140 0.9140 0.9140 0.9140
2430.667504 0.9140 0.9141 0.9146 0.9150 0.9150
2435.116519 0.9150 0.9150 0.9151 0.9156 0.9160
2439.565533 0.9160 0.9160 0.9160 0.9162 0.9172
2444.014548 0.9181 0.9186 0.9190 0.9190 0.9190
2448.463563 0.9190 0.9191 0.9196 0.9200 0.9200
2452.912577 0.9200 0.9200 0.9200 0.9200 0.9203
2457.361592 0.9213 0.9221 0.9226 0.9230 0.9230
2461.810607 0.9233 0.9243 0.9250 0.9250 0.9250
2466.259621 0.9250 0.9252 0.9257 0.9260 0.9260
2470.708636 0.9262 0.9267 0.9270 0.9270 0.9273
2475.157651 0.9283 0.9290 0.9290 0.9292 0.9297
2479.606665 0.9300 0.9300 0.9304 0.9314 0.9320
2484.055680 0.9320 0.9316 0.9306 0.9300 0.9300
2488.504695 0.9300 0.9300 0.9300 0.9300 0.9304
2492.953709 0.9314 0.9320 0.9320 0.9320 0.9320
2497.402724 0.9320 0.9320 0.9320 0.9320 0.9320
2501.851739 0.9320 0.9320 0.9320 0.9320 0.9320
2506.300753 0.9322 0.9327 0.9330 0.9330 0.9330
2510.749768 0.9330 0.9330 0.9330 0.9330 0.9330
2515.198782 0.9332 0.9337 0.9340 0.9340 0.9340
2519.647797 0.9340 0.9340 0.9340 0.9340 0.9340
2524.096812 0.9340 0.9340 0.9340 0.9340 0.9345
2528.545826 0.9355 0.9360 0.9360 0.9360 0.9360
2532.994841 0.9360 0.9360 0.9360 0.9360 0.9360
2537.443856 0.9360 0.9360 0.9360 0.9360 0.9360
2541.892870 0.9360 0.9360 0.9360 0.9360 0.9360
2546.341885 0.9360 0.9355 0.9345 0.9340 0.9340
2550.790900 0.9340 0.9340 0.9340 0.9340 0.9340
2555.239914 0.9340 0.9334 0.9324 0.9320 0.9320
2559.688929 0.9320 0.9320 0.9320 0.9320 0.9320
2564.137944 0.9320 0.9320 0.9320 0.9320 0.9320
2568.586958 0.9320 0.9320 0.9320 0.9320 0.9323
2573.035973 0.9328 0.9330 0.9330 0.9327 0.9322
2577.484988 0.9320 0.9320 0.9320 0.9320 0.9320
2581.934002 0.9320 0.9314 0.9304 0.9300 0.9300
2586.383017 0.9300 0.9300 0.9307 0.9317 0.9320
2590.832032 0.9320 0.9320 0.9320 0.9320 0.9320
2595.281046 0.9320 0.9320 0.9320 0.9320 0.9313
2599.730061 0.9303 0.9300 0.9300 0.9300 0.9300
2604.179075 0.9300 0.9300 0.9300 0.9300 0.9300
2608.628090 0.9300 0.9300 0.9300 0.9296 0.9291
2613.077105 0.9283 0.9273 0.9266 0.9261 0.9260
2617.526119 0.9260 0.9260 0.9260 0.9260 0.9260
2621.975134 0.9260 0.9260 0.9260 0.9260 0.9260
2626.424149 0.9260 0.9260 0.9260 0.9256 0.9251
2630.873163 0.9242 0.9232 0.9230 0.9230 0.9230
2635.322178 0.9230 0.9230 0.9230 0.9230 0.9230
2639.771193 0.9230 0.9230 0.9230 0.9230 0.9226
2644.220207 0.9221 0.9220 0.9220 0.9220 0.9220
2648.669222 0.9212 0.9202 0.9200 0.9200 0.9196
2653.118237 0.9191 0.9186 0.9181 0.9180 0.9180
2657.567251 0.9180 0.9180 0.9180 0.9180 0.9167
2662.016266 0.9152 0.9146 0.9141 0.9131 0.9121
2666.465281 0.9116 0.9111 0.9110 0.9110 0.9097
2670.914295 0.9082 0.9076 0.9071 0.9057 0.9041
2675.363310 0.9040 0.9040 0.9031 0.9021 0.9020
2679.812324 0.9020 0.9015 0.9010 0.9005 0.9000
2684.261339 0.9000 0.9000 0.9000 0.9000 0.9000
2688.710354 0.9000 0.9000 0.9000 0.9000 0.9000
2693.159368 0.8990 0.8980 0.8980 0.8980 0.8980
2697.608383 0.8980 0.8980 0.8980 0.8975 0.8970
2702.057398 0.8960 0.8950 0.8945 0.8940 0.8940
2706.506412 0.8940 0.8935 0.8930 0.8930 0.8930
2710.955427 0.8920 0.8910 0.8905 0.8900 0.8900
2715.404442 0.8900 0.8895 0.8889 0.8859 0.8830
2719.853456 0.8815 0.8799 0.8779 0.8759 0.8739
2724.302471 0.8720 0.8715 0.8710 0.8700 0.8690
2728.751486 0.8690 0.8688 0.8653 0.8618 0.8583
2733.200500 0.8549 0.8534 0.8519 0.8509 0.8500
2737.649515 0.8500 0.8498 0.8478 0.8458 0.8428
2742.098530 0.8399 0.8384 0.8370 0.8365 0.8358
2746.547544 0.8343 0.8329 0.8324 0.8320 0.8320
2750.996559 0.8319 0.8309 0.8298 0.8278 0.8258
2755.445574 0.8243 0.8229 0.8224 0.8219 0.8214
2759.894588 0.8209 0.8199 0.8189 0.8184 0.8178
2764.343603 0.8168 0.8159 0.8154 0.8149 0.8144
2768.792617 0.8138 0.8128 0.8119 0.8114 0.8108
2773.241632 0.8098 0.8088 0.8078 0.8067 0.8052
2777.690647 0.8037 0.8022 0.8007 0.7992 0.7979
2782.139661 0.7974 0.7969 0.7964 0.7960 0.7960
2786.588676 0.7958 0.7948 0.7939 0.7934 0.7928
2791.037691 0.7918 0.7909 0.7904 0.7899 0.7894
2795.486705 0.7888 0.7878 0.7869 0.7864 0.7859
2799.935720 0.7854 0.7847 0.7837 0.7829 0.7824
2804.384735 0.7817 0.7807 0.7797 0.7787 0.7777
2808.833749 0.7767 0.7759 0.7754 0.7744 0.7724
2813.282764 0.7706 0.7691 0.7676 0.7661 0.7644
2817.731779 0.7624 0.7604 0.7584 0.7559 0.7524
2822.180793 0.7489 0.7454 0.7420 0.7390 0.7359
2826.629808 0.7324 0.7297 0.7287 0.7240 0.7120
2831.078823 0.7000 0.6880 0.6793 0.6773 0.6739
2835.527837 0.6678 0.6635 0.6620 0.6577 0.6487
2839.976852 0.6390 0.6279 0.6166 0.6045 0.5923
2844.425866 0.5798 0.5694 0.5624 0.5533 0.5407
2848.874881 0.5271 0.5116 0.4952 0.4775 0.4611
2853.323896 0.4466 0.4320 0.4175 0.4078 0.4048
2857.772910 0.3961 0.3796 0.3647 0.3522 0.3382
2862.221925 0.3222 0.3068 0.2923 0.2793 0.2683
2866.670940 0.2585 0.2505 0.2416 0.2315 0.2205
2871.119954 0.2085 0.1981 0.1896 0.1755 0.1550
2875.568969 0.1400 0.1315 0.1258 0.1233 0.1215
2880.017984 0.1205 0.1198 0.1193 0.1190 0.1190
2884.466998 0.1190 0.1190 0.1192 0.1198 0.1200
2888.916013 0.1200 0.1205 0.1215 0.1220 0.1220
2893.365028 0.1223 0.1228 0.1233 0.1238 0.1245
2897.814042 0.1255 0.1260 0.1260 0.1263 0.1268
2902.263057 0.1273 0.1278 0.1280 0.1280 0.1280
2906.712072 0.1280 0.1280 0.1280 0.1274 0.1264
2911.161086 0.1260 0.1260 0.1251 0.1236 0.1221
2915.610101 0.1206 0.1197 0.1192 0.1181 0.1166
2920.059116 0.1157 0.1152 0.1132 0.1102 0.1081
2924.508130 0.1066 0.1032 0.0987 0.0961 0.0946
2928.957145 0.0912 0.0867 0.0816 0.0761 0.0715
2933.406159 0.0675 0.0657 0.0652 0.0653 0.0658
2937.855174 0.0660 0.0660 0.0663 0.0668 0.0670
2942.304189 0.0670 0.0670 0.0670 0.0670 0.0670
2946.753203 0.0670 0.0670 0.0667 0.0662 0.0657
2951.202218 0.0652 0.0650 0.0650 0.0643 0.0633
2955.651233 0.0623 0.0613 0.0600 0.0584 0.0559
2960.100247 0.0529 0.0509 0.0494 0.0461 0.0421
2964.549262 0.0406 0.0401 0.0404 0.0409 0.0435
2968.998277 0.0470 0.0484 0.0489 0.0516 0.0551
2973.447291 0.0593 0.0638 0.0654 0.0659 0.0675
2977.896306 0.0695 0.0738 0.0788 0.0831 0.0871
2982.345321 0.0903 0.0933 0.0959 0.0984 0.0998
2986.794335 0.1008 0.1010 0.1010 0.1069 0.1144
2991.243350 0.1317 0.1517 0.1620 0.1695 0.1746
2995.692365 0.1792 0.1922 0.2072 0.2271 0.2482
3000.141379 0.2725 0.2975 0.3258 0.3549 0.3852
3004.590394 0.4157 0.4479 0.4805 0.5122 0.5437
3009.039409 0.5744 0.6050 0.6333 0.6611 0.6766
3013.488423 0.6901 0.7054 0.7209 0.7273 0.7323
3017.937438 0.7456 0.7601 0.7777 0.7957 0.8138
3022.386452 0.8318 0.8410 0.8490 0.8597 0.8707
3026.835467 0.8733 0.8748 0.8822 0.8903 0.8960
3031.284482 0.9015 0.9075 0.9135 0.9181 0.9226
3035.733496 0.9230 0.9230 0.9244 0.9259 0.9279
3040.182511 0.9299 0.9314 0.9329 0.9330 0.9330
3044.631526 0.9335 0.9340 0.9349 0.9360 0.9360
3049.080540 0.9360 0.9365 0.9370 0.9375 0.9380
3053.529555 0.9380 0.9380 0.9390 0.9400 0.9400
3057.978570 0.9400 0.9400 0.9400 0.9405 0.9410
3062.427584 0.9420 0.9430 0.9430 0.9430 0.9430
3066.876599 0.9430 0.9435 0.9440 0.9440 0.9440
3071.325614 0.9440 0.9440 0.9440 0.9440 0.9440
3075.774628 0.9440 0.9440 0.9440 0.9440 0.9440
3080.223643 0.9440 0.9440 0.9445 0.9450 0.9450
3084.672658 0.9450 0.9445 0.9440 0.9440 0.9440
3089.121672 0.9440 0.9440 0.9435 0.9430 0.9430
3093.570687 0.9430 0.9430 0.9429 0.9419 0.9410
3098.019701 0.9410 0.9410 0.9410 0.9410 0.9410
3102.468716 0.9410 0.9410 0.9410 0.9410 0.9410
3106.917731 0.9410 0.9411 0.9421 0.9430 0.9430
3111.366745 0.9430 0.9430 0.9430 0.9430 0.9430
3115.815760 0.9430 0.9431 0.9436 0.9441 0.9446
3120.264775 0.9450 0.9450 0.9452 0.9462 0.9471
3124.713789 0.9476 0.9480 0.9480 0.9483 0.9498
3129.162804 0.9511 0.9516 0.9522 0.9532 0.9540
3133.611819 0.9540 0.9540 0.9540 0.9541 0.9546
3138.060833 0.9550 0.9550 0.9550 0.9550 0.9552
3142.509848 0.9562 0.9570 0.9570 0.9570 0.9570
3146.958863 0.9570 0.9570 0.9570 0.9570 0.9570
3151.407877 0.9570 0.9570 0.9570 0.9567 0.9557
3155.856892 0.9550 0.9550 0.9550 0.9550 0.9549
3160.305907 0.9544 0.9540 0.9540 0.9540 0.9540
3164.754921 0.9541 0.9546 0.9550 0.9550 0.9550
3169.203936 0.9550 0.9550 0.9550 0.9550 0.9550
3173.652951 0.9548 0.9543 0.9540 0.9540 0.9537
3178.101965 0.9527 0.9520 0.9520 0.9520 0.9520
3182.550980 0.9520 0.9520 0.9520 0.9520 0.9520
3186.999994 0.9520 0.9523 0.9534 0.9542 0.9547
3191.449009 0.9554 0.9564 0.9570 0.9570 0.9572
3195.898024 0.9577 0.9582 0.9587 0.9594 0.9604
3200.347038 0.9606 0.9596 0.9594 0.9604 0.9610
3204.796053 0.9610 0.9610 0.9610 0.9612 0.9617
3209.245068 0.9626 0.9641 0.9652 0.9657 0.9660
3213.694082 0.9660 0.9664 0.9674 0.9680 0.9680
3218.143097 0.9682 0.9687 0.9690 0.9690 0.9690
3222.592112 0.9690 0.9692 0.9697 0.9700 0.9700
3227.041126 0.9700 0.9700 0.9700 0.9700 0.9700
3231.490141 0.9700 0.9700 0.9700 0.9700 0.9700
3235.939156 0.9700 0.9700 0.9700 0.9700 0.9700
3240.388170 0.9700 0.9705 0.9715 0.9720 0.9720
3244.837185 0.9720 0.9720 0.9723 0.9728 0.9730
3249.286200 0.9730 0.9730 0.9730 0.9735 0.9745
3253.735214 0.9750 0.9750 0.9750 0.9750 0.9753
3258.184229 0.9758 0.9760 0.9760 0.9760 0.9760
3262.633244 0.9760 0.9760 0.9760 0.9760 0.9760
3267.082258 0.9760 0.9763 0.9768 0.9770 0.9770
3271.531273 0.9770 0.9770 0.9770 0.9770 0.9770
3275.980287 0.9770 0.9770 0.9770 0.9770 0.9770
3280.429302 0.9770 0.9770 0.9770 0.9770 0.9776
3284.878317 0.9786 0.9790 0.9790 0.9790 0.9790
3289.327331 0.9790 0.9790 0.9790 0.9790 0.9793
3293.776346 0.9798 0.9797 0.9792 0.9790 0.9790
3298.225361 0.9793 0.9798 0.9800 0.9800 0.9803
3302.674375 0.9808 0.9810 0.9810 0.9817 0.9827
3307.123390 0.9830 0.9830 0.9830 0.9830 0.9830
3311.572405 0.9830 0.9830 0.9830 0.9830 0.9830
3316.021419 0.9830 0.9830 0.9830 0.9830 0.9830
3320.470434 0.9830 0.9834 0.9839 0.9840 0.9840
3324.919449 0.9840 0.9840 0.9840 0.9840 0.9840
3329.368463 0.9840 0.9840 0.9840 0.9840 0.9840
3333.817478 0.9840 0.9840 0.9840 0.9840 0.9840
3338.266493 0.9840 0.9840 0.9840 0.9840 0.9840
3342.715507 0.9840 0.9840 0.9840 0.9840 0.9840
3347.164522 0.9840 0.9840 0.9840 0.9840 0.9840
3351.613536 0.9840 0.9840 0.9848 0.9858 0.9860
3356.062551 0.9860 0.9860 0.9860 0.9864 0.9869
3360.511566 0.9870 0.9870 0.9870 0.9870 0.9870
3364.960580 0.9870 0.9870 0.9870 0.9870 0.9870
3369.409595 0.9870 0.9870 0.9870 0.9870 0.9870
3373.858610 0.9870 0.9870 0.9870 0.9870 0.9870
3378.307624 0.9866 0.9861 0.9860 0.9860 0.9860
3382.756639 0.9860 0.9851 0.9841 0.9840 0.9840
3387.205654 0.9840 0.9840 0.9840 0.9840 0.9840
3391.654668 0.9840 0.9835 0.9830 0.9830 0.9830
3396.103683 0.9830 0.9830 0.9821 0.9811 0.9810
3400.552698 0.9810 0.9810 0.9810 0.9805 0.9800
3405.001712 0.9800 0.9800 0.9800 0.9800 0.9800
3409.450727 0.9800 0.9800 0.9800 0.9795 0.9790
3413.899742 0.9790 0.9790 0.9790 0.9790 0.9790
3418.348756 0.9790 0.9790 0.9790 0.9790 0.9790
3422.797771 0.9790 0.9790 0.9790 0.9790 0.9795
3427.246786 0.9800 0.9800 0.9800 0.9800 0.9800
3431.695800 0.9805 0.9810 0.9810 0.9810 0.9810
3436.144815 0.9810 0.9821 0.9830 0.9830 0.9830
3440.593829 0.9830 0.9830 0.9830 0.9830 0.9830
3445.042844 0.9830 0.9830 0.9830 0.9830 0.9830
3449.491859 0.9830 0.9829 0.9819 0.9810 0.9810
3453.940873 0.9810 0.9810 0.9809 0.9804 0.9800
3458.389888 0.9800 0.9800 0.9800 0.9799 0.9794
3462.838903 0.9790 0.9790 0.9790 0.9790 0.9790
3467.287917 0.9790 0.9789 0.9779 0.9770 0.9770
3471.736932 0.9770 0.9770 0.9770 0.9770 0.9772
3476.185947 0.9782 0.9790 0.9790 0.9790 0.9790
3480.634961 0.9790 0.9790 0.9791 0.9796 0.9800
3485.083976 0.9800 0.9800 0.9800 0.9801 0.9806
3489.532991 0.9810 0.9810 0.9812 0.9822 0.9831
3493.982005 0.9836 0.9840 0.9840 0.9842 0.9852
3498.431020 0.9860 0.9860 0.9860 0.9860 0.9861
3502.880035 0.9866 0.9871 0.9876 0.9880 0.9880
3507.329049 0.9880 0.9880 0.9880 0.9880 0.9880
3511.778064 0.9880 0.9880 0.9880 0.9880 0.9880
3516.227078 0.9880 0.9880 0.9880 0.9880 0.9880
3520.676093 0.9880 0.9880 0.9880 0.9883 0.9893
3525.125108 0.9900 0.9900 0.9897 0.9887 0.9880
3529.574122 0.9880 0.9880 0.9880 0.9880 0.9880
3534.023137 0.9880 0.9880 0.9878 0.9873 0.9870
3538.472152 0.9870 0.9870 0.9870 0.9868 0.9863
3542.921166 0.9860 0.9860 0.9856 0.9846 0.9838
3547.370181 0.9833 0.9830 0.9830 0.9826 0.9816
3551.819196 0.9808 0.9803 0.9800 0.9800 0.9800
3556.268210 0.9800 0.9802 0.9807 0.9814 0.9824
3560.717225 0.9830 0.9830 0.9832 0.9837 0.9844
3565.166240 0.9854 0.9860 0.9860 0.9862 0.9867
3569.615254 0.9870 0.9870 0.9870 0.9870 0.9870
3574.064269 0.9870 0.9870 0.9870 0.9870 0.9870
3578.513284 0.9870 0.9870 0.9868 0.9863 0.9860
3582.962298 0.9860 0.9855 0.9845 0.9840 0.9840
3587.411313 0.9838 0.9833 0.9830 0.9830 0.9820
3591.860328 0.9800 0.9783 0.9768 0.9753 0.9738
3596.309342 0.9723 0.9707 0.9695 0.9685 0.9672
3600.758357 0.9657 0.9650 0.9650 0.9645 0.9635
3605.207371 0.9617 0.9592 0.9569 0.9549 0.9529
3609.656386 0.9509 0.9468 0.9408 0.9377 0.9372
3614.105401 0.9351 0.9315 0.9277 0.9237 0.9183
3618.554415 0.9118 0.9059 0.9004 0.8949 0.8893
3623.003430 0.8856 0.8831 0.8782 0.8717 0.8641
3627.452445 0.8555 0.8467 0.8377 0.8284 0.8189
3631.901459 0.8093 0.7997 0.7899 0.7799 0.7711
3636.350474 0.7631 0.7557 0.7487 0.7370 0.7225
3640.799489 0.7054 0.6869 0.6765 0.6710 0.6649
3645.248503 0.6584 0.6503 0.6413 0.6319 0.6224
3649.697518 0.6132 0.6041 0.5960 0.5885 0.5820
3654.146533 0.5760 0.5673 0.5573 0.5533 0.5523
3658.595547 0.5520 0.5520 0.5527 0.5537 0.5584
3663.044562 0.5649 0.5701 0.5746 0.5777 0.5802
3667.493577 0.5862 0.5938 0.6078 0.6243 0.6362
3671.942591 0.6462 0.6537 0.6602 0.6663 0.6723
3676.391606 0.6787 0.6852 0.7001 0.7181 0.7318
3680.840621 0.7438 0.7547 0.7652 0.7761 0.7871
3685.289635 0.8031 0.8208 0.8441 0.8691 0.8876
3689.738650 0.9042 0.9122 0.9177 0.9260 0.9350
3694.187664 0.9386 0.9406 0.9437 0.9472 0.9523
3698.636679 0.9578 0.9641 0.9706 0.9748 0.9783
3703.085694 0.9810 0.9835 0.9852 0.9867 0.9870
3707.534708 0.9870 0.9874 0.9879 0.9880 0.9880
3711.983723 0.9880 0.9880 0.9880 0.9880 0.9880
3716.432738 0.9880 0.9888 0.9898 0.9900 0.9900
3720.881752 0.9900 0.9900 0.9900 0.9900 0.9900
3725.330767 0.9900 0.9904 0.9909 0.9910 0.9910
3729.779782 0.9910 0.9910 0.9910 0.9910 0.9919
3734.228796 0.9929 0.9930 0.9930 0.9934 0.9939
3738.677811 0.9940 0.9940 0.9940 0.9940 0.9945
3743.126826 0.9950 0.9950 0.9950 0.9950 0.9950
3747.575840 0.9950 0.9950 0.9950 0.9950 0.9950
3752.024855 0.9950 0.9950 0.9950 0.9950 0.9950
3756.473870 0.9945 0.9940 0.9940 0.9940 0.9940
3760.922884 0.9940 0.9940 0.9940 0.9940 0.9940
3765.371899 0.9935 0.9930 0.9930 0.9930 0.9930
3769.820913 0.9930 0.9930 0.9930 0.9920 0.9910
3774.269928 0.9910 0.9910 0.9910 0.9910 0.9910
3778.718943 0.9910 0.9910 0.9910 0.9910 0.9910
3783.167957 0.9905 0.9900 0.9900 0.9900 0.9900
3787.616972 0.9900 0.9900 0.9900 0.9900 0.9900
3792.065987 0.9900
##END=
