##TITLE=n-BUTANOL
##JCAMP-DX=4.24
##DATA TYPE=INFRARED SPECTRUM
##CLASS=COBLENTZ III
##ORIGIN=DOW CORNING CORP.
##OWNER=COBLENTZ SOCIETY
Collection (C) 2018 copyright by the U.S. Secretary of Commerce
on behalf of the United States of America. All rights reserved.
##DATE=1966/02/03
##NAMES=1-butanol
##CAS REGISTRY NO=71-36-3
##MOLFORM=C4 H10 O
##SOURCE REFERENCE=COBLENTZ NO. 4807
##$NIST SOURCE=COBLENTZ
##$NIST IMAGE=cob4807
##SPECTROMETER/DATA SYSTEM=PERKIN-ELMER 521 (GRATING)
##INSTRUMENT PARAMETERS=FILTERS AT 3150, 2500, 2000, 1150, 700, 410; GRATING CHANGES AT 2000, 630 CM^-^1
##STATE=SOLUTION (10% IN CCl4 FOR 3800-1300, 10% IN CS2 FOR 1300-650, 10% IN CCl4 FOR 650-240 CM^-^1) VERSUS SOLVENT
##PATH LENGTH=0.012, 0.012, AND 0.010 CM (CsBr CELL)
##SAMPLING PROCEDURE=TRANSMISSION
##RESOLUTION=4
##DATA PROCESSING=DIGITIZED BY NIST FROM HARD COPY (FROM TWO SEGMENTS)
##XUNITS=1/CM
##YUNITS=TRANSMITTANCE
##XFACTOR=1.000000
##YFACTOR=1
##DELTAX=0.985761
##FIRSTX=235.487
##LASTX=3793.1
##FIRSTY=0.651
##MAXX=3793.1
##MINX=235.487
##MAXY=0.91
##MINY=0
##NPOINTS=3610
##XYDATA=(X++(Y..Y))
235.487000 0.6510 0.6510 0.6510 0.6510 0.6490
240.415807 0.6490 0.6490 0.6490 0.6510 0.6510
245.344615 0.6520 0.6520 0.6520 0.6520 0.6530
250.273422 0.6530 0.6550 0.6550 0.6560 0.6560
255.202229 0.6570 0.6570 0.6590 0.6600 0.6610
260.131036 0.6630 0.6640 0.6650 0.6650 0.6680
265.059844 0.6680 0.6690 0.6690 0.6710 0.6720
269.988651 0.6750 0.6750 0.6760 0.6770 0.6790
274.917458 0.6800 0.6810 0.6810 0.6830 0.6830
279.846265 0.6850 0.6870 0.6880 0.6880 0.6910
284.775073 0.6920 0.6920 0.6930 0.6950 0.6960
289.703880 0.7020 0.7020 0.7040 0.7070 0.7080
294.632687 0.7120 0.7180 0.7190 0.7220 0.7270
299.561494 0.7380 0.7400 0.7420 0.7420 0.7420
304.490302 0.7430 0.7430 0.7440 0.7440 0.7440
309.419109 0.7440 0.7440 0.7440 0.7440 0.7460
314.347916 0.7460 0.7480 0.7500 0.7530 0.7540
319.276723 0.7580 0.7620 0.7630 0.7630 0.7650
324.205531 0.7650 0.7650 0.7650 0.7630 0.7630
329.134338 0.7620 0.7620 0.7610 0.7610 0.7650
334.063145 0.7660 0.7670 0.7670 0.7660 0.7660
338.991953 0.7650 0.7620 0.7620 0.7610 0.7610
343.920760 0.7610 0.7610 0.7610 0.7610 0.7610
348.849567 0.7610 0.7610 0.7590 0.7590 0.7590
353.778374 0.7590 0.7590 0.7610 0.7610 0.7610
358.707182 0.7610 0.7610 0.7610 0.7620 0.7620
363.635989 0.7630 0.7650 0.7700 0.7730 0.7750
368.564796 0.7770 0.7770 0.7780 0.7780 0.7790
373.493603 0.7820 0.7830 0.7850 0.7850 0.7870
378.422411 0.7870 0.7890 0.7900 0.7910 0.7910
383.351218 0.7910 0.7910 0.7900 0.7900 0.7860
388.280025 0.7830 0.7810 0.7780 0.7750 0.7730
393.208832 0.7710 0.7690 0.7660 0.7650 0.7630
398.137640 0.7620 0.7610 0.7610 0.7610 0.7610
403.066447 0.7620 0.7630 0.7630 0.7650 0.7660
407.995254 0.7690 0.7690 0.7690 0.7670 0.7670
412.924061 0.7660 0.7650 0.7650 0.7650 0.7660
417.852869 0.7660 0.7650 0.7620 0.7620 0.7610
422.781676 0.7610 0.7590 0.7570 0.7530 0.7510
427.710483 0.7510 0.7500 0.7480 0.7460 0.7440
432.639291 0.7430 0.7420 0.7400 0.7340 0.7300
437.568098 0.7280 0.7270 0.7230 0.7140 0.7110
442.496905 0.7070 0.6970 0.6930 0.6910 0.6880
447.425712 0.6850 0.6830 0.6800 0.6790 0.6770
452.354520 0.6770 0.6760 0.6760 0.6760 0.6770
457.283327 0.6800 0.6830 0.6840 0.6870 0.6880
462.212134 0.6910 0.6930 0.6930 0.6950 0.6950
467.140941 0.6960 0.6960 0.6950 0.6950 0.6930
472.069749 0.6920 0.6910 0.6890 0.6880 0.6870
476.998556 0.6850 0.6830 0.6810 0.6800 0.6770
481.927363 0.6750 0.6720 0.6690 0.6680 0.6680
486.856170 0.6670 0.6670 0.6650 0.6650 0.6650
491.784978 0.6650 0.6650 0.6650 0.6640 0.6640
496.713785 0.6630 0.6610 0.6610 0.6600 0.6570
501.642592 0.6520 0.6480 0.6460 0.6450 0.6410
506.571399 0.6320 0.6290 0.6250 0.6210 0.6170
511.500207 0.6160 0.6140 0.6160 0.6170 0.6180
516.429014 0.6210 0.6240 0.6260 0.6280 0.6330
521.357821 0.6370 0.6400 0.6440 0.6460 0.6480
526.286628 0.6480 0.6490 0.6490 0.6490 0.6490
531.215436 0.6480 0.6480 0.6480 0.6460 0.6460
536.144243 0.6450 0.6440 0.6440 0.6420 0.6410
541.073050 0.6410 0.6400 0.6380 0.6360 0.6360
546.001858 0.6340 0.6340 0.6330 0.6330 0.6320
550.930665 0.6320 0.6300 0.6290 0.6260 0.6250
555.859472 0.6250 0.6220 0.6210 0.6200 0.6170
560.788279 0.6170 0.6160 0.6160 0.6140 0.6130
565.717087 0.6120 0.6090 0.6090 0.6090 0.6080
570.645894 0.6050 0.6040 0.6040 0.6040 0.6020
575.574701 0.6010 0.6000 0.5980 0.5970 0.5940
580.503508 0.5940 0.5910 0.5910 0.5900 0.5900
585.432316 0.5890 0.5870 0.5870 0.5860 0.5860
590.361123 0.5850 0.5830 0.5790 0.5780 0.5780
595.289930 0.5770 0.5770 0.5770 0.5740 0.5730
600.218737 0.5700 0.5690 0.5670 0.5670 0.5660
605.147545 0.5650 0.5650 0.5630 0.5630 0.5620
610.076352 0.5620 0.5590 0.5580 0.5580 0.5570
615.005159 0.5550 0.5530 0.5530 0.5530 0.5510
619.933966 0.5500 0.5480 0.5480 0.5480 0.5470
624.862774 0.5470 0.5440 0.5430 0.5430 0.5400
629.791581 0.5390 0.5380 0.5380 0.5380 0.5360
634.720388 0.5360 0.5360 0.5350 0.5350 0.5350
639.649196 0.5350 0.5320 0.5320 0.5320 0.5300
644.578003 0.5300 0.5300 0.5300 0.5280 0.5280
649.506810 0.5280 0.5270 0.5270 0.5270 0.5270
654.435617 0.5270 0.5270 0.5270 0.5280 0.5280
659.364425 0.5300 0.5300 0.5300 0.5310 0.5310
664.293232 0.5320 0.5340 0.5350 0.5360 0.5380
669.222039 0.5390 0.5400 0.5400 0.5430 0.5440
674.150846 0.5460 0.5470 0.5480 0.5500 0.5500
679.079654 0.5510 0.5530 0.5530 0.5540 0.5540
684.008461 0.5540 0.5550 0.5550 0.5550 0.5570
688.937268 0.5570 0.5610 0.5620 0.5620 0.5630
693.866075 0.5630 0.5630 0.5650 0.5660 0.5700
698.794883 0.5730 0.5730 0.5750 0.5770 0.5780
703.723690 0.5790 0.5790 0.5810 0.5820 0.5820
708.652497 0.5860 0.5890 0.5900 0.5940 0.5950
713.581304 0.5950 0.5950 0.5970 0.5970 0.5970
718.510112 0.5970 0.5950 0.5950 0.5950 0.5950
723.438919 0.5940 0.5940 0.5940 0.5930 0.5930
728.367726 0.5930 0.5910 0.5870 0.5780 0.5750
733.296534 0.5431 0.5340 0.5260 0.5151 0.5120
738.225341 0.5120 0.5150 0.5260 0.5390 0.5420
743.154148 0.5480 0.5570 0.5630 0.5729 0.5780
748.082955 0.5810 0.5830 0.5860 0.5910 0.6010
753.011763 0.6040 0.6100 0.6200 0.6220 0.6329
757.940570 0.6400 0.6440 0.6460 0.6510 0.6590
762.869377 0.6600 0.6610 0.6640 0.6690 0.6710
767.798184 0.6730 0.6760 0.6790 0.6810 0.6850
772.726992 0.6870 0.6870 0.6880 0.6890 0.6930
777.655799 0.6950 0.6960 0.6970 0.6970 0.6990
782.584606 0.7000 0.7020 0.7020 0.7030 0.7040
787.513413 0.7060 0.7060 0.7070 0.7100 0.7110
792.442221 0.7140 0.7150 0.7160 0.7180 0.7180
797.371028 0.7190 0.7190 0.7190 0.7180 0.7160
802.299835 0.7150 0.7140 0.7120 0.7110 0.7100
807.228642 0.7080 0.7080 0.7100 0.7100 0.7110
812.157450 0.7180 0.7200 0.7300 0.7310 0.7320
817.086257 0.7320 0.7320 0.7310 0.7300 0.7300
822.015064 0.7280 0.7260 0.7220 0.7220 0.7200
826.943872 0.7160 0.7140 0.7120 0.7110 0.7110
831.872679 0.7100 0.7070 0.7030 0.6990 0.6960
836.801486 0.6910 0.6640 0.6600 0.6321 0.6210
841.730293 0.5981 0.5283 0.4812 0.4681 0.4600
846.659101 0.4600 0.4730 0.4840 0.5060 0.5200
851.587908 0.5439 0.5689 0.6138 0.6289 0.6459
856.516715 0.6640 0.6810 0.6990 0.7070 0.7190
861.445522 0.7280 0.7380 0.7440 0.7500 0.7540
866.374330 0.7570 0.7580 0.7590 0.7590 0.7590
871.303137 0.7580 0.7570 0.7570 0.7550 0.7550
876.231944 0.7540 0.7550 0.7580 0.7620 0.7660
881.160751 0.7670 0.7690 0.7700 0.7700 0.7700
886.089559 0.7690 0.7670 0.7660 0.7660 0.7650
891.018366 0.7610 0.7580 0.7510 0.7440 0.7360
895.947173 0.7260 0.7100 0.6910 0.6720 0.6530
900.875980 0.6530 0.6789 0.6999 0.7219 0.7300
905.804788 0.7380 0.7460 0.7540 0.7630 0.7710
910.733595 0.7750 0.7770 0.7780 0.7790 0.7820
915.662402 0.7830 0.7850 0.7850 0.7850 0.7820
920.591209 0.7810 0.7780 0.7710 0.7670 0.7630
925.520017 0.7610 0.7570 0.7470 0.7430 0.7390
930.448824 0.7260 0.7150 0.7001 0.6930 0.6801
935.377631 0.6520 0.6410 0.6180 0.5851 0.5740
940.306439 0.5301 0.5081 0.5000 0.4910 0.4791
945.235246 0.4520 0.4260 0.3980 0.3790 0.3590
950.164053 0.3381 0.3191 0.3190 0.3240 0.3479
955.092860 0.3700 0.3810 0.4090 0.4419 0.4480
960.021668 0.4679 0.4849 0.4880 0.4890 0.4930
964.950475 0.5080 0.5260 0.5440 0.5590 0.5730
969.879282 0.5860 0.6049 0.6199 0.6210 0.6220
974.808089 0.6210 0.6180 0.6120 0.5970 0.5860
979.736897 0.5730 0.5441 0.5221 0.5081 0.4911
984.665704 0.4710 0.4480 0.4320 0.4130 0.3931
989.594511 0.3751 0.3750 0.4059 0.4169 0.4220
994.523318 0.4480 0.5059 0.5070 0.5070 0.5060
999.452126 0.4930 0.4671 0.4342 0.3853 0.3711
1004.380933 0.3540 0.3380 0.3200 0.3040 0.2870
1009.309740 0.2850 0.2870 0.3099 0.3190 0.3359
1014.238547 0.3530 0.3550 0.3530 0.3440 0.3390
1019.167355 0.3191 0.3070 0.2791 0.2372 0.2082
1024.096162 0.1830 0.1570 0.1300 0.1040 0.1020
1029.024969 0.1040 0.1150 0.1339 0.1340 0.1300
1033.953777 0.1260 0.1220 0.1180 0.1140 0.1100
1038.882584 0.1060 0.1040 0.1020 0.1020 0.1000
1043.811391 0.1020 0.1030 0.1070 0.1160 0.1300
1048.740198 0.1469 0.1649 0.1769 0.1869 0.1950
1053.669006 0.1900 0.1780 0.1530 0.1400 0.1280
1058.597813 0.1260 0.1200 0.1100 0.1040 0.0960
1063.526620 0.0790 0.0710 0.0610 0.0550 0.0520
1068.455427 0.0510 0.0520 0.0530 0.0570 0.0630
1073.384235 0.0800 0.0960 0.1100 0.1230 0.1240
1078.313042 0.1459 0.1659 0.1670 0.2596 0.2630
1083.241849 0.2890 0.3160 0.3400 0.3899 0.4329
1088.170656 0.4370 0.4490 0.4550 0.4600 0.4610
1093.099464 0.4600 0.4590 0.4550 0.4530 0.4420
1098.028271 0.4380 0.4330 0.4240 0.4180 0.4130
1102.957078 0.4090 0.3910 0.3830 0.3780 0.3730
1107.885885 0.3690 0.3650 0.3610 0.3610 0.3650
1112.814693 0.3700 0.3980 0.4160 0.4330 0.4510
1117.743500 0.4679 0.4829 0.5159 0.5399 0.5529
1122.672307 0.5630 0.5730 0.5750 0.5900 0.6050
1127.601115 0.6170 0.6250 0.6260 0.6340 0.6380
1132.529922 0.6420 0.6440 0.6460 0.6480 0.6510
1137.458729 0.6650 0.6799 0.6850 0.7019 0.7070
1142.387536 0.7110 0.7120 0.7180 0.7240 0.7300
1147.316344 0.7400 0.7420 0.7440 0.7470 0.7500
1152.245151 0.7570 0.7580 0.7590 0.7590 0.7610
1157.173958 0.7610 0.7620 0.7620 0.7620 0.7620
1162.102765 0.7620 0.7620 0.7610 0.7610 0.7590
1167.031573 0.7590 0.7580 0.7580 0.7550 0.7530
1171.960380 0.7510 0.7500 0.7460 0.7430 0.7400
1176.889187 0.7360 0.7340 0.7320 0.7300 0.7270
1181.817994 0.7260 0.7220 0.7180 0.7100 0.7070
1186.746802 0.7000 0.6930 0.6920 0.6890 0.6761
1191.675609 0.6720 0.6560 0.6490 0.6480 0.6440
1196.604416 0.6330 0.6290 0.6171 0.6021 0.6000
1201.533223 0.5970 0.5940 0.5910 0.5890 0.5860
1206.462031 0.5850 0.5820 0.5810 0.5790 0.5770
1211.390838 0.5750 0.5740 0.5740 0.5750 0.5770
1216.319645 0.5850 0.5900 0.6039 0.6219 0.6240
1221.248453 0.6290 0.6330 0.6380 0.6420 0.6440
1226.177260 0.6450 0.6460 0.6460 0.6480 0.6480
1231.106067 0.6480 0.6460 0.6460 0.6450 0.6440
1236.034874 0.6420 0.6370 0.6320 0.6290 0.6290
1240.963682 0.6180 0.6140 0.6130 0.6120 0.6120
1245.892489 0.6120 0.6120 0.6120 0.6130 0.6160
1250.821296 0.6170 0.6180 0.6200 0.6220 0.6250
1255.750103 0.6280 0.6300 0.6320 0.6340 0.6360
1260.678911 0.6370 0.6400 0.6410 0.6420 0.6420
1265.607718 0.6420 0.6410 0.6410 0.6400 0.6340
1270.536525 0.6300 0.6280 0.6250 0.6210 0.6180
1275.465332 0.6140 0.6120 0.6080 0.6050 0.6010
1280.394140 0.5980 0.5940 0.5930 0.5910 0.5900
1285.322947 0.5870 0.5860 0.5830 0.5810 0.5790
1290.251754 0.5780 0.5770 0.5750 0.5740 0.5730
1295.180561 0.5710 0.5700 0.5690 0.5670 0.5660
1300.109369 0.5650 0.5630 0.5620 0.5610 0.5590
1305.038176 0.5580 0.5570 0.5550 0.5540 0.5530
1309.966983 0.5510 0.5510 0.5480 0.5470 0.5460
1314.895791 0.5440 0.5430 0.5420 0.5400 0.5390
1319.824598 0.5380 0.5360 0.5300 0.5260 0.5240
1324.753405 0.5230 0.5230 0.5220 0.5190 0.5180
1329.682212 0.5150 0.5120 0.5100 0.5080 0.5060
1334.611020 0.5040 0.5040 0.5040 0.5060 0.5080
1339.539827 0.5140 0.5160 0.5190 0.5220 0.5230
1344.468634 0.5230 0.5240 0.5240 0.5240 0.5240
1349.397441 0.5230 0.5230 0.5230 0.5200 0.5190
1354.326249 0.5180 0.5160 0.5120 0.5060 0.5040
1359.255056 0.5030 0.5000 0.4920 0.4810 0.4790
1364.183863 0.4770 0.4730 0.4650 0.4560 0.4550
1369.112670 0.4490 0.4340 0.4120 0.3861 0.3700
1374.041478 0.3381 0.3181 0.2951 0.2721 0.2720
1378.970285 0.2960 0.3180 0.3380 0.3590 0.3810
1383.899092 0.3970 0.4060 0.4090 0.4100 0.4170
1388.827899 0.4180 0.4210 0.4280 0.4370 0.4400
1393.756707 0.4410 0.4440 0.4450 0.4450 0.4450
1398.685514 0.4460 0.4460 0.4460 0.4460 0.4460
1403.614321 0.4480 0.4480 0.4480 0.4490 0.4490
1408.543128 0.4490 0.4510 0.4520 0.4530 0.4530
1413.471936 0.4550 0.4560 0.4570 0.4570 0.4570
1418.400743 0.4570 0.4560 0.4550 0.4520 0.4480
1423.329550 0.4460 0.4420 0.4370 0.4330 0.4290
1428.258358 0.4170 0.4060 0.3950 0.3830 0.3830
1433.187165 0.3970 0.4339 0.4450 0.4480 0.4480
1438.115972 0.4480 0.4460 0.4440 0.4360 0.4260
1443.044779 0.4160 0.4080 0.3851 0.3631 0.3540
1447.973587 0.3460 0.3240 0.3080 0.2920 0.2760
1452.902394 0.2601 0.2441 0.2321 0.2300 0.2320
1457.831201 0.2330 0.2340 0.2340 0.2320 0.2220
1462.760008 0.1891 0.1890 0.2000 0.2329 0.2688
1467.688816 0.3100 0.3300 0.3620 0.3830 0.3980
1472.617623 0.4010 0.4120 0.4279 0.4399 0.4450
1477.546430 0.4720 0.4910 0.5110 0.5310 0.5470
1482.475237 0.5629 0.5899 0.6119 0.6339 0.6479
1487.404045 0.6630 0.6710 0.6770 0.6850 0.6930
1492.332852 0.7100 0.7120 0.7200 0.7280 0.7350
1497.261659 0.7400 0.7430 0.7460 0.7470 0.7550
1502.190466 0.7620 0.7660 0.7670 0.7670 0.7690
1507.119274 0.7700 0.7750 0.7770 0.7780 0.7830
1512.048081 0.7890 0.7930 0.7930 0.7940 0.7970
1516.976888 0.8060 0.8080 0.8100 0.8130 0.8130
1521.905696 0.8160 0.8160 0.8160 0.8170 0.8170
1526.834503 0.8170 0.8180 0.8180 0.8180 0.8180
1531.763310 0.8200 0.8200 0.8180 0.8180 0.8180
1536.692117 0.8200 0.8220 0.8240 0.8260 0.8280
1541.620925 0.8240 0.8240 0.8250 0.8260 0.8280
1546.549732 0.8290 0.8290 0.8300 0.8290 0.8290
1551.478539 0.8290 0.8300 0.8320 0.8330 0.8330
1556.407346 0.8330 0.8340 0.8380 0.8410 0.8410
1561.336154 0.8380 0.8370 0.8370 0.8360 0.8360
1566.264961 0.8360 0.8370 0.8370 0.8380 0.8400
1571.193768 0.8410 0.8420 0.8420 0.8420 0.8440
1576.122575 0.8440 0.8420 0.8420 0.8450 0.8460
1581.051383 0.8490 0.8520 0.8530 0.8510 0.8510
1585.980190 0.8520 0.8530 0.8550 0.8550 0.8550
1590.908997 0.8550 0.8550 0.8560 0.8560 0.8570
1595.837804 0.8590 0.8600 0.8600 0.8600 0.8610
1600.766612 0.8610 0.8600 0.8610 0.8610 0.8610
1605.695419 0.8630 0.8630 0.8630 0.8630 0.8630
1610.624226 0.8640 0.8610 0.8610 0.8610 0.8630
1615.553034 0.8630 0.8630 0.8630 0.8640 0.8650
1620.481841 0.8670 0.8670 0.8650 0.8650 0.8650
1625.410648 0.8670 0.8680 0.8670 0.8680 0.8690
1630.339455 0.8690 0.8710 0.8710 0.8710 0.8710
1635.268263 0.8690 0.8680 0.8680 0.8720 0.8720
1640.197070 0.8730 0.8730 0.8710 0.8720 0.8720
1645.125877 0.8730 0.8730 0.8750 0.8750 0.8760
1650.054684 0.8760 0.8760 0.8760 0.8760 0.8750
1654.983492 0.8760 0.8760 0.8770 0.8760 0.8770
1659.912299 0.8770 0.8790 0.8800 0.8800 0.8800
1664.841106 0.8800 0.8790 0.8790 0.8790 0.8790
1669.769913 0.8790 0.8790 0.8810 0.8810 0.8800
1674.698721 0.8800 0.8800 0.8800 0.8800 0.8810
1679.627528 0.8830 0.8810 0.8830 0.8830 0.8830
1684.556335 0.8830 0.8840 0.8840 0.8840 0.8840
1689.485142 0.8840 0.8850 0.8870 0.8870 0.8870
1694.413950 0.8870 0.8880 0.8890 0.8880 0.8880
1699.342757 0.8880 0.8880 0.8880 0.8880 0.8880
1704.271564 0.8890 0.8890 0.8890 0.8890 0.8890
1709.200372 0.8890 0.8890 0.8890 0.8910 0.8910
1714.129179 0.8910 0.8910 0.8910 0.8910 0.8910
1719.057986 0.8910 0.8910 0.8920 0.8920 0.8920
1723.986793 0.8920 0.8930 0.8930 0.8950 0.8950
1728.915601 0.8950 0.8950 0.8950 0.8930 0.8930
1733.844408 0.8960 0.8960 0.8960 0.8970 0.8970
1738.773215 0.8950 0.8950 0.8930 0.8930 0.8950
1743.702022 0.8950 0.8970 0.8970 0.8990 0.9000
1748.630830 0.9000 0.9000 0.9020 0.9020 0.9000
1753.559637 0.9000 0.8990 0.8970 0.8990 0.8990
1758.488444 0.8990 0.8990 0.8990 0.8990 0.9000
1763.417251 0.9000 0.9000 0.9000 0.9000 0.9000
1768.346059 0.9000 0.9000 0.9000 0.9020 0.9020
1773.274866 0.9020 0.9020 0.9020 0.9030 0.9030
1778.203673 0.9030 0.9030 0.9030 0.9020 0.9000
1783.132480 0.9000 0.9000 0.8990 0.8990 0.9000
1788.061288 0.9000 0.9000 0.9020 0.9000 0.9030
1792.990095 0.9030 0.9040 0.9030 0.9030 0.9030
1797.918902 0.9030 0.9030 0.9040 0.9060 0.9040
1802.847709 0.9040 0.9040 0.9040 0.9040 0.9040
1807.776517 0.9040 0.9060 0.9030 0.9030 0.9040
1812.705324 0.9040 0.9040 0.9040 0.9040 0.9030
1817.634131 0.9030 0.9030 0.9030 0.9030 0.9060
1822.562939 0.9060 0.9060 0.9060 0.9060 0.9060
1827.491746 0.9040 0.9040 0.9040 0.9030 0.9040
1832.420553 0.9070 0.9070 0.9060 0.9060 0.9060
1837.349360 0.9070 0.9070 0.9070 0.9060 0.9040
1842.278168 0.9030 0.9030 0.9040 0.9060 0.9060
1847.206975 0.9060 0.9060 0.9060 0.9070 0.9070
1852.135782 0.9040 0.9040 0.9030 0.9030 0.9030
1857.064589 0.9030 0.9030 0.9030 0.9030 0.9040
1861.993397 0.9040 0.9040 0.9040 0.9040 0.9060
1866.922204 0.9060 0.9060 0.9060 0.9060 0.9070
1871.851011 0.9070 0.9070 0.9070 0.9070 0.9080
1876.779818 0.9080 0.9080 0.9080 0.9080 0.9100
1881.708626 0.9100 0.9100 0.9100 0.9100 0.9100
1886.637433 0.9100 0.9080 0.9080 0.9080 0.9080
1891.566240 0.9070 0.9070 0.9070 0.9060 0.9040
1896.495047 0.9040 0.9040 0.9030 0.9030 0.9030
1901.423855 0.9020 0.9020 0.9020 0.9000 0.9000
1906.352662 0.9000 0.9000 0.9000 0.9000 0.9000
1911.281469 0.9000 0.9000 0.9000 0.9000 0.9020
1916.210277 0.9020 0.9020 0.9020 0.9000 0.9000
1921.139084 0.9000 0.9000 0.9000 0.9000 0.9000
1926.067891 0.9000 0.9000 0.9000 0.9000 0.9020
1930.996698 0.9040 0.9080 0.9080 0.9070 0.9060
1935.925506 0.9040 0.9030 0.9030 0.9000 0.9000
1940.854313 0.9020 0.9020 0.9020 0.9020 0.9020
1945.783120 0.9030 0.9030 0.9030 0.9030 0.9030
1950.711927 0.9030 0.9030 0.9020 0.9000 0.9020
1955.640735 0.9020 0.9020 0.9020 0.9020 0.9000
1960.569542 0.9000 0.8970 0.8970 0.8970 0.8970
1965.498349 0.8960 0.8960 0.8960 0.8960 0.8960
1970.427156 0.8960 0.8960 0.8960 0.8970 0.8970
1975.355964 0.8970 0.8990 0.9000 0.8990 0.9000
1980.284771 0.9000 0.9020 0.9000 0.9020 0.9020
1985.213578 0.9020 0.9020 0.9020 0.9030 0.9030
1990.142385 0.9030 0.9030 0.9020 0.9020 0.9020
1995.071193 0.9000 0.9000 0.9000 0.8990 0.8970
2000.000000 0.8970 0.8965 0.8960 0.8960 0.8960
2004.928807 0.8955 0.8950 0.8940 0.8930 0.8920
2009.857615 0.8910 0.8900 0.8890 0.8890 0.8890
2014.786422 0.8885 0.8880 0.8880 0.8880 0.8875
2019.715229 0.8870 0.8870 0.8870 0.8860 0.8850
2024.644036 0.8850 0.8850 0.8850 0.8850 0.8850
2029.572844 0.8850 0.8850 0.8850 0.8850 0.8850
2034.501651 0.8850 0.8850 0.8850 0.8850 0.8860
2039.430458 0.8870 0.8870 0.8870 0.8875 0.8880
2044.359265 0.8885 0.8890 0.8890 0.8890 0.8900
2049.288073 0.8910 0.8910 0.8910 0.8915 0.8920
2054.216880 0.8925 0.8930 0.8930 0.8930 0.8945
2059.145687 0.8960 0.8960 0.8960 0.8945 0.8930
2064.074494 0.8930 0.8930 0.8930 0.8930 0.8930
2069.003302 0.8930 0.8930 0.8930 0.8930 0.8930
2073.932109 0.8940 0.8950 0.8950 0.8950 0.8950
2078.860916 0.8950 0.8950 0.8950 0.8955 0.8960
2083.789723 0.8960 0.8960 0.8955 0.8950 0.8940
2088.718531 0.8930 0.8925 0.8920 0.8920 0.8920
2093.647338 0.8925 0.8930 0.8930 0.8930 0.8940
2098.576145 0.8950 0.8940 0.8930 0.8940 0.8950
2103.504953 0.8955 0.8960 0.8960 0.8960 0.8960
2108.433760 0.8960 0.8960 0.8960 0.8960 0.8960
2113.362567 0.8960 0.8960 0.8960 0.8960 0.8960
2118.291374 0.8960 0.8960 0.8960 0.8960 0.8960
2123.220182 0.8960 0.8960 0.8960 0.8960 0.8960
2128.148989 0.8960 0.8960 0.8960 0.8960 0.8960
2133.077796 0.8960 0.8960 0.8960 0.8960 0.8960
2138.006603 0.8960 0.8960 0.8960 0.8955 0.8950
2142.935411 0.8950 0.8950 0.8950 0.8950 0.8940
2147.864218 0.8930 0.8930 0.8930 0.8920 0.8910
2152.793025 0.8895 0.8880 0.8875 0.8870 0.8870
2157.721832 0.8870 0.8870 0.8870 0.8870 0.8870
2162.650640 0.8860 0.8850 0.8850 0.8850 0.8845
2167.579447 0.8840 0.8840 0.8840 0.8845 0.8850
2172.508254 0.8850 0.8850 0.8850 0.8850 0.8850
2177.437061 0.8850 0.8850 0.8850 0.8860 0.8870
2182.365869 0.8875 0.8880 0.8880 0.8880 0.8880
2187.294676 0.8880 0.8875 0.8870 0.8870 0.8870
2192.223483 0.8875 0.8880 0.8885 0.8890 0.8890
2197.152291 0.8890 0.8900 0.8910 0.8910 0.8910
2202.081098 0.8910 0.8910 0.8910 0.8910 0.8920
2207.009905 0.8930 0.8940 0.8950 0.8950 0.8950
2211.938712 0.8955 0.8960 0.8960 0.8960 0.8960
2216.867520 0.8960 0.8960 0.8960 0.8960 0.8960
2221.796327 0.8960 0.8960 0.8960 0.8960 0.8955
2226.725134 0.8950 0.8950 0.8950 0.8950 0.8950
2231.653941 0.8935 0.8920 0.8920 0.8920 0.8905
2236.582749 0.8890 0.8885 0.8880 0.8880 0.8880
2241.511556 0.8875 0.8870 0.8870 0.8870 0.8875
2246.440363 0.8880 0.8880 0.8880 0.8880 0.8880
2251.369170 0.8885 0.8890 0.8890 0.8890 0.8890
2256.297978 0.8890 0.8890 0.8890 0.8890 0.8890
2261.226785 0.8890 0.8890 0.8890 0.8890 0.8890
2266.155592 0.8890 0.8890 0.8890 0.8890 0.8890
2271.084399 0.8890 0.8890 0.8890 0.8890 0.8890
2276.013207 0.8890 0.8890 0.8890 0.8890 0.8890
2280.942014 0.8885 0.8880 0.8880 0.8880 0.8880
2285.870821 0.8880 0.8880 0.8880 0.8875 0.8870
2290.799628 0.8870 0.8870 0.8870 0.8870 0.8870
2295.728436 0.8870 0.8870 0.8870 0.8870 0.8870
2300.657243 0.8870 0.8870 0.8870 0.8870 0.8870
2305.586050 0.8870 0.8870 0.8870 0.8870 0.8870
2310.514858 0.8860 0.8850 0.8850 0.8850 0.8850
2315.443665 0.8850 0.8850 0.8850 0.8850 0.8850
2320.372472 0.8845 0.8840 0.8840 0.8840 0.8840
2325.301279 0.8840 0.8840 0.8840 0.8840 0.8840
2330.230087 0.8835 0.8830 0.8830 0.8830 0.8820
2335.158894 0.8810 0.8810 0.8810 0.8810 0.8810
2340.087701 0.8810 0.8810 0.8820 0.8830 0.8830
2345.016508 0.8830 0.8830 0.8830 0.8820 0.8810
2349.945316 0.8800 0.8790 0.8780 0.8770 0.8770
2354.874123 0.8770 0.8770 0.8770 0.8765 0.8760
2359.802930 0.8760 0.8760 0.8760 0.8760 0.8755
2364.731737 0.8750 0.8750 0.8750 0.8750 0.8750
2369.660545 0.8750 0.8750 0.8740 0.8730 0.8725
2374.589352 0.8720 0.8715 0.8710 0.8700 0.8690
2379.518159 0.8690 0.8690 0.8685 0.8680 0.8680
2384.446966 0.8680 0.8675 0.8670 0.8670 0.8670
2389.375774 0.8660 0.8650 0.8650 0.8650 0.8645
2394.304581 0.8640 0.8640 0.8640 0.8635 0.8630
2399.233388 0.8630 0.8630 0.8620 0.8610 0.8610
2404.162196 0.8610 0.8605 0.8600 0.8605 0.8610
2409.091003 0.8610 0.8610 0.8610 0.8610 0.8610
2414.019810 0.8610 0.8610 0.8610 0.8610 0.8610
2418.948617 0.8600 0.8590 0.8590 0.8590 0.8590
2423.877425 0.8590 0.8590 0.8590 0.8595 0.8600
2428.806232 0.8600 0.8600 0.8605 0.8610 0.8605
2433.735039 0.8600 0.8600 0.8600 0.8600 0.8600
2438.663846 0.8595 0.8590 0.8595 0.8600 0.8595
2443.592654 0.8590 0.8590 0.8590 0.8580 0.8570
2448.521461 0.8570 0.8570 0.8570 0.8570 0.8570
2453.450268 0.8570 0.8570 0.8570 0.8565 0.8560
2458.379075 0.8555 0.8550 0.8540 0.8530 0.8525
2463.307883 0.8520 0.8520 0.8520 0.8520 0.8520
2468.236690 0.8515 0.8510 0.8510 0.8510 0.8515
2473.165497 0.8520 0.8525 0.8530 0.8530 0.8530
2478.094304 0.8530 0.8530 0.8530 0.8530 0.8530
2483.023112 0.8530 0.8525 0.8520 0.8520 0.8520
2487.951919 0.8515 0.8510 0.8500 0.8490 0.8475
2492.880726 0.8460 0.8435 0.8410 0.8405 0.8400
2497.809534 0.8400 0.8400 0.8390 0.8380 0.8380
2502.738341 0.8380 0.8375 0.8370 0.8370 0.8370
2507.667148 0.8365 0.8360 0.8360 0.8360 0.8360
2512.595955 0.8360 0.8350 0.8340 0.8335 0.8330
2517.524763 0.8330 0.8330 0.8325 0.8320 0.8310
2522.453570 0.8300 0.8295 0.8290 0.8285 0.8280
2527.382377 0.8265 0.8250 0.8250 0.8250 0.8245
2532.311184 0.8240 0.8230 0.8220 0.8220 0.8220
2537.239992 0.8210 0.8200 0.8190 0.8180 0.8175
2542.168799 0.8170 0.8165 0.8160 0.8160 0.8160
2547.097606 0.8160 0.8160 0.8150 0.8140 0.8140
2552.026413 0.8140 0.8140 0.8140 0.8140 0.8140
2556.955221 0.8140 0.8140 0.8140 0.8140 0.8135
2561.884028 0.8130 0.8130 0.8130 0.8125 0.8120
2566.812835 0.8120 0.8120 0.8110 0.8100 0.8090
2571.741642 0.8080 0.8070 0.8060 0.8060 0.8060
2576.670450 0.8060 0.8060 0.8060 0.8060 0.8070
2581.599257 0.8080 0.8090 0.8100 0.8100 0.8100
2586.528064 0.8100 0.8100 0.8100 0.8100 0.8095
2591.456872 0.8090 0.8090 0.8090 0.8090 0.8090
2596.385679 0.8090 0.8090 0.8090 0.8090 0.8085
2601.314486 0.8080 0.8080 0.8080 0.8080 0.8080
2606.243293 0.8070 0.8060 0.8060 0.8060 0.8055
2611.172101 0.8050 0.8035 0.8020 0.7985 0.7950
2616.100908 0.7950 0.7950 0.7925 0.7900 0.7880
2621.029715 0.7860 0.7855 0.7850 0.7850 0.7850
2625.958522 0.7850 0.7850 0.7840 0.7830 0.7830
2630.887330 0.7830 0.7830 0.7830 0.7830 0.7830
2635.816137 0.7825 0.7820 0.7820 0.7820 0.7815
2640.744944 0.7810 0.7800 0.7790 0.7765 0.7740
2645.673751 0.7725 0.7710 0.7681 0.7651 0.7630
2650.602559 0.7610 0.7595 0.7580 0.7575 0.7570
2655.531366 0.7550 0.7530 0.7530 0.7530 0.7530
2660.460173 0.7530 0.7520 0.7510 0.7510 0.7510
2665.388980 0.7510 0.7510 0.7510 0.7510 0.7510
2670.317788 0.7510 0.7505 0.7500 0.7485 0.7470
2675.246595 0.7470 0.7470 0.7465 0.7460 0.7460
2680.175402 0.7460 0.7450 0.7440 0.7430 0.7420
2685.104209 0.7420 0.7420 0.7405 0.7390 0.7390
2690.033017 0.7390 0.7390 0.7390 0.7390 0.7390
2694.961824 0.7375 0.7360 0.7360 0.7360 0.7335
2699.890631 0.7310 0.7285 0.7260 0.7225 0.7191
2704.819439 0.7170 0.7150 0.7130 0.7110 0.7095
2709.748246 0.7080 0.7070 0.7060 0.7025 0.6990
2714.677053 0.6955 0.6920 0.6905 0.6890 0.6885
2719.605860 0.6880 0.6845 0.6810 0.6780 0.6750
2724.534668 0.6730 0.6710 0.6671 0.6631 0.6600
2729.463475 0.6570 0.6565 0.6560 0.6560 0.6560
2734.392282 0.6560 0.6560 0.6565 0.6570 0.6570
2739.321089 0.6570 0.6580 0.6590 0.6590 0.6590
2744.249897 0.6595 0.6600 0.6600 0.6600 0.6600
2749.178704 0.6600 0.6595 0.6590 0.6580 0.6570
2754.107511 0.6565 0.6560 0.6555 0.6550 0.6550
2759.036318 0.6550 0.6540 0.6530 0.6520 0.6510
2763.965126 0.6495 0.6480 0.6470 0.6460 0.6435
2768.893933 0.6410 0.6375 0.6340 0.6335 0.6330
2773.822740 0.6315 0.6300 0.6295 0.6290 0.6270
2778.751547 0.6250 0.6235 0.6220 0.6190 0.6160
2783.680355 0.6081 0.6001 0.5985 0.5970 0.5935
2788.609162 0.5900 0.5885 0.5870 0.5845 0.5820
2793.537969 0.5800 0.5780 0.5740 0.5700 0.5660
2798.466777 0.5620 0.5576 0.5531 0.5456 0.5381
2803.395584 0.5321 0.5261 0.5211 0.5161 0.5130
2808.324391 0.5100 0.5060 0.5020 0.4950 0.4880
2813.253198 0.4835 0.4790 0.4750 0.4710 0.4695
2818.182006 0.4680 0.4581 0.4481 0.4445 0.4411
2823.110813 0.4272 0.4132 0.4071 0.4011 0.3956
2828.039620 0.3900 0.3805 0.3710 0.3630 0.3550
2832.968427 0.3485 0.3420 0.3271 0.3121 0.3036
2837.897235 0.2951 0.2792 0.2632 0.2502 0.2372
2842.826042 0.2252 0.2132 0.2086 0.2041 0.1971
2847.754849 0.1900 0.1865 0.1830 0.1765 0.1700
2852.683656 0.1606 0.1511 0.1232 0.0953 0.0668
2857.612464 0.0383 0.0370 0.0360 0.0301 0.0241
2862.541271 0.0191 0.0141 0.0130 0.0120 0.0110
2867.470078 0.0100 0.0110 0.0120 0.0160 0.0200
2872.398885 0.0240 0.0280 0.0359 0.0439 0.0480
2877.327693 0.0520 0.0560 0.0599 0.0620 0.0640
2882.256500 0.0684 0.0729 0.0740 0.0750 0.0760
2887.185307 0.0770 0.0770 0.0770 0.0765 0.0760
2892.114115 0.0740 0.0720 0.0685 0.0650 0.0630
2897.042922 0.0610 0.0590 0.0570 0.0550 0.0530
2901.971729 0.0510 0.0490 0.0475 0.0460 0.0450
2906.900536 0.0440 0.0410 0.0380 0.0375 0.0370
2911.829344 0.0355 0.0340 0.0320 0.0300 0.0275
2916.758151 0.0250 0.0166 0.0081 0.0060 0.0040
2921.686958 0.0030 0.0020 0.0020 0.0020 0.0020
2926.615765 0.0020 0.0030 0.0040 0.0040 0.0040
2931.544573 0.0045 0.0050 0.0055 0.0060 0.0070
2936.473380 0.0080 0.0085 0.0090 0.0095 0.0100
2941.402187 0.0100 0.0100 0.0110 0.0120 0.0120
2946.330994 0.0120 0.0120 0.0120 0.0105 0.0090
2951.259802 0.0075 0.0060 0.0050 0.0040 0.0025
2956.188609 0.0010 0.0005 0.0000 0.0000 0.0000
2961.117416 0.0005 0.0010 0.0044 0.0079 0.0120
2966.046223 0.0160 0.0200 0.0240 0.0280 0.0320
2970.975031 0.0390 0.0460 0.0629 0.0799 0.0968
2975.903838 0.1138 0.1298 0.1458 0.1854 0.2254
2980.832645 0.2506 0.2756 0.3035 0.3315 0.3434
2985.761453 0.3550 0.3740 0.3930 0.4109 0.4289
2990.690260 0.4404 0.4519 0.4614 0.4709 0.4779
2995.619067 0.4849 0.4944 0.5039 0.5168 0.5298
3000.547874 0.5359 0.5419 0.5474 0.5529 0.5594
3005.476682 0.5660 0.5715 0.5770 0.5800 0.5830
3010.405489 0.5870 0.5910 0.5965 0.6020 0.6060
3015.334296 0.6100 0.6140 0.6179 0.6195 0.6210
3020.263103 0.6254 0.6299 0.6339 0.6379 0.6390
3025.191911 0.6400 0.6425 0.6450 0.6470 0.6490
3030.120718 0.6500 0.6510 0.6515 0.6520 0.6540
3035.049525 0.6560 0.6575 0.6590 0.6595 0.6600
3039.978332 0.6605 0.6610 0.6620 0.6630 0.6635
3044.907140 0.6640 0.6645 0.6650 0.6650 0.6650
3049.835947 0.6660 0.6670 0.6670 0.6670 0.6670
3054.764754 0.6670 0.6660 0.6650 0.6650 0.6650
3059.693561 0.6650 0.6650 0.6650 0.6650 0.6640
3064.622369 0.6630 0.6630 0.6630 0.6620 0.6610
3069.551176 0.6610 0.6610 0.6605 0.6600 0.6595
3074.479983 0.6590 0.6575 0.6560 0.6540 0.6520
3079.408791 0.6505 0.6490 0.6475 0.6460 0.6460
3084.337598 0.6460 0.6435 0.6410 0.6395 0.6380
3089.266405 0.6375 0.6370 0.6355 0.6340 0.6335
3094.195212 0.6330 0.6325 0.6320 0.6310 0.6300
3099.124020 0.6295 0.6290 0.6270 0.6250 0.6225
3104.052827 0.6200 0.6190 0.6180 0.6175 0.6170
3108.981634 0.6155 0.6140 0.6090 0.6040 0.6010
3113.910441 0.5980 0.5965 0.5950 0.5950 0.5950
3118.839249 0.5930 0.5910 0.5871 0.5831 0.5800
3123.768056 0.5770 0.5760 0.5750 0.5750 0.5750
3128.696863 0.5740 0.5730 0.5710 0.5690 0.5680
3133.625670 0.5670 0.5645 0.5620 0.5546 0.5471
3138.554478 0.5426 0.5381 0.5370 0.5360 0.5315
3143.483285 0.5270 0.5265 0.5260 0.5245 0.5230
3148.412092 0.5185 0.5140 0.5085 0.5030 0.5025
3153.340899 0.5020 0.5005 0.4990 0.4921 0.4851
3158.269707 0.4825 0.4800 0.4785 0.4770 0.4725
3163.198514 0.4680 0.4645 0.4610 0.4585 0.4560
3168.127321 0.4540 0.4520 0.4490 0.4460 0.4420
3173.056128 0.4380 0.4340 0.4301 0.4280 0.4260
3177.984936 0.4201 0.4141 0.4096 0.4051 0.4025
3182.913743 0.4000 0.3985 0.3970 0.3920 0.3870
3187.842550 0.3850 0.3830 0.3810 0.3790 0.3731
3192.771358 0.3671 0.3630 0.3591 0.3580 0.3570
3197.700165 0.3526 0.3481 0.3451 0.3421 0.3366
3202.628972 0.3310 0.3270 0.3230 0.3195 0.3160
3207.557779 0.3130 0.3100 0.3060 0.3020 0.2990
3212.486587 0.2960 0.2935 0.2910 0.2871 0.2831
3217.415394 0.2791 0.2751 0.2696 0.2641 0.2600
3222.344201 0.2560 0.2535 0.2510 0.2495 0.2480
3227.273008 0.2430 0.2380 0.2335 0.2290 0.2250
3232.201816 0.2210 0.2185 0.2160 0.2125 0.2091
3237.130623 0.2085 0.2080 0.2041 0.2001 0.1950
3242.059430 0.1900 0.1875 0.1850 0.1840 0.1830
3246.988237 0.1800 0.1770 0.1720 0.1670 0.1665
3251.917045 0.1660 0.1655 0.1650 0.1615 0.1581
3256.845852 0.1531 0.1481 0.1470 0.1460 0.1410
3261.774659 0.1360 0.1330 0.1300 0.1285 0.1270
3266.703466 0.1235 0.1200 0.1190 0.1180 0.1160
3271.632274 0.1140 0.1125 0.1110 0.1095 0.1080
3276.561081 0.1070 0.1060 0.1016 0.0971 0.0960
3281.489888 0.0950 0.0935 0.0920 0.0905 0.0890
3286.418696 0.0880 0.0870 0.0855 0.0840 0.0825
3291.347503 0.0810 0.0800 0.0790 0.0780 0.0770
3296.276310 0.0765 0.0760 0.0755 0.0750 0.0740
3301.205117 0.0730 0.0725 0.0720 0.0700 0.0680
3306.133925 0.0675 0.0670 0.0670 0.0670 0.0660
3311.062732 0.0650 0.0650 0.0650 0.0645 0.0640
3315.991539 0.0640 0.0640 0.0635 0.0630 0.0630
3320.920346 0.0630 0.0630 0.0630 0.0630 0.0630
3325.849154 0.0620 0.0610 0.0610 0.0610 0.0610
3330.777961 0.0610 0.0605 0.0600 0.0600 0.0600
3335.706768 0.0600 0.0600 0.0600 0.0600 0.0605
3340.635575 0.0610 0.0610 0.0610 0.0610 0.0610
3345.564383 0.0610 0.0610 0.0610 0.0610 0.0620
3350.493190 0.0630 0.0630 0.0630 0.0630 0.0630
3355.421997 0.0635 0.0640 0.0645 0.0650 0.0660
3360.350804 0.0670 0.0675 0.0680 0.0685 0.0690
3365.279612 0.0700 0.0710 0.0715 0.0720 0.0725
3370.208419 0.0730 0.0740 0.0750 0.0755 0.0760
3375.137226 0.0765 0.0770 0.0780 0.0790 0.0800
3380.066034 0.0810 0.0820 0.0830 0.0835 0.0840
3384.994841 0.0865 0.0890 0.0905 0.0920 0.0935
3389.923648 0.0950 0.0955 0.0960 0.0975 0.0990
3394.852455 0.0995 0.1000 0.1010 0.1020 0.1025
3399.781263 0.1030 0.1050 0.1070 0.1085 0.1100
3404.710070 0.1105 0.1110 0.1125 0.1140 0.1145
3409.638877 0.1150 0.1165 0.1180 0.1205 0.1230
3414.567684 0.1235 0.1240 0.1250 0.1260 0.1270
3419.496492 0.1280 0.1295 0.1310 0.1330 0.1350
3424.425299 0.1385 0.1420 0.1420 0.1420 0.1445
3429.354106 0.1470 0.1490 0.1510 0.1530 0.1550
3434.282913 0.1560 0.1570 0.1575 0.1580 0.1625
3439.211721 0.1670 0.1680 0.1690 0.1720 0.1750
3444.140528 0.1760 0.1770 0.1790 0.1810 0.1815
3449.069335 0.1820 0.1855 0.1890 0.1895 0.1900
3453.998142 0.1925 0.1950 0.2004 0.2059 0.2070
3458.926950 0.2080 0.2090 0.2100 0.2150 0.2200
3463.855757 0.2210 0.2220 0.2240 0.2260 0.2319
3468.784564 0.2379 0.2400 0.2420 0.2430 0.2440
3473.713372 0.2465 0.2490 0.2539 0.2589 0.2595
3478.642179 0.2600 0.2660 0.2720 0.2755 0.2790
3483.570986 0.2835 0.2880 0.2905 0.2930 0.2975
3488.499793 0.3020 0.3069 0.3119 0.3150 0.3180
3493.428601 0.3200 0.3220 0.3259 0.3299 0.3330
3498.357408 0.3360 0.3415 0.3470 0.3520 0.3570
3503.286215 0.3620 0.3670 0.3705 0.3740 0.3804
3508.215022 0.3869 0.3919 0.3969 0.3975 0.3980
3513.143830 0.4069 0.4158 0.4219 0.4279 0.4290
3518.072637 0.4300 0.4395 0.4490 0.4530 0.4570
3523.001444 0.4660 0.4749 0.4800 0.4850 0.4890
3527.930251 0.4930 0.4974 0.5019 0.5084 0.5149
3532.859059 0.5248 0.5348 0.5355 0.5360 0.5375
3537.787866 0.5390 0.5460 0.5530 0.5590 0.5650
3542.716673 0.5739 0.5829 0.5870 0.5910 0.5974
3547.645480 0.6039 0.6070 0.6100 0.6169 0.6239
3552.574288 0.6284 0.6329 0.6394 0.6459 0.6495
3557.503095 0.6530 0.6580 0.6630 0.6690 0.6750
3562.431902 0.6840 0.6929 0.6945 0.6960 0.7010
3567.360709 0.7059 0.7109 0.7159 0.7209 0.7259
3572.289517 0.7309 0.7359 0.7380 0.7400 0.7410
3577.218324 0.7420 0.7430 0.7440 0.7450 0.7460
3582.147131 0.7485 0.7510 0.7520 0.7530 0.7535
3587.075939 0.7540 0.7540 0.7540 0.7535 0.7530
3592.004746 0.7520 0.7510 0.7505 0.7500 0.7450
3596.933553 0.7400 0.7335 0.7270 0.7225 0.7180
3601.862360 0.7145 0.7110 0.7031 0.6951 0.6821
3606.791168 0.6691 0.6621 0.6551 0.6496 0.6441
3611.719975 0.6283 0.6123 0.6027 0.5932 0.5776
3616.648782 0.5620 0.5540 0.5460 0.5405 0.5350
3621.577589 0.5345 0.5340 0.5340 0.5340 0.5345
3626.506397 0.5350 0.5394 0.5439 0.5470 0.5500
3631.435204 0.5525 0.5550 0.5697 0.5847 0.6048
3636.364011 0.6250 0.6370 0.6490 0.6824 0.7159
3641.292818 0.7319 0.7479 0.7664 0.7848 0.7895
3646.221626 0.7940 0.8029 0.8119 0.8169 0.8219
3651.150433 0.8259 0.8299 0.8310 0.8320 0.8345
3656.079240 0.8370 0.8390 0.8410 0.8435 0.8460
3661.008047 0.8485 0.8510 0.8510 0.8510 0.8515
3665.936855 0.8520 0.8525 0.8530 0.8545 0.8560
3670.865662 0.8580 0.8600 0.8600 0.8600 0.8615
3675.794469 0.8630 0.8640 0.8650 0.8670 0.8690
3680.723277 0.8690 0.8690 0.8700 0.8710 0.8710
3685.652084 0.8710 0.8735 0.8760 0.8765 0.8770
3690.580891 0.8780 0.8790 0.8790 0.8790 0.8795
3695.509698 0.8800 0.8800 0.8800 0.8800 0.8800
3700.438506 0.8805 0.8810 0.8810 0.8810 0.8810
3705.367313 0.8810 0.8805 0.8800 0.8800 0.8800
3710.296120 0.8805 0.8810 0.8825 0.8840 0.8840
3715.224927 0.8840 0.8845 0.8850 0.8850 0.8850
3720.153735 0.8860 0.8870 0.8870 0.8870 0.8875
3725.082542 0.8880 0.8880 0.8880 0.8880 0.8880
3730.011349 0.8875 0.8870 0.8860 0.8850 0.8850
3734.940156 0.8850 0.8845 0.8840 0.8840 0.8840
3739.868964 0.8845 0.8850 0.8865 0.8880 0.8885
3744.797771 0.8890 0.8900 0.8910 0.8910 0.8910
3749.726578 0.8910 0.8910 0.8910 0.8910 0.8900
3754.655385 0.8890 0.8890 0.8890 0.8890 0.8890
3759.584193 0.8900 0.8910 0.8910 0.8910 0.8910
3764.513000 0.8910 0.8920 0.8930 0.8940 0.8950
3769.441807 0.8950 0.8950 0.8940 0.8930 0.8930
3774.370615 0.8930 0.8930 0.8930 0.8930 0.8930
3779.299422 0.8930 0.8930 0.8930 0.8930 0.8925
3784.228229 0.8920 0.8920 0.8920 0.8920 0.8920
3789.157036 0.8920 0.8920 0.8925 0.8930 0.8930
##END=
