##TITLE=METHYL BROMIDE
##JCAMP-DX=4.24
##DATA TYPE=INFRARED SPECTRUM
##CLASS=COBLENTZ
##ORIGIN=DOW CHEMICAL COMPANY
##OWNER=COBLENTZ SOCIETY
Collection (C) 2018 copyright by the U.S. Secretary of Commerce
on behalf of the United States of America. All rights reserved.
##DATE=1964
##NAMES=bromomethane
##CAS REGISTRY NO=74-83-9
##MOLFORM=C H3 Br
##SOURCE REFERENCE=COBLENTZ NO. 8843
##$NIST SOURCE=COBLENTZ
##$NIST IMAGE=cob8843
##SPECTROMETER/DATA SYSTEM=DOW KBr FOREPRISM
##INSTRUMENT PARAMETERS=GRATING CHANGED AT 5.0, 7.5, 15.0 MICRON
##STATE=GAS (100 mmHg DILUTED TO A TOTAL PRESSURE OF 600 mmHg WITH N2)
##PATH LENGTH=5 CM
##SAMPLING PROCEDURE=TRANSMISSION
##RESOLUTION=4
##DATA PROCESSING=DIGITIZED BY NIST FROM HARD COPY (FROM TWO SEGMENTS)
##XUNITS=1/CM
##YUNITS=TRANSMITTANCE
##XFACTOR=1.000000
##YFACTOR=1
##DELTAX=0.934000
##FIRSTX=460.772
##LASTX=3803.56
##FIRSTY=0.914
##MAXX=3803.56
##MINX=460.772
##MAXY=0.986
##MINY=0.282005
##NPOINTS=3580
##XYDATA=(X++(Y..Y))
460.772000 0.9140 0.9140 0.9140 0.9140 0.9140
465.442002 0.9140 0.9140 0.9140 0.9140 0.9140
470.112003 0.9160 0.9160 0.9160 0.9160 0.9160
474.782005 0.9160 0.9160 0.9160 0.9160 0.9160
479.452006 0.9160 0.9160 0.9160 0.9160 0.9160
484.122008 0.9160 0.9160 0.9170 0.9160 0.9160
488.792009 0.9160 0.9160 0.9160 0.9140 0.9140
493.462011 0.9140 0.9140 0.9140 0.9130 0.9130
498.132013 0.9140 0.9140 0.9140 0.9140 0.9140
502.802014 0.9140 0.9140 0.9140 0.9140 0.9140
507.472016 0.9140 0.9140 0.9160 0.9160 0.9140
512.142017 0.9140 0.9140 0.9140 0.9140 0.9140
516.812019 0.9130 0.9130 0.9130 0.9130 0.9130
521.482020 0.9130 0.9130 0.9130 0.9130 0.9140
526.152022 0.9140 0.9140 0.9140 0.9140 0.9160
530.822024 0.9140 0.9140 0.9140 0.9130 0.9130
535.492025 0.9130 0.9130 0.9130 0.9140 0.9140
540.162027 0.9140 0.9140 0.9140 0.9140 0.9160
544.832028 0.9140 0.9140 0.9140 0.9140 0.9140
549.502030 0.9140 0.9140 0.9140 0.9140 0.9140
554.172031 0.9140 0.9130 0.9130 0.9130 0.9120
558.842033 0.9120 0.9100 0.9090 0.9070 0.9060
563.512034 0.9040 0.9000 0.8970 0.8950 0.8940
568.182036 0.8910 0.8900 0.8820 0.8780 0.8720
572.852038 0.8660 0.8630 0.8530 0.8400 0.8260
577.522039 0.8220 0.8120 0.8000 0.7811 0.7661
582.192041 0.7590 0.7440 0.7140 0.7050 0.6960
586.862042 0.6800 0.6641 0.6560 0.6261 0.5862
591.532044 0.5730 0.5610 0.5490 0.5380 0.5260
596.202045 0.5140 0.5110 0.5110 0.5140 0.5210
600.872047 0.5300 0.5300 0.5290 0.5290 0.5519
605.542049 0.5949 0.6558 0.7078 0.7110 0.6016
610.212050 0.4910 0.4570 0.7457 0.7520 0.7410
614.882052 0.6971 0.6522 0.5614 0.5510 0.5361
619.552053 0.4660 0.4500 0.4350 0.4260 0.4230
624.222055 0.4260 0.4320 0.4440 0.4599 0.4759
628.892056 0.4880 0.5320 0.5859 0.6149 0.6489
633.562058 0.7018 0.7369 0.7808 0.8218 0.8568
638.232060 0.8810 0.8970 0.9120 0.9130 0.9220
642.902061 0.9260 0.9290 0.9320 0.9340 0.9340
647.572063 0.9340 0.9340 0.9350 0.9350 0.9350
652.242064 0.9350 0.9350 0.9350 0.9360 0.9360
656.912066 0.9360 0.9360 0.9360 0.9360 0.9360
661.582067 0.9360 0.9360 0.9360 0.9360 0.9380
666.252069 0.9380 0.9380 0.9380 0.9380 0.9380
670.922071 0.9380 0.9380 0.9380 0.9380 0.9380
675.592072 0.9380 0.9380 0.9380 0.9360 0.9380
680.262074 0.9380 0.9360 0.9360 0.9360 0.9360
684.932075 0.9360 0.9350 0.9350 0.9350 0.9350
689.602077 0.9360 0.9350 0.9350 0.9350 0.9350
694.272078 0.9350 0.9350 0.9350 0.9350 0.9350
698.942080 0.9350 0.9350 0.9350 0.9350 0.9350
703.612082 0.9350 0.9350 0.9350 0.9350 0.9350
708.282083 0.9350 0.9350 0.9350 0.9350 0.9350
712.952085 0.9350 0.9350 0.9360 0.9360 0.9360
717.622086 0.9360 0.9360 0.9380 0.9380 0.9360
722.292088 0.9360 0.9360 0.9360 0.9380 0.9380
726.962089 0.9360 0.9360 0.9360 0.9380 0.9360
731.632091 0.9360 0.9360 0.9360 0.9360 0.9360
736.302093 0.9360 0.9360 0.9360 0.9360 0.9350
740.972094 0.9350 0.9360 0.9360 0.9360 0.9360
745.642096 0.9360 0.9360 0.9360 0.9380 0.9380
750.312097 0.9380 0.9380 0.9360 0.9360 0.9360
754.982099 0.9360 0.9360 0.9360 0.9380 0.9380
759.652100 0.9360 0.9360 0.9360 0.9360 0.9360
764.322102 0.9360 0.9360 0.9360 0.9360 0.9360
768.992103 0.9360 0.9360 0.9360 0.9360 0.9380
773.662105 0.9390 0.9410 0.9410 0.9420 0.9420
778.332107 0.9410 0.9390 0.9410 0.9410 0.9420
783.002108 0.9420 0.9420 0.9420 0.9420 0.9420
787.672110 0.9420 0.9410 0.9410 0.9390 0.9390
792.342111 0.9380 0.9380 0.9360 0.9360 0.9360
797.012113 0.9360 0.9360 0.9360 0.9360 0.9360
801.682114 0.9360 0.9360 0.9360 0.9360 0.9360
806.352116 0.9360 0.9360 0.9360 0.9360 0.9360
811.022118 0.9380 0.9380 0.9380 0.9380 0.9380
815.692119 0.9380 0.9380 0.9360 0.9360 0.9360
820.362121 0.9360 0.9360 0.9360 0.9360 0.9360
825.032122 0.9360 0.9360 0.9360 0.9360 0.9360
829.702124 0.9360 0.9360 0.9360 0.9360 0.9360
834.372125 0.9360 0.9380 0.9380 0.9360 0.9360
839.042127 0.9360 0.9360 0.9360 0.9360 0.9360
843.712129 0.9360 0.9360 0.9360 0.9350 0.9340
848.382130 0.9340 0.9320 0.9320 0.9340 0.9340
853.052132 0.9360 0.9360 0.9350 0.9350 0.9350
857.722133 0.9350 0.9350 0.9350 0.9340 0.9340
862.392135 0.9320 0.9320 0.9320 0.9310 0.9290
867.062136 0.9280 0.9250 0.9250 0.9250 0.9250
871.732138 0.9230 0.9230 0.9230 0.9230 0.9220
876.402140 0.9200 0.9190 0.9160 0.9160 0.9160
881.072141 0.9170 0.9140 0.9140 0.9090 0.9090
885.742143 0.9090 0.9100 0.9120 0.9130 0.9070
890.412144 0.8980 0.8810 0.8810 0.8920 0.9030
895.082146 0.9040 0.9030 0.8970 0.8751 0.8750
899.752147 0.8950 0.8970 0.8970 0.8970 0.8950
904.422149 0.8810 0.8680 0.8511 0.8659 0.8730
909.092151 0.8750 0.8820 0.8870 0.8870 0.8530
913.762152 0.7402 0.7400 0.8527 0.8759 0.8780
918.432154 0.8780 0.8680 0.8250 0.7810 0.7810
923.102155 0.8678 0.8650 0.8630 0.8530 0.8510
927.772157 0.7410 0.7411 0.8530 0.8530 0.8510
932.442158 0.8480 0.7562 0.6623 0.6580 0.6172
937.112160 0.6143 0.8590 0.8560 0.8540 0.7941
941.782162 0.7361 0.7061 0.6751 0.8474 0.8480
946.452163 0.8460 0.8460 0.8130 0.6751 0.5382
951.122165 0.8205 0.8509 0.8510 0.8400 0.8380
955.792166 0.8158 0.6489 0.4800 0.7988 0.8280
960.462168 0.8530 0.8440 0.8410 0.8181 0.7304
965.132169 0.6402 0.8160 0.8440 0.8430 0.8380
969.802171 0.8340 0.8121 0.7711 0.7152 0.6592
974.472172 0.8440 0.8510 0.8510 0.8070 0.7710
979.142174 0.6622 0.5523 0.7115 0.8625 0.8630
983.812176 0.8530 0.8440 0.8410 0.8280 0.7211
988.482177 0.7210 0.7819 0.8687 0.8590 0.8530
993.152179 0.8530 0.8509 0.7600 0.7600 0.8529
997.822180 0.8810 0.8810 0.8690 0.8511 0.8430
1002.492182 0.8149 0.7110 0.7110 0.8779 0.8970
1007.162183 0.8980 0.8970 0.8721 0.8501 0.8480
1011.832185 0.8600 0.8720 0.8950 0.8950 0.8920
1016.502187 0.8850 0.8730 0.8730 0.8820 0.9029
1021.172188 0.9070 0.9070 0.8980 0.8950 0.8940
1025.842190 0.8940 0.8980 0.9159 0.9250 0.9250
1030.512191 0.9160 0.9160 0.9160 0.9160 0.9190
1035.182193 0.9190 0.9220 0.9250 0.9280 0.9290
1039.852194 0.9310 0.9320 0.9340 0.9340 0.9340
1044.522196 0.9350 0.9350 0.9350 0.9350 0.9350
1049.192198 0.9360 0.9380 0.9390 0.9410 0.9410
1053.862199 0.9420 0.9440 0.9440 0.9440 0.9440
1058.532201 0.9440 0.9440 0.9450 0.9470 0.9470
1063.202202 0.9470 0.9470 0.9470 0.9470 0.9450
1067.872204 0.9450 0.9450 0.9440 0.9420 0.9420
1072.542205 0.9420 0.9420 0.9440 0.9440 0.9440
1077.212207 0.9440 0.9440 0.9440 0.9450 0.9450
1081.882209 0.9450 0.9450 0.9470 0.9470 0.9470
1086.552210 0.9480 0.9500 0.9500 0.9510 0.9500
1091.222212 0.9500 0.9510 0.9530 0.9530 0.9540
1095.892213 0.9540 0.9540 0.9540 0.9540 0.9540
1100.562215 0.9540 0.9540 0.9540 0.9540 0.9560
1105.232216 0.9560 0.9560 0.9540 0.9540 0.9540
1109.902218 0.9540 0.9540 0.9540 0.9540 0.9560
1114.572220 0.9560 0.9560 0.9560 0.9560 0.9560
1119.242221 0.9560 0.9560 0.9570 0.9570 0.9560
1123.912223 0.9560 0.9560 0.9560 0.9540 0.9540
1128.582224 0.9540 0.9530 0.9530 0.9530 0.9530
1133.252226 0.9510 0.9500 0.9500 0.9480 0.9480
1137.922227 0.9470 0.9470 0.9470 0.9470 0.9470
1142.592229 0.9480 0.9480 0.9500 0.9510 0.9510
1147.262231 0.9510 0.9510 0.9510 0.9530 0.9540
1151.932232 0.9540 0.9540 0.9540 0.9560 0.9560
1156.602234 0.9560 0.9560 0.9560 0.9560 0.9540
1161.272235 0.9540 0.9540 0.9530 0.9530 0.9510
1165.942237 0.9510 0.9510 0.9510 0.9510 0.9510
1170.612238 0.9510 0.9500 0.9500 0.9500 0.9480
1175.282240 0.9470 0.9450 0.9440 0.9440 0.9440
1179.952241 0.9440 0.9450 0.9450 0.9470 0.9480
1184.622243 0.9540 0.9540 0.9540 0.9540 0.9560
1189.292245 0.9560 0.9560 0.9560 0.9560 0.9560
1193.962246 0.9560 0.9560 0.9560 0.9560 0.9560
1198.632248 0.9560 0.9560 0.9560 0.9560 0.9560
1203.302249 0.9560 0.9560 0.9540 0.9540 0.9540
1207.972251 0.9540 0.9560 0.9560 0.9560 0.9540
1212.642252 0.9540 0.9540 0.9530 0.9530 0.9530
1217.312254 0.9530 0.9540 0.9540 0.9540 0.9540
1221.982256 0.9540 0.9560 0.9560 0.9560 0.9560
1226.652257 0.9560 0.9560 0.9560 0.9560 0.9560
1231.322259 0.9560 0.9540 0.9540 0.9540 0.9510
1235.992260 0.9500 0.9480 0.9480 0.9480 0.9470
1240.662262 0.9450 0.9440 0.9420 0.9410 0.9380
1245.332263 0.9360 0.9350 0.9340 0.9340 0.9320
1250.002265 0.9310 0.9280 0.9260 0.9260 0.9250
1254.672267 0.9220 0.9190 0.9160 0.9140 0.9140
1259.342268 0.9100 0.9060 0.9030 0.8950 0.8940
1264.012270 0.8920 0.8810 0.8720 0.8650 0.8570
1268.682271 0.8540 0.8440 0.8320 0.8150 0.7941
1273.352273 0.7780 0.7630 0.7430 0.7250 0.7110
1278.022274 0.6950 0.6800 0.6580 0.6341 0.5931
1282.692276 0.5699 0.5459 0.5140 0.5020 0.4690
1287.362278 0.4380 0.4260 0.4120 0.4040 0.3970
1292.032279 0.3820 0.3660 0.3660 0.3690 0.3750
1296.702281 0.3810 0.3880 0.4060 0.4479 0.4749
1301.372282 0.4751 0.5231 0.5702 0.7110 0.7110
1306.042284 0.6650 0.6181 0.4293 0.4290 0.6045
1310.712285 0.6209 0.5768 0.4800 0.4480 0.4120
1315.382287 0.3750 0.3400 0.3101 0.2930 0.2840
1320.052289 0.2820 0.2840 0.2940 0.3040 0.3220
1324.722290 0.3410 0.3570 0.4309 0.4529 0.4799
1329.392292 0.5021 0.5551 0.6180 0.6490 0.7000
1334.062293 0.7330 0.7799 0.8339 0.8589 0.8869
1338.732295 0.8999 0.8730 0.8620 0.8620 0.9120
1343.402296 0.9120 0.9200 0.9290 0.9360 0.9390
1348.072298 0.9420 0.9450 0.9420 0.9410 0.9390
1352.742300 0.8970 0.8920 0.8970 0.9040 0.9060
1357.412301 0.9160 0.9190 0.9200 0.9220 0.9200
1362.082303 0.9200 0.9200 0.9160 0.9090 0.8193
1366.752304 0.8160 0.8181 0.8820 0.9010 0.9040
1371.422306 0.9030 0.9000 0.8950 0.8980 0.8980
1376.092307 0.8980 0.8970 0.8898 0.7530 0.6900
1380.762309 0.6270 0.8917 0.8920 0.8750 0.8620
1385.432310 0.8590 0.8590 0.8590 0.8620 0.8720
1390.102312 0.7501 0.7080 0.7080 0.7878 0.8837
1394.772314 0.8940 0.8940 0.8910 0.8850 0.8820
1399.442315 0.8780 0.7122 0.6930 0.6740 0.6371
1404.112317 0.7503 0.8590 0.8680 0.8810 0.8820
1408.782318 0.8810 0.8780 0.8750 0.8700 0.8620
1413.452320 0.8540 0.8459 0.7969 0.7409 0.6070
1418.122321 0.4701 0.8875 0.8840 0.8820 0.8820
1422.792323 0.8790 0.8720 0.8630 0.8560 0.8540
1427.462325 0.7840 0.7031 0.6331 0.5632 0.8671
1432.132326 0.8660 0.8620 0.8570 0.8540 0.8540
1436.802328 0.8430 0.8370 0.7911 0.7311 0.6313
1441.472329 0.5331 0.8500 0.8650 0.8650 0.8660
1446.142331 0.8660 0.8660 0.8380 0.7371 0.6861
1450.812332 0.6336 0.5320 0.5328 0.8510 0.8620
1455.482334 0.8620 0.8600 0.8540 0.8530 0.8530
1460.152336 0.8500 0.8370 0.8370 0.8238 0.6868
1464.822337 0.5492 0.8320 0.8350 0.8470 0.8510
1469.492339 0.8510 0.8510 0.8510 0.8470 0.8400
1474.162340 0.8380 0.8290 0.8070 0.6931 0.5772
1478.832342 0.8530 0.8600 0.8630 0.8690 0.8730
1483.502343 0.8750 0.8750 0.8750 0.7841 0.6922
1488.172345 0.6180 0.6146 0.4759 0.8530 0.8620
1492.842347 0.8620 0.8600 0.8600 0.8570 0.8540
1497.512348 0.8530 0.8538 0.7998 0.7058 0.6113
1502.182350 0.8620 0.8630 0.8650 0.8660 0.8660
1506.852351 0.8680 0.8680 0.8720 0.8718 0.7739
1511.522353 0.6741 0.8810 0.8900 0.8940 0.8910
1516.192354 0.8910 0.8910 0.8900 0.8780 0.8780
1520.862356 0.9009 0.7820 0.6621 0.8997 0.9140
1525.532358 0.9139 0.8920 0.8850 0.8850 0.8850
1530.202359 0.8870 0.9000 0.9000 0.8660 0.8351
1534.872361 0.8353 0.9060 0.9120 0.9070 0.9030
1539.542362 0.9000 0.8940 0.9060 0.9090 0.9090
1544.212364 0.8700 0.8590 0.8701 0.9200 0.9340
1548.882365 0.9340 0.9320 0.9290 0.9290 0.9280
1553.552367 0.9280 0.9290 0.9310 0.9320 0.9320
1558.222369 0.9340 0.9340 0.9310 0.9260 0.9250
1562.892370 0.9230 0.9200 0.9190 0.9200 0.9250
1567.562372 0.9290 0.9360 0.9380 0.9390 0.9390
1572.232373 0.9350 0.9340 0.9340 0.9320 0.9320
1576.902375 0.9340 0.9350 0.9390 0.9470 0.9480
1581.572376 0.9480 0.9470 0.9450 0.9450 0.9450
1586.242378 0.9450 0.9450 0.9470 0.9480 0.9500
1590.912379 0.9510 0.9510 0.9500 0.9480 0.9470
1595.582381 0.9470 0.9480 0.9480 0.9500 0.9500
1600.252383 0.9510 0.9530 0.9540 0.9560 0.9560
1604.922384 0.9560 0.9560 0.9560 0.9560 0.9560
1609.592386 0.9560 0.9560 0.9560 0.9540 0.9530
1614.262387 0.9510 0.9500 0.9500 0.9500 0.9510
1618.932389 0.9530 0.9530 0.9560 0.9570 0.9570
1623.602390 0.9580 0.9580 0.9580 0.9580 0.9580
1628.272392 0.9580 0.9570 0.9570 0.9570 0.9570
1632.942394 0.9570 0.9570 0.9570 0.9570 0.9580
1637.612395 0.9580 0.9580 0.9580 0.9580 0.9580
1642.282397 0.9580 0.9580 0.9580 0.9580 0.9580
1646.952398 0.9580 0.9580 0.9580 0.9570 0.9560
1651.622400 0.9500 0.9500 0.9500 0.9510 0.9560
1656.292401 0.9580 0.9610 0.9610 0.9610 0.9610
1660.962403 0.9600 0.9580 0.9580 0.9580 0.9580
1665.632405 0.9580 0.9580 0.9580 0.9580 0.9580
1670.302406 0.9580 0.9580 0.9580 0.9580 0.9580
1674.972408 0.9580 0.9580 0.9580 0.9580 0.9580
1679.642409 0.9570 0.9560 0.9560 0.9540 0.9540
1684.312411 0.9560 0.9560 0.9570 0.9570 0.9580
1688.982412 0.9580 0.9580 0.9570 0.9560 0.9560
1693.652414 0.9560 0.9540 0.9540 0.9560 0.9560
1698.322416 0.9560 0.9560 0.9570 0.9570 0.9570
1702.992417 0.9580 0.9580 0.9580 0.9580 0.9580
1707.662419 0.9580 0.9580 0.9580 0.9580 0.9570
1712.332420 0.9570 0.9570 0.9570 0.9560 0.9560
1717.002422 0.9560 0.9570 0.9570 0.9560 0.9560
1721.672423 0.9560 0.9570 0.9560 0.9570 0.9570
1726.342425 0.9560 0.9560 0.9560 0.9560 0.9560
1731.012427 0.9560 0.9560 0.9570 0.9560 0.9560
1735.682428 0.9560 0.9560 0.9560 0.9560 0.9560
1740.352430 0.9560 0.9570 0.9570 0.9570 0.9570
1745.022431 0.9570 0.9570 0.9570 0.9570 0.9570
1749.692433 0.9570 0.9570 0.9580 0.9580 0.9580
1754.362434 0.9580 0.9580 0.9580 0.9580 0.9580
1759.032436 0.9580 0.9570 0.9570 0.9570 0.9580
1763.702437 0.9570 0.9570 0.9570 0.9570 0.9570
1768.372439 0.9570 0.9570 0.9570 0.9570 0.9570
1773.042441 0.9570 0.9570 0.9580 0.9580 0.9580
1777.712442 0.9580 0.9610 0.9610 0.9610 0.9600
1782.382444 0.9580 0.9580 0.9580 0.9580 0.9570
1787.052445 0.9570 0.9570 0.9570 0.9570 0.9570
1791.722447 0.9580 0.9600 0.9610 0.9610 0.9610
1796.392448 0.9610 0.9610 0.9610 0.9600 0.9580
1801.062450 0.9580 0.9600 0.9610 0.9610 0.9610
1805.732452 0.9610 0.9610 0.9610 0.9610 0.9610
1810.402453 0.9610 0.9610 0.9610 0.9610 0.9610
1815.072455 0.9610 0.9610 0.9610 0.9610 0.9610
1819.742456 0.9610 0.9610 0.9610 0.9610 0.9610
1824.412458 0.9610 0.9610 0.9610 0.9600 0.9580
1829.082459 0.9580 0.9580 0.9580 0.9580 0.9580
1833.752461 0.9580 0.9580 0.9580 0.9580 0.9580
1838.422463 0.9580 0.9580 0.9580 0.9580 0.9580
1843.092464 0.9580 0.9610 0.9610 0.9610 0.9610
1847.762466 0.9610 0.9610 0.9630 0.9610 0.9570
1852.432467 0.9630 0.9610 0.9610 0.9610 0.9610
1857.102469 0.9610 0.9610 0.9600 0.9600 0.9580
1861.772470 0.9580 0.9580 0.9580 0.9580 0.9580
1866.442472 0.9580 0.9580 0.9580 0.9580 0.9580
1871.112474 0.9580 0.9580 0.9580 0.9580 0.9580
1875.782475 0.9580 0.9580 0.9580 0.9580 0.9580
1880.452477 0.9580 0.9570 0.9570 0.9570 0.9570
1885.122478 0.9560 0.9560 0.9560 0.9540 0.9540
1889.792480 0.9540 0.9540 0.9540 0.9540 0.9540
1894.462481 0.9540 0.9560 0.9560 0.9560 0.9570
1899.132483 0.9560 0.9570 0.9570 0.9560 0.9560
1903.802485 0.9560 0.9560 0.9560 0.9560 0.9560
1908.472486 0.9560 0.9560 0.9560 0.9560 0.9560
1913.142488 0.9560 0.9540 0.9540 0.9530 0.9530
1917.812489 0.9530 0.9530 0.9530 0.9530 0.9530
1922.482491 0.9530 0.9530 0.9530 0.9530 0.9540
1927.152492 0.9540 0.9560 0.9570 0.9570 0.9570
1931.822494 0.9580 0.9580 0.9580 0.9580 0.9580
1936.492496 0.9580 0.9580 0.9580 0.9580 0.9580
1941.162497 0.9580 0.9580 0.9580 0.9580 0.9580
1945.832499 0.9580 0.9580 0.9580 0.9580 0.9580
1950.502500 0.9580 0.9580 0.9570 0.9570 0.9570
1955.172502 0.9540 0.9540 0.9540 0.9540 0.9560
1959.842503 0.9570 0.9580 0.9600 0.9610 0.9630
1964.512505 0.9630 0.9630 0.9630 0.9630 0.9630
1969.182506 0.9630 0.9630 0.9630 0.9630 0.9630
1973.852508 0.9630 0.9630 0.9630 0.9630 0.9630
1978.522510 0.9630 0.9630 0.9630 0.9630 0.9630
1983.192511 0.9630 0.9640 0.9640 0.9640 0.9640
1987.862513 0.9640 0.9640 0.9640 0.9640 0.9640
1992.532514 0.9640 0.9640 0.9640 0.9640 0.9640
1997.202516 0.9640 0.9640 0.9660 0.9670 0.9670
2001.872517 0.9670 0.9680 0.9690 0.9690 0.9690
2006.542519 0.9690 0.9690 0.9690 0.9690 0.9690
2011.212521 0.9690 0.9695 0.9700 0.9695 0.9690
2015.882522 0.9690 0.9690 0.9690 0.9690 0.9690
2020.552524 0.9690 0.9690 0.9690 0.9680 0.9670
2025.222525 0.9670 0.9670 0.9670 0.9670 0.9670
2029.892527 0.9670 0.9670 0.9670 0.9670 0.9670
2034.562528 0.9670 0.9670 0.9670 0.9670 0.9670
2039.232530 0.9670 0.9665 0.9660 0.9660 0.9660
2043.902532 0.9665 0.9670 0.9670 0.9670 0.9680
2048.572533 0.9690 0.9690 0.9690 0.9690 0.9690
2053.242535 0.9695 0.9700 0.9700 0.9700 0.9700
2057.912536 0.9700 0.9700 0.9700 0.9700 0.9700
2062.582538 0.9700 0.9700 0.9700 0.9700 0.9700
2067.252539 0.9700 0.9700 0.9700 0.9700 0.9700
2071.922541 0.9700 0.9700 0.9700 0.9700 0.9700
2076.592543 0.9700 0.9700 0.9700 0.9700 0.9700
2081.262544 0.9700 0.9700 0.9700 0.9700 0.9695
2085.932546 0.9690 0.9690 0.9690 0.9695 0.9700
2090.602547 0.9700 0.9700 0.9700 0.9700 0.9700
2095.272549 0.9700 0.9700 0.9700 0.9700 0.9700
2099.942550 0.9700 0.9700 0.9700 0.9700 0.9695
2104.612552 0.9690 0.9690 0.9690 0.9690 0.9690
2109.282554 0.9695 0.9700 0.9700 0.9700 0.9700
2113.952555 0.9700 0.9695 0.9690 0.9690 0.9690
2118.622557 0.9690 0.9690 0.9690 0.9690 0.9690
2123.292558 0.9690 0.9690 0.9690 0.9695 0.9700
2127.962560 0.9700 0.9700 0.9695 0.9690 0.9690
2132.632561 0.9690 0.9695 0.9700 0.9700 0.9700
2137.302563 0.9700 0.9700 0.9709 0.9719 0.9720
2141.972565 0.9720 0.9720 0.9720 0.9720 0.9720
2146.642566 0.9720 0.9720 0.9711 0.9701 0.9700
2151.312568 0.9700 0.9700 0.9700 0.9709 0.9719
2155.982569 0.9711 0.9701 0.9700 0.9700 0.9700
2160.652571 0.9700 0.9700 0.9700 0.9700 0.9700
2165.322572 0.9700 0.9700 0.9700 0.9700 0.9700
2169.992574 0.9700 0.9700 0.9700 0.9700 0.9700
2174.662575 0.9700 0.9700 0.9700 0.9700 0.9696
2179.332577 0.9691 0.9690 0.9690 0.9690 0.9690
2184.002579 0.9690 0.9690 0.9690 0.9690 0.9690
2188.672580 0.9690 0.9690 0.9690 0.9677 0.9662
2193.342582 0.9660 0.9660 0.9664 0.9669 0.9670
2198.012583 0.9670 0.9670 0.9670 0.9666 0.9661
2202.682585 0.9660 0.9660 0.9660 0.9660 0.9660
2207.352586 0.9660 0.9660 0.9660 0.9660 0.9660
2212.022588 0.9651 0.9641 0.9640 0.9640 0.9640
2216.692590 0.9640 0.9640 0.9640 0.9640 0.9640
2221.362591 0.9640 0.9640 0.9640 0.9640 0.9636
2226.032593 0.9631 0.9630 0.9630 0.9622 0.9612
2230.702594 0.9610 0.9610 0.9610 0.9610 0.9606
2235.372596 0.9601 0.9600 0.9600 0.9592 0.9582
2240.042597 0.9580 0.9580 0.9580 0.9580 0.9580
2244.712599 0.9580 0.9580 0.9580 0.9580 0.9580
2249.382601 0.9588 0.9598 0.9600 0.9600 0.9588
2254.052602 0.9573 0.9570 0.9570 0.9570 0.9570
2258.722604 0.9570 0.9570 0.9570 0.9570 0.9574
2263.392605 0.9579 0.9588 0.9598 0.9600 0.9600
2268.062607 0.9600 0.9600 0.9600 0.9600 0.9600
2272.732608 0.9600 0.9592 0.9582 0.9580 0.9580
2277.402610 0.9580 0.9580 0.9580 0.9580 0.9580
2282.072612 0.9580 0.9580 0.9580 0.9580 0.9580
2286.742613 0.9580 0.9580 0.9592 0.9607 0.9618
2291.412615 0.9628 0.9634 0.9639 0.9648 0.9658
2296.082616 0.9660 0.9660 0.9660 0.9660 0.9660
2300.752618 0.9660 0.9660 0.9660 0.9660 0.9660
2305.422619 0.9664 0.9669 0.9670 0.9670 0.9670
2310.092621 0.9670 0.9670 0.9670 0.9678 0.9688
2314.762623 0.9682 0.9672 0.9670 0.9670 0.9678
2319.432624 0.9688 0.9690 0.9690 0.9690 0.9690
2324.102626 0.9694 0.9699 0.9700 0.9700 0.9700
2328.772627 0.9700 0.9696 0.9691 0.9690 0.9690
2333.442629 0.9690 0.9690 0.9690 0.9690 0.9682
2338.112630 0.9672 0.9670 0.9670 0.9666 0.9661
2342.782632 0.9660 0.9660 0.9660 0.9660 0.9660
2347.452634 0.9660 0.9652 0.9642 0.9640 0.9640
2352.122635 0.9640 0.9640 0.9640 0.9640 0.9640
2356.792637 0.9640 0.9640 0.9640 0.9640 0.9640
2361.462638 0.9651 0.9666 0.9678 0.9688 0.9682
2366.132640 0.9673 0.9670 0.9670 0.9677 0.9687
2370.802641 0.9690 0.9690 0.9690 0.9690 0.9682
2375.472643 0.9672 0.9666 0.9661 0.9660 0.9660
2380.142644 0.9660 0.9660 0.9653 0.9643 0.9640
2384.812646 0.9640 0.9640 0.9640 0.9640 0.9640
2389.482648 0.9640 0.9640 0.9640 0.9640 0.9640
2394.152649 0.9640 0.9640 0.9640 0.9640 0.9640
2398.822651 0.9640 0.9640 0.9647 0.9657 0.9664
2403.492652 0.9669 0.9670 0.9670 0.9670 0.9670
2408.162654 0.9670 0.9670 0.9670 0.9670 0.9670
2412.832655 0.9670 0.9670 0.9670 0.9666 0.9661
2417.502657 0.9660 0.9660 0.9660 0.9660 0.9660
2422.172659 0.9660 0.9653 0.9643 0.9640 0.9640
2426.842660 0.9640 0.9640 0.9640 0.9640 0.9651
2431.512662 0.9666 0.9677 0.9687 0.9694 0.9699
2436.182663 0.9700 0.9700 0.9700 0.9700 0.9700
2440.852665 0.9700 0.9707 0.9717 0.9720 0.9720
2445.522666 0.9720 0.9720 0.9720 0.9720 0.9720
2450.192668 0.9720 0.9720 0.9720 0.9720 0.9720
2454.862670 0.9720 0.9720 0.9720 0.9720 0.9720
2459.532671 0.9720 0.9723 0.9728 0.9730 0.9730
2464.202673 0.9730 0.9730 0.9730 0.9730 0.9737
2468.872674 0.9747 0.9743 0.9733 0.9730 0.9730
2473.542676 0.9737 0.9747 0.9750 0.9750 0.9750
2478.212677 0.9750 0.9750 0.9750 0.9750 0.9750
2482.882679 0.9750 0.9750 0.9750 0.9750 0.9750
2487.552681 0.9750 0.9753 0.9758 0.9757 0.9752
2492.222682 0.9750 0.9750 0.9750 0.9750 0.9750
2496.892684 0.9750 0.9750 0.9750 0.9750 0.9750
2501.562685 0.9750 0.9750 0.9743 0.9733 0.9730
2506.232687 0.9730 0.9730 0.9730 0.9730 0.9730
2510.902688 0.9730 0.9730 0.9730 0.9730 0.9730
2515.572690 0.9730 0.9730 0.9730 0.9736 0.9746
2520.242692 0.9750 0.9750 0.9750 0.9750 0.9750
2524.912693 0.9750 0.9750 0.9750 0.9750 0.9750
2529.582695 0.9750 0.9750 0.9750 0.9750 0.9750
2534.252696 0.9750 0.9750 0.9750 0.9750 0.9750
2538.922698 0.9750 0.9750 0.9750 0.9750 0.9750
2543.592699 0.9750 0.9750 0.9750 0.9750 0.9750
2548.262701 0.9744 0.9734 0.9730 0.9730 0.9730
2552.932703 0.9730 0.9736 0.9746 0.9744 0.9734
2557.602704 0.9730 0.9730 0.9727 0.9722 0.9711
2562.272706 0.9696 0.9690 0.9690 0.9684 0.9674
2566.942707 0.9670 0.9670 0.9667 0.9662 0.9654
2571.612709 0.9644 0.9637 0.9632 0.9630 0.9630
2576.282710 0.9630 0.9630 0.9630 0.9630 0.9630
2580.952712 0.9630 0.9630 0.9630 0.9630 0.9630
2585.622713 0.9633 0.9638 0.9640 0.9640 0.9640
2590.292715 0.9640 0.9646 0.9656 0.9654 0.9644
2594.962717 0.9640 0.9640 0.9640 0.9640 0.9631
2599.632718 0.9616 0.9607 0.9602 0.9594 0.9584
2604.302720 0.9574 0.9564 0.9554 0.9544 0.9537
2608.972721 0.9532 0.9530 0.9530 0.9533 0.9538
2613.642723 0.9546 0.9556 0.9563 0.9568 0.9582
2618.312724 0.9602 0.9628 0.9658 0.9688 0.9718
2622.982726 0.9739 0.9754 0.9766 0.9776 0.9780
2627.652728 0.9780 0.9780 0.9780 0.9774 0.9764
2632.322729 0.9760 0.9760 0.9766 0.9776 0.9780
2636.992731 0.9780 0.9780 0.9780 0.9774 0.9764
2641.662732 0.9760 0.9760 0.9760 0.9760 0.9760
2646.332734 0.9760 0.9760 0.9760 0.9766 0.9776
2651.002735 0.9780 0.9780 0.9780 0.9780 0.9780
2655.672737 0.9780 0.9780 0.9780 0.9780 0.9780
2660.342739 0.9780 0.9780 0.9780 0.9780 0.9780
2665.012740 0.9780 0.9780 0.9780 0.9780 0.9780
2669.682742 0.9780 0.9780 0.9775 0.9764 0.9760
2674.352743 0.9760 0.9760 0.9760 0.9760 0.9760
2679.022745 0.9768 0.9783 0.9790 0.9790 0.9787
2683.692746 0.9782 0.9780 0.9780 0.9780 0.9780
2688.362748 0.9780 0.9780 0.9783 0.9788 0.9790
2693.032750 0.9790 0.9782 0.9767 0.9760 0.9760
2697.702751 0.9760 0.9760 0.9760 0.9760 0.9760
2702.372753 0.9760 0.9760 0.9760 0.9765 0.9775
2707.042754 0.9780 0.9780 0.9780 0.9780 0.9783
2711.712756 0.9788 0.9787 0.9782 0.9780 0.9780
2716.382757 0.9780 0.9780 0.9780 0.9780 0.9783
2721.052759 0.9788 0.9790 0.9790 0.9787 0.9782
2725.722761 0.9780 0.9780 0.9780 0.9780 0.9783
2730.392762 0.9788 0.9782 0.9767 0.9760 0.9760
2735.062764 0.9765 0.9775 0.9780 0.9780 0.9780
2739.732765 0.9780 0.9775 0.9765 0.9765 0.9775
2744.402767 0.9780 0.9780 0.9780 0.9780 0.9775
2749.072768 0.9765 0.9760 0.9760 0.9760 0.9760
2753.742770 0.9760 0.9760 0.9760 0.9760 0.9760
2758.412772 0.9760 0.9765 0.9775 0.9780 0.9780
2763.082773 0.9780 0.9780 0.9780 0.9780 0.9780
2767.752775 0.9780 0.9780 0.9780 0.9775 0.9765
2772.422776 0.9760 0.9760 0.9765 0.9775 0.9780
2777.092778 0.9780 0.9780 0.9780 0.9782 0.9787
2781.762779 0.9790 0.9790 0.9788 0.9783 0.9780
2786.432781 0.9780 0.9780 0.9780 0.9780 0.9780
2791.102782 0.9780 0.9780 0.9775 0.9765 0.9760
2795.772784 0.9760 0.9760 0.9760 0.9758 0.9753
2800.442786 0.9750 0.9750 0.9750 0.9750 0.9745
2805.112787 0.9735 0.9730 0.9730 0.9730 0.9730
2809.782789 0.9730 0.9730 0.9735 0.9745 0.9752
2814.452790 0.9757 0.9760 0.9760 0.9760 0.9760
2819.122792 0.9753 0.9738 0.9723 0.9708 0.9693
2823.792793 0.9678 0.9668 0.9663 0.9655 0.9646
2828.462795 0.9631 0.9611 0.9593 0.9578 0.9561
2833.132797 0.9541 0.9504 0.9444 0.9399 0.9374
2837.802798 0.9358 0.9353 0.9283 0.9127 0.8984
2842.472800 0.8860 0.8710 0.8531 0.8412 0.8373
2847.142801 0.8350 0.8350 0.8356 0.8371 0.8406
2851.812803 0.8466 0.8509 0.8528 0.8546 0.8561
2856.482804 0.8593 0.8648 0.8691 0.8716 0.8754
2861.152806 0.8809 0.8857 0.8897 0.8920 0.8920
2865.822808 0.8884 0.8799 0.8729 0.8679 0.8625
2870.492809 0.8565 0.8524 0.8509 0.8469 0.8394
2875.162811 0.8350 0.8350 0.8368 0.8414 0.8465
2879.832812 0.8525 0.8573 0.8602 0.8659 0.8754
2884.502814 0.8843 0.8923 0.8984 0.9019 0.9060
2889.172815 0.9110 0.9162 0.9217 0.9272 0.9327
2893.842817 0.9382 0.9437 0.9488 0.9533 0.9562
2898.512819 0.9567 0.9576 0.9591 0.9606 0.9621
2903.182820 0.9638 0.9658 0.9674 0.9684 0.9690
2907.852822 0.9690 0.9692 0.9697 0.9700 0.9700
2912.522823 0.9700 0.9700 0.9700 0.9700 0.9698
2917.192825 0.9693 0.9686 0.9676 0.9658 0.9628
2921.862826 0.9604 0.9589 0.9576 0.9566 0.9549
2926.532828 0.9519 0.9494 0.9479 0.9453 0.9408
2931.202830 0.9363 0.9318 0.9271 0.9221 0.9178
2935.872831 0.9149 0.9117 0.9082 0.8992 0.8812
2940.542833 0.8634 0.8460 0.8315 0.8220 0.8061
2945.212834 0.7791 0.7545 0.7341 0.7132 0.6918
2949.882836 0.6626 0.6197 0.5764 0.5325 0.4873
2954.552837 0.4399 0.4067 0.3977 0.3889 0.3804
2959.222839 0.3728 0.3668 0.3625 0.3610 0.3605
2963.892840 0.3620 0.3656 0.3731 0.3885 0.4184
2968.562842 0.4439 0.4608 0.4796 0.5018 0.5180
2973.232844 0.5235 0.5330 0.5500 0.5610 0.5610
2977.902845 0.5455 0.5010 0.4640 0.4411 0.4180
2982.572847 0.3945 0.3715 0.3496 0.3321 0.3237
2987.242848 0.3180 0.3180 0.3203 0.3274 0.3336
2991.912850 0.3381 0.3632 0.4276 0.4818 0.5162
2996.582851 0.5393 0.5403 0.5412 0.5417 0.5481
3001.252853 0.5666 0.6029 0.6758 0.7320 0.7534
3005.922855 0.7686 0.7706 0.7728 0.7753 0.7824
3010.592856 0.7983 0.8160 0.8369 0.8577 0.8782
3015.262858 0.8920 0.8920 0.8885 0.8775 0.8675
3019.932859 0.8595 0.8509 0.8409 0.8340 0.8340
3024.602861 0.8460 0.8849 0.9120 0.9120 0.9088
3029.272862 0.8988 0.8888 0.8788 0.8674 0.8529
3033.942864 0.8422 0.8397 0.8327 0.8158 0.8040
3038.612866 0.8040 0.8210 0.8769 0.9160 0.9160
3043.282867 0.9034 0.8610 0.8314 0.8330 0.8380
3047.952869 0.8510 0.8641 0.8776 0.8908 0.9033
3052.622870 0.9108 0.9068 0.8910 0.8470 0.8160
3057.292872 0.8160 0.8299 0.8778 0.9113 0.9088
3061.962873 0.8887 0.8243 0.7755 0.7664 0.7827
3066.632875 0.8591 0.9130 0.9130 0.9108 0.9033
3071.302877 0.8937 0.8787 0.8645 0.8520 0.8410
3075.972878 0.8340 0.8290 0.8290 0.8406 0.8831
3080.642880 0.9131 0.9096 0.9027 0.8865 0.8697
3085.312881 0.8513 0.8376 0.8361 0.8459 0.8848
3089.982883 0.9130 0.9130 0.9088 0.8933 0.8797
3094.652884 0.8712 0.8646 0.8631 0.8624 0.8639
3099.322886 0.8664 0.8719 0.8806 0.8988 0.9120
3103.992888 0.9120 0.9105 0.9050 0.9005 0.8985
3108.662889 0.8961 0.8926 0.8906 0.8931 0.8968
3113.332891 0.9038 0.9091 0.9096 0.9105 0.9125
3118.002892 0.9144 0.9159 0.9170 0.9170 0.9178
3122.672894 0.9208 0.9236 0.9261 0.9285 0.9305
3127.342895 0.9323 0.9332 0.9340 0.9340 0.9342
3132.012897 0.9352 0.9362 0.9372 0.9380 0.9380
3136.682899 0.9381 0.9386 0.9394 0.9409 0.9422
3141.352900 0.9432 0.9449 0.9484 0.9514 0.9529
3146.022902 0.9540 0.9540 0.9542 0.9552 0.9560
3150.692903 0.9560 0.9561 0.9566 0.9571 0.9576
3155.362905 0.9580 0.9580 0.9582 0.9592 0.9604
3160.032906 0.9619 0.9633 0.9648 0.9660 0.9660
3164.702908 0.9661 0.9666 0.9672 0.9682 0.9690
3169.372909 0.9690 0.9691 0.9696 0.9700 0.9700
3174.042911 0.9700 0.9700 0.9702 0.9712 0.9721
3178.712913 0.9726 0.9732 0.9742 0.9751 0.9756
3183.382914 0.9762 0.9772 0.9780 0.9780 0.9778
3188.052916 0.9768 0.9762 0.9772 0.9780 0.9780
3192.722917 0.9780 0.9780 0.9780 0.9780 0.9781
3197.392919 0.9786 0.9790 0.9790 0.9789 0.9784
3202.062920 0.9780 0.9780 0.9781 0.9786 0.9790
3206.732922 0.9790 0.9789 0.9784 0.9780 0.9780
3211.402924 0.9780 0.9780 0.9781 0.9786 0.9790
3216.072925 0.9790 0.9790 0.9790 0.9790 0.9790
3220.742927 0.9790 0.9790 0.9790 0.9790 0.9790
3225.412928 0.9790 0.9790 0.9790 0.9790 0.9790
3230.082930 0.9790 0.9790 0.9790 0.9790 0.9790
3234.752931 0.9790 0.9790 0.9790 0.9790 0.9790
3239.422933 0.9790 0.9790 0.9790 0.9790 0.9790
3244.092935 0.9790 0.9790 0.9790 0.9790 0.9790
3248.762936 0.9790 0.9790 0.9790 0.9790 0.9791
3253.432938 0.9796 0.9799 0.9794 0.9790 0.9790
3258.102939 0.9790 0.9790 0.9790 0.9790 0.9790
3262.772941 0.9790 0.9790 0.9790 0.9790 0.9790
3267.442942 0.9790 0.9790 0.9790 0.9790 0.9790
3272.112944 0.9790 0.9790 0.9790 0.9790 0.9790
3276.782946 0.9790 0.9790 0.9790 0.9790 0.9790
3281.452947 0.9790 0.9790 0.9790 0.9790 0.9790
3286.122949 0.9790 0.9790 0.9790 0.9790 0.9790
3290.792950 0.9790 0.9790 0.9790 0.9790 0.9790
3295.462952 0.9790 0.9790 0.9791 0.9796 0.9800
3300.132953 0.9800 0.9800 0.9800 0.9800 0.9800
3304.802955 0.9800 0.9800 0.9800 0.9800 0.9800
3309.472957 0.9800 0.9800 0.9800 0.9800 0.9800
3314.142958 0.9800 0.9800 0.9800 0.9800 0.9800
3318.812960 0.9800 0.9800 0.9800 0.9800 0.9800
3323.482961 0.9800 0.9800 0.9800 0.9800 0.9800
3328.152963 0.9800 0.9800 0.9800 0.9800 0.9800
3332.822964 0.9800 0.9800 0.9800 0.9800 0.9800
3337.492966 0.9800 0.9800 0.9800 0.9800 0.9800
3342.162968 0.9800 0.9800 0.9800 0.9800 0.9800
3346.832969 0.9800 0.9800 0.9800 0.9800 0.9800
3351.502971 0.9800 0.9800 0.9800 0.9800 0.9800
3356.172972 0.9800 0.9800 0.9800 0.9800 0.9800
3360.842974 0.9800 0.9800 0.9800 0.9800 0.9800
3365.512975 0.9800 0.9800 0.9800 0.9800 0.9800
3370.182977 0.9800 0.9800 0.9800 0.9800 0.9800
3374.852978 0.9800 0.9800 0.9800 0.9800 0.9795
3379.522980 0.9790 0.9790 0.9790 0.9790 0.9790
3384.192982 0.9795 0.9800 0.9795 0.9790 0.9790
3388.862983 0.9790 0.9790 0.9790 0.9795 0.9800
3393.532985 0.9800 0.9800 0.9800 0.9800 0.9800
3398.202986 0.9800 0.9800 0.9800 0.9800 0.9800
3402.872988 0.9800 0.9800 0.9800 0.9800 0.9800
3407.542989 0.9800 0.9795 0.9790 0.9790 0.9790
3412.212991 0.9790 0.9790 0.9795 0.9800 0.9795
3416.882993 0.9790 0.9795 0.9800 0.9800 0.9800
3421.552994 0.9795 0.9790 0.9790 0.9790 0.9790
3426.222996 0.9790 0.9790 0.9790 0.9790 0.9790
3430.892997 0.9790 0.9790 0.9790 0.9790 0.9790
3435.562999 0.9790 0.9790 0.9790 0.9790 0.9790
3440.233000 0.9790 0.9790 0.9790 0.9790 0.9790
3444.903002 0.9790 0.9790 0.9790 0.9790 0.9790
3449.573004 0.9790 0.9790 0.9790 0.9790 0.9790
3454.243005 0.9790 0.9790 0.9790 0.9790 0.9790
3458.913007 0.9790 0.9790 0.9790 0.9790 0.9790
3463.583008 0.9790 0.9790 0.9790 0.9790 0.9790
3468.253010 0.9790 0.9790 0.9790 0.9790 0.9790
3472.923011 0.9790 0.9790 0.9790 0.9795 0.9800
3477.593013 0.9800 0.9800 0.9800 0.9800 0.9800
3482.263015 0.9800 0.9800 0.9800 0.9800 0.9800
3486.933016 0.9800 0.9800 0.9800 0.9800 0.9800
3491.603018 0.9800 0.9800 0.9800 0.9800 0.9800
3496.273019 0.9800 0.9800 0.9800 0.9800 0.9810
3500.943021 0.9820 0.9820 0.9820 0.9810 0.9800
3505.613022 0.9800 0.9800 0.9800 0.9800 0.9800
3510.283024 0.9800 0.9800 0.9800 0.9800 0.9800
3514.953026 0.9800 0.9800 0.9800 0.9800 0.9800
3519.623027 0.9800 0.9800 0.9800 0.9800 0.9800
3524.293029 0.9800 0.9800 0.9800 0.9800 0.9800
3528.963030 0.9800 0.9800 0.9800 0.9800 0.9800
3533.633032 0.9800 0.9800 0.9810 0.9820 0.9810
3538.303033 0.9800 0.9800 0.9800 0.9795 0.9790
3542.973035 0.9790 0.9790 0.9785 0.9780 0.9780
3547.643037 0.9780 0.9770 0.9760 0.9760 0.9760
3552.313038 0.9760 0.9760 0.9760 0.9760 0.9760
3556.983040 0.9760 0.9760 0.9760 0.9760 0.9760
3561.653041 0.9755 0.9750 0.9750 0.9750 0.9750
3566.323043 0.9750 0.9750 0.9750 0.9750 0.9750
3570.993044 0.9740 0.9730 0.9725 0.9720 0.9720
3575.663046 0.9720 0.9720 0.9720 0.9711 0.9701
3580.333047 0.9700 0.9700 0.9700 0.9700 0.9700
3585.003049 0.9700 0.9700 0.9700 0.9700 0.9700
3589.673051 0.9709 0.9719 0.9725 0.9730 0.9739
3594.343052 0.9749 0.9764 0.9779 0.9780 0.9780
3599.013054 0.9785 0.9790 0.9790 0.9790 0.9790
3603.683055 0.9790 0.9785 0.9780 0.9780 0.9780
3608.353057 0.9780 0.9780 0.9785 0.9790 0.9790
3613.023058 0.9790 0.9790 0.9790 0.9790 0.9790
3617.693060 0.9790 0.9790 0.9790 0.9790 0.9795
3622.363062 0.9800 0.9800 0.9800 0.9800 0.9800
3627.033063 0.9800 0.9800 0.9800 0.9800 0.9795
3631.703065 0.9790 0.9790 0.9790 0.9790 0.9790
3636.373066 0.9790 0.9790 0.9790 0.9790 0.9785
3641.043068 0.9780 0.9780 0.9780 0.9780 0.9780
3645.713069 0.9780 0.9780 0.9780 0.9780 0.9780
3650.383071 0.9780 0.9780 0.9780 0.9780 0.9780
3655.053073 0.9780 0.9780 0.9780 0.9780 0.9780
3659.723074 0.9780 0.9784 0.9789 0.9790 0.9790
3664.393076 0.9790 0.9790 0.9790 0.9790 0.9790
3669.063077 0.9790 0.9790 0.9790 0.9790 0.9790
3673.733079 0.9790 0.9790 0.9786 0.9781 0.9780
3678.403080 0.9780 0.9780 0.9780 0.9780 0.9780
3683.073082 0.9780 0.9780 0.9780 0.9780 0.9780
3687.743084 0.9780 0.9780 0.9780 0.9784 0.9789
3692.413085 0.9790 0.9790 0.9790 0.9790 0.9794
3697.083087 0.9799 0.9800 0.9800 0.9800 0.9800
3701.753088 0.9800 0.9800 0.9800 0.9800 0.9800
3706.423090 0.9800 0.9800 0.9800 0.9800 0.9800
3711.093091 0.9800 0.9800 0.9800 0.9800 0.9800
3715.763093 0.9800 0.9800 0.9800 0.9800 0.9800
3720.433095 0.9800 0.9800 0.9800 0.9800 0.9800
3725.103096 0.9800 0.9809 0.9819 0.9820 0.9820
3729.773098 0.9820 0.9820 0.9824 0.9829 0.9838
3734.443099 0.9848 0.9850 0.9850 0.9850 0.9850
3739.113101 0.9850 0.9850 0.9854 0.9859 0.9860
3743.783102 0.9860 0.9860 0.9860 0.9860 0.9860
3748.453104 0.9860 0.9860 0.9860 0.9860 0.9860
3753.123106 0.9860 0.9860 0.9860 0.9860 0.9860
3757.793107 0.9860 0.9860 0.9860 0.9860 0.9860
3762.463109 0.9860 0.9860 0.9860 0.9860 0.9860
3767.133110 0.9860 0.9860 0.9860 0.9860 0.9860
3771.803112 0.9860 0.9860 0.9860 0.9860 0.9860
3776.473113 0.9860 0.9860 0.9856 0.9851 0.9850
3781.143115 0.9850 0.9854 0.9859 0.9856 0.9851
3785.813116 0.9850 0.9850 0.9850 0.9850 0.9842
3790.483118 0.9832 0.9830 0.9830 0.9830 0.9830
3795.153120 0.9826 0.9821 0.9824 0.9829 0.9826
3799.823121 0.9821 0.9824 0.9829 0.9826 0.9821
##END=
