##TITLE=ETHANE
##JCAMP-DX=4.24
##DATA TYPE=INFRARED SPECTRUM
##CLASS=COBLENTZ
##ORIGIN=DOW CHEMICAL COMPANY
##OWNER=COBLENTZ SOCIETY
Collection (C) 2018 copyright by the U.S. Secretary of Commerce
on behalf of the United States of America. All rights reserved.
##DATE=1964
##CAS REGISTRY NO=74-84-0
##MOLFORM=C2 H6
##SOURCE REFERENCE=COBLENTZ NO. 8868
##$NIST SOURCE=COBLENTZ
##$NIST IMAGE=cob8868
##SPECTROMETER/DATA SYSTEM=DOW KBr FOREPRISM
##INSTRUMENT PARAMETERS=GRATING CHANGED AT 5.0, 7.5, 15.0 MICRON
##STATE=GAS (150 mmHg DILUTED TO A TOTAL PRESSURE OF 600 mmHg WITH N2)
NOTE: High partial pressure may produce unreliable values in the range
of 2700 to 3300 cm-1; see scan of original spectrum.
##PATH LENGTH=5 CM
##SAMPLING PROCEDURE=TRANSMISSION
##RESOLUTION=4
##DATA PROCESSING=DIGITIZED BY NIST FROM HARD COPY (FROM TWO SEGMENTS)
##XUNITS=1/CM
##YUNITS=TRANSMITTANCE
##XFACTOR=1.000000
##YFACTOR=1
##DELTAX=0.939261
##FIRSTX=450.219
##LASTX=3803.38
##FIRSTY=1.024
##MAXX=3803.38
##MINX=450.219
##MAXY=1.10198
##MINY=0.017
##NPOINTS=3571
##XYDATA=(X++(Y..Y))
450.219000 1.0240 1.0240 1.0240 1.0240 1.0240
454.915306 1.0240 1.0240 1.0240 1.0240 1.0260
459.611612 1.0260 1.0260 1.0260 1.0260 1.0260
464.307918 1.0260 1.0270 1.0270 1.0280 1.0280
469.004224 1.0310 1.0310 1.0330 1.0340 1.0340
473.700530 1.0360 1.0370 1.0370 1.0370 1.0390
478.396836 1.0410 1.0470 1.0470 1.0470 1.0490
483.093142 1.0500 1.0500 1.0500 1.0520 1.0540
487.789448 1.0540 1.0570 1.0590 1.0590 1.0600
492.485755 1.0600 1.0620 1.0620 1.0620 1.0620
497.182061 1.0620 1.0630 1.0620 1.0630 1.0630
501.878367 1.0630 1.0630 1.0630 1.0650 1.0650
506.574673 1.0650 1.0650 1.0630 1.0630 1.0620
511.270979 1.0620 1.0620 1.0630 1.0620 1.0620
515.967285 1.0630 1.0630 1.0660 1.0660 1.0660
520.663591 1.0660 1.0660 1.0660 1.0660 1.0650
525.359897 1.0650 1.0630 1.0620 1.0620 1.0600
530.056203 1.0600 1.0590 1.0590 1.0570 1.0570
534.752509 1.0560 1.0540 1.0530 1.0530 1.0520
539.448815 1.0500 1.0500 1.0490 1.0470 1.0470
544.145121 1.0460 1.0460 1.0460 1.0460 1.0440
548.841427 1.0440 1.0440 1.0440 1.0440 1.0440
553.537733 1.0440 1.0440 1.0460 1.0460 1.0460
558.234039 1.0460 1.0470 1.0470 1.0490 1.0490
562.930345 1.0500 1.0500 1.0520 1.0520 1.0540
567.626652 1.0540 1.0560 1.0560 1.0570 1.0570
572.322958 1.0590 1.0600 1.0600 1.0620 1.0630
577.019264 1.0650 1.0650 1.0650 1.0660 1.0660
581.715570 1.0680 1.0690 1.0690 1.0690 1.0690
586.411876 1.0690 1.0690 1.0690 1.0700 1.0700
591.108182 1.0700 1.0700 1.0700 1.0720 1.0720
595.804488 1.0720 1.0720 1.0720 1.0720 1.0720
600.500794 1.0720 1.0720 1.0720 1.0720 1.0720
605.197100 1.0700 1.0700 1.0700 1.0690 1.0690
609.893406 1.0690 1.0680 1.0680 1.0680 1.0660
614.589712 1.0660 1.0660 1.0660 1.0660 1.0660
619.286018 1.0650 1.0650 1.0650 1.0650 1.0650
623.982324 1.0650 1.0650 1.0660 1.0660 1.0660
628.678630 1.0680 1.0680 1.0680 1.0700 1.0700
633.374936 1.0720 1.0720 1.0720 1.0720 1.0730
638.071242 1.0750 1.0760 1.0780 1.0790 1.0810
642.767548 1.0810 1.0830 1.0850 1.0850 1.0850
647.463855 1.0830 1.0830 1.0820 1.0820 1.0820
652.160161 1.0820 1.0820 1.0810 1.0810 1.0810
656.856467 1.0810 1.0810 1.0810 1.0810 1.0790
661.552773 1.0790 1.0810 1.0810 1.0810 1.0790
666.249079 1.0810 1.0830 1.1020 1.0920 1.0890
670.945385 1.0880 1.0860 1.0850 1.0850 1.0850
675.641691 1.0830 1.0820 1.0810 1.0790 1.0780
680.337997 1.0750 1.0730 1.0730 1.0720 1.0700
685.034303 1.0690 1.0690 1.0680 1.0660 1.0650
689.730609 1.0620 1.0600 1.0600 1.0590 1.0570
694.426915 1.0570 1.0560 1.0540 1.0540 1.0530
699.123221 1.0530 1.0520 1.0500 1.0490 1.0490
703.819527 1.0470 1.0460 1.0440 1.0440 1.0430
708.515833 1.0410 1.0400 1.0400 1.0390 1.0370
713.212139 1.0360 1.0340 1.0340 1.0330 1.0310
717.908445 1.0310 1.0300 1.0300 1.0280 1.0270
722.604752 1.0270 1.0260 1.0260 1.0260 1.0240
727.301058 1.0240 1.0240 1.0230 1.0210 1.0210
731.997364 1.0210 1.0210 1.0200 1.0180 1.0170
736.693670 1.0150 1.0140 1.0130 1.0110 1.0100
741.389976 1.0100 1.0100 1.0080 1.0070 1.0050
746.086282 1.0040 1.0020 1.0010 1.0020 1.0010
750.782588 1.0000 1.0000 0.9980 0.9980 0.9940
755.478894 0.9910 0.9880 0.9860 0.9850 0.9810
760.175200 0.9780 0.9760 0.9730 0.9720 0.9710
764.871506 0.9680 0.9650 0.9600 0.9580 0.9550
769.567812 0.9500 0.9460 0.9420 0.9370 0.9330
774.264118 0.9310 0.9240 0.9230 0.9180 0.9140
778.960424 0.9130 0.9110 0.9030 0.8950 0.8910
783.656730 0.8900 0.8880 0.8870 0.8810 0.8750
788.353036 0.8740 0.8720 0.8710 0.8610 0.8580
793.049342 0.8450 0.8390 0.8390 0.8490 0.8490
797.745648 0.8270 0.8130 0.7980 0.7840 0.7840
802.441955 0.7880 0.8298 0.8320 0.8330 0.8290
807.138261 0.7260 0.7260 0.8299 0.7521 0.7490
811.834567 0.7101 0.7100 0.8285 0.8290 0.7076
816.530873 0.6640 0.6640 0.7778 0.8399 0.8260
821.227179 0.7512 0.6833 0.6173 0.6160 0.6170
825.923485 0.6450 0.8158 0.8070 0.8000 0.7013
830.619791 0.6462 0.6540 0.7058 0.7736 0.8157
835.316097 0.6680 0.6670 0.6670 0.6780 0.7977
840.012403 0.8000 0.8010 0.8010 0.7363 0.7330
844.708709 0.7360 0.7810 0.7810 0.7750 0.7670
849.405015 0.7670 0.7770 0.7850 0.7949 0.7980
854.101321 0.8030 0.8060 0.8080 0.8100 0.8160
858.797627 0.8260 0.8270 0.8300 0.8330 0.8370
863.493933 0.8420 0.8520 0.8530 0.8560 0.8590
868.190239 0.8620 0.8720 0.8780 0.8820 0.8880
872.886545 0.8940 0.8970 0.9040 0.9070 0.9080
877.582852 0.9110 0.9140 0.9200 0.9230 0.9270
882.279158 0.9310 0.9340 0.9360 0.9420 0.9460
886.975464 0.9490 0.9520 0.9550 0.9560 0.9580
891.671770 0.9600 0.9630 0.9650 0.9660 0.9690
896.368076 0.9720 0.9730 0.9760 0.9760 0.9780
901.064382 0.9790 0.9840 0.9850 0.9850 0.9860
905.760688 0.9880 0.9880 0.9890 0.9910 0.9910
910.456994 0.9910 0.9920 0.9920 0.9940 0.9970
915.153300 0.9980 0.9970 0.9980 0.9980 1.0000
919.849606 1.0000 1.0010 1.0010 1.0020 1.0020
924.545912 1.0020 1.0020 1.0040 1.0040 1.0040
929.242218 1.0040 1.0040 1.0040 1.0050 1.0050
933.938524 1.0050 1.0050 1.0050 1.0050 1.0070
938.634830 1.0070 1.0070 1.0070 1.0070 1.0070
943.331136 1.0080 1.0080 1.0080 1.0080 1.0080
948.027442 1.0080 1.0080 1.0080 1.0080 1.0080
952.723748 1.0080 1.0080 1.0080 1.0080 1.0080
957.420055 1.0080 1.0080 1.0070 1.0070 1.0070
962.116361 1.0070 1.0070 1.0070 1.0070 1.0070
966.812667 1.0070 1.0070 1.0070 1.0070 1.0070
971.508973 1.0070 1.0070 1.0070 1.0070 1.0070
976.205279 1.0070 1.0070 1.0070 1.0070 1.0050
980.901585 1.0050 1.0040 1.0040 1.0040 1.0040
985.597891 1.0040 1.0040 1.0040 1.0040 1.0040
990.294197 1.0040 1.0040 1.0040 1.0040 1.0040
994.990503 1.0040 1.0040 1.0040 1.0020 1.0020
999.686809 1.0020 1.0020 1.0010 1.0010 1.0010
1004.383115 1.0010 1.0010 1.0010 1.0010 1.0010
1009.079421 1.0020 1.0020 1.0020 1.0020 1.0020
1013.775727 1.0020 1.0020 1.0040 1.0040 1.0050
1018.472033 1.0050 1.0070 1.0070 1.0080 1.0080
1023.168339 1.0080 1.0100 1.0080 1.0080 1.0080
1027.864645 1.0080 1.0080 1.0080 1.0080 1.0080
1032.560952 1.0080 1.0080 1.0080 1.0080 1.0080
1037.257258 1.0080 1.0070 1.0070 1.0070 1.0070
1041.953564 1.0070 1.0070 1.0070 1.0070 1.0070
1046.649870 1.0050 1.0050 1.0050 1.0050 1.0050
1051.346176 1.0050 1.0050 1.0050 1.0050 1.0050
1056.042482 1.0040 1.0040 1.0040 1.0040 1.0040
1060.738788 1.0020 1.0020 1.0020 1.0020 1.0020
1065.435094 1.0020 1.0010 1.0010 1.0010 1.0010
1070.131400 1.0010 1.0010 1.0010 1.0010 1.0010
1074.827706 1.0010 1.0010 1.0010 1.0020 1.0020
1079.524012 1.0040 1.0040 1.0040 1.0050 1.0050
1084.220318 1.0050 1.0070 1.0070 1.0080 1.0080
1088.916624 1.0080 1.0080 1.0080 1.0080 1.0100
1093.612930 1.0100 1.0100 1.0100 1.0100 1.0100
1098.309236 1.0080 1.0080 1.0080 1.0080 1.0080
1103.005542 1.0080 1.0080 1.0080 1.0080 1.0100
1107.701848 1.0100 1.0110 1.0110 1.0130 1.0130
1112.398155 1.0130 1.0130 1.0130 1.0130 1.0130
1117.094461 1.0130 1.0130 1.0130 1.0130 1.0130
1121.790767 1.0130 1.0130 1.0130 1.0130 1.0130
1126.487073 1.0130 1.0130 1.0130 1.0130 1.0130
1131.183379 1.0110 1.0110 1.0110 1.0100 1.0100
1135.879685 1.0100 1.0080 1.0080 1.0080 1.0070
1140.575991 1.0070 1.0070 1.0070 1.0080 1.0080
1145.272297 1.0080 1.0080 1.0080 1.0080 1.0080
1149.968603 1.0080 1.0080 1.0100 1.0100 1.0100
1154.664909 1.0100 1.0100 1.0100 1.0100 1.0100
1159.361215 1.0100 1.0100 1.0100 1.0110 1.0110
1164.057521 1.0110 1.0110 1.0110 1.0110 1.0110
1168.753827 1.0110 1.0110 1.0100 1.0100 1.0100
1173.450133 1.0110 1.0110 1.0100 1.0080 1.0040
1178.146439 1.0020 1.0010 1.0010 1.0020 1.0050
1182.842745 1.0080 1.0100 1.0110 1.0130 1.0130
1187.539052 1.0130 1.0130 1.0130 1.0130 1.0140
1192.235358 1.0140 1.0140 1.0140 1.0130 1.0130
1196.931664 1.0140 1.0140 1.0140 1.0140 1.0140
1201.627970 1.0140 1.0150 1.0150 1.0150 1.0150
1206.324276 1.0150 1.0150 1.0170 1.0170 1.0170
1211.020582 1.0170 1.0170 1.0180 1.0180 1.0180
1215.716888 1.0180 1.0200 1.0200 1.0200 1.0200
1220.413194 1.0200 1.0200 1.0200 1.0210 1.0210
1225.109500 1.0230 1.0230 1.0240 1.0240 1.0240
1229.805806 1.0240 1.0240 1.0240 1.0240 1.0240
1234.502112 1.0230 1.0210 1.0200 1.0180 1.0170
1239.198418 1.0170 1.0150 1.0150 1.0150 1.0140
1243.894724 1.0140 1.0140 1.0140 1.0140 1.0140
1248.591030 1.0140 1.0140 1.0140 1.0140 1.0140
1253.287336 1.0140 1.0140 1.0140 1.0130 1.0130
1257.983642 1.0130 1.0110 1.0110 1.0110 1.0110
1262.679948 1.0110 1.0110 1.0110 1.0110 1.0110
1267.376255 1.0130 1.0110 1.0110 1.0110 1.0110
1272.072561 1.0110 1.0110 1.0110 1.0110 1.0110
1276.768867 1.0110 1.0110 1.0100 1.0100 1.0080
1281.465173 1.0070 1.0070 1.0050 1.0040 1.0040
1286.161479 1.0020 1.0040 1.0040 1.0040 1.0020
1290.857785 1.0020 1.0020 1.0010 1.0010 1.0010
1295.554091 1.0010 1.0010 1.0010 1.0010 1.0010
1300.250397 1.0010 1.0000 1.0010 1.0010 1.0000
1304.946703 1.0000 1.0000 1.0000 1.0000 1.0000
1309.643009 1.0000 0.9980 1.0010 1.0010 1.0010
1314.339315 1.0010 1.0000 1.0000 1.0000 1.0000
1319.035621 1.0010 1.0010 1.0010 1.0010 1.0010
1323.731927 1.0010 1.0000 1.0000 1.0000 0.9980
1328.428233 0.9980 0.9980 0.9980 1.0000 1.0000
1333.124539 1.0000 1.0000 1.0000 1.0000 1.0000
1337.820845 0.9970 0.9731 0.9999 0.9980 0.9970
1342.517152 0.9940 0.9920 0.9910 0.9890 0.9860
1347.213458 0.9850 0.9850 0.9850 0.9840 0.9820
1351.909764 0.9790 0.9780 0.9760 0.9760 0.9710
1356.606070 0.9660 0.9650 0.9630 0.9630 0.9590
1361.302376 0.9560 0.9500 0.9470 0.9430 0.9490
1365.998682 0.9450 0.9430 0.9340 0.9270 0.9210
1370.694988 0.9140 0.9260 0.9180 0.9130 0.9010
1375.391294 0.8940 0.8781 0.8720 0.8451 0.7983
1380.087600 0.7490 0.7010 0.7010 0.7968 0.9007
1384.783906 0.8940 0.8920 0.8811 0.8720 0.8710
1389.480212 0.8550 0.8400 0.8320 0.8300 0.8260
1394.176518 0.8130 0.7971 0.7781 0.7671 0.7610
1398.872824 0.7610 0.7560 0.7510 0.7400 0.7320
1403.569130 0.7270 0.7270 0.7399 0.7400 0.7380
1408.265436 0.7360 0.7360 0.7360 0.7390 0.7400
1412.961742 0.7420 0.7490 0.7550 0.7580 0.7580
1417.658048 0.7620 0.7620 0.7520 0.7480 0.7420
1422.354355 0.7420 0.7460 0.7490 0.7490 0.6873
1427.050661 0.6870 0.7250 0.7260 0.7420 0.7420
1431.746967 0.6623 0.6620 0.6939 0.7228 0.7001
1436.443273 0.6830 0.6480 0.6480 0.6800 0.6800
1441.139579 0.6620 0.6191 0.6031 0.6030 0.6458
1445.835885 0.6590 0.6590 0.5961 0.5700 0.6189
1450.532191 0.6409 0.6649 0.6740 0.5526 0.5261
1455.228497 0.5000 0.6448 0.6151 0.5152 0.4133
1459.924803 0.4130 0.5016 0.6871 0.6671 0.5964
1464.621109 0.5250 0.4001 0.4000 0.6835 0.6850
1469.317415 0.5903 0.4933 0.4213 0.6290 0.5862
1474.013721 0.5390 0.3991 0.6696 0.6001 0.5741
1478.710027 0.5610 0.5481 0.5221 0.6732 0.5786
1483.406333 0.5470 0.5130 0.6379 0.6799 0.6431
1488.102639 0.6091 0.6449 0.5812 0.5611 0.5411
1492.798945 0.6930 0.6780 0.6620 0.5572 0.4503
1497.495252 0.7311 0.7320 0.6265 0.5713 0.5451
1502.191558 0.5180 0.6429 0.7259 0.6611 0.5892
1506.887864 0.5153 0.6255 0.7245 0.7250 0.6107
1511.584170 0.5510 0.5510 0.6589 0.6999 0.7000
1516.280476 0.6103 0.6100 0.6807 0.7447 0.7450
1520.976782 0.7160 0.6261 0.6230 0.6879 0.7668
1525.673088 0.7670 0.6853 0.6322 0.6320 0.6638
1530.369394 0.6830 0.7799 0.7800 0.7012 0.7010
1535.065700 0.7668 0.7869 0.7950 0.7880 0.7522
1539.762006 0.7520 0.7810 0.8030 0.7741 0.7820
1544.458312 0.8079 0.8259 0.8320 0.8171 0.8170
1549.154618 0.8290 0.8330 0.8370 0.8460 0.8530
1553.850924 0.8580 0.8709 0.8780 0.8780 0.8720
1558.547230 0.8720 0.8740 0.8900 0.8970 0.9000
1563.243536 0.9010 0.9040 0.9070 0.9080 0.9080
1567.939842 0.9070 0.9100 0.9130 0.9230 0.9230
1572.636148 0.9290 0.9310 0.9340 0.9400 0.9489
1577.332455 0.9530 0.9490 0.9460 0.9490 0.9530
1582.028761 0.9560 0.9560 0.9580 0.9580 0.9580
1586.725067 0.9590 0.9620 0.9630 0.9650 0.9660
1591.421373 0.9680 0.9690 0.9710 0.9720 0.9750
1596.117679 0.9750 0.9730 0.9730 0.9750 0.9760
1600.813985 0.9780 0.9790 0.9790 0.9790 0.9810
1605.510291 0.9810 0.9810 0.9810 0.9820 0.9820
1610.206597 0.9820 0.9810 0.9840 0.9840 0.9850
1614.902903 0.9850 0.9860 0.9920 0.9920 0.9850
1619.599209 0.9820 0.9810 0.9820 0.9840 0.9880
1624.295515 0.9880 0.9840 0.9840 0.9840 0.9820
1628.991821 0.9810 0.9810 0.9780 0.9780 0.9790
1633.688127 0.9810 0.9890 0.9920 0.9970 1.0000
1638.384433 0.9880 0.9820 0.9760 0.9760 0.9760
1643.080739 0.9780 0.9780 0.9790 0.9820 0.9860
1647.777045 0.9850 0.9810 0.9790 0.9840 0.9890
1652.473352 1.0020 1.0010 0.9940 0.9850 0.9810
1657.169658 0.9790 0.9790 0.9790 0.9810 0.9810
1661.865964 0.9880 0.9860 0.9860 0.9840 0.9810
1666.562270 0.9810 0.9810 0.9840 0.9880 0.9910
1671.258576 0.9880 0.9860 0.9840 0.9840 0.9880
1675.954882 0.9910 0.9850 0.9810 0.9810 0.9810
1680.651188 0.9810 0.9840 0.9890 1.0010 0.9980
1685.347494 0.9940 0.9890 0.9860 0.9850 0.9850
1690.043800 0.9850 0.9820 0.9790 0.9790 0.9820
1694.740106 0.9850 0.9880 0.9920 0.9970 0.9980
1699.436412 0.9970 0.9970 0.9890 0.9840 0.9850
1704.132718 0.9850 0.9850 0.9850 0.9850 0.9840
1708.829024 0.9820 0.9790 0.9780 0.9790 0.9790
1713.525330 0.9850 0.9880 0.9880 0.9890 0.9910
1718.221636 0.9920 0.9920 0.9860 0.9810 0.9810
1722.917942 0.9790 0.9810 0.9810 0.9790 0.9780
1727.614248 0.9750 0.9780 0.9790 0.9820 0.9850
1732.310555 0.9890 0.9890 0.9920 0.9850 0.9790
1737.006861 0.9790 0.9810 0.9810 0.9820 0.9820
1741.703167 0.9820 0.9810 0.9790 0.9780 0.9790
1746.399473 0.9810 0.9820 0.9840 0.9840 0.9840
1751.095779 0.9820 0.9820 0.9780 0.9780 0.9750
1755.792085 0.9760 0.9780 0.9790 0.9790 0.9790
1760.488391 0.9790 0.9780 0.9750 0.9750 0.9750
1765.184697 0.9750 0.9730 0.9750 0.9760 0.9760
1769.881003 0.9780 0.9840 0.9840 0.9780 0.9760
1774.577309 0.9760 0.9760 0.9760 0.9750 0.9720
1779.273615 0.9720 0.9730 0.9730 0.9730 0.9730
1783.969921 0.9750 0.9750 0.9730 0.9730 0.9750
1788.666227 0.9750 0.9730 0.9730 0.9820 0.9820
1793.362533 0.9780 0.9760 0.9750 0.9750 0.9750
1798.058839 0.9750 0.9750 0.9780 0.9780 0.9750
1802.755145 0.9750 0.9750 0.9730 0.9750 0.9750
1807.451452 0.9750 0.9750 0.9750 0.9750 0.9730
1812.147758 0.9730 0.9750 0.9750 0.9750 0.9750
1816.844064 0.9750 0.9750 0.9730 0.9730 0.9730
1821.540370 0.9750 0.9750 0.9750 0.9750 0.9750
1826.236676 0.9750 0.9760 0.9760 0.9780 0.9780
1830.932982 0.9760 0.9760 0.9750 0.9750 0.9750
1835.629288 0.9750 0.9750 0.9750 0.9750 0.9750
1840.325594 0.9760 0.9780 0.9810 0.9810 0.9780
1845.021900 0.9760 0.9760 0.9760 0.9760 0.9760
1849.718206 0.9750 0.9750 0.9750 0.9760 0.9760
1854.414512 0.9760 0.9780 0.9780 0.9780 0.9780
1859.110818 0.9780 0.9780 0.9760 0.9760 0.9780
1863.807124 0.9780 0.9780 0.9790 0.9790 0.9810
1868.503430 0.9820 0.9820 0.9790 0.9780 0.9780
1873.199736 0.9780 0.9780 0.9780 0.9780 0.9780
1877.896042 0.9780 0.9790 0.9790 0.9780 0.9780
1882.592348 0.9780 0.9780 0.9790 0.9790 0.9790
1887.288655 0.9790 0.9790 0.9810 0.9810 0.9790
1891.984961 0.9790 0.9790 0.9790 0.9810 0.9810
1896.681267 0.9790 0.9780 0.9780 0.9780 0.9780
1901.377573 0.9780 0.9780 0.9780 0.9790 0.9790
1906.073879 0.9790 0.9790 0.9790 0.9790 0.9790
1910.770185 0.9790 0.9790 0.9790 0.9790 0.9790
1915.466491 0.9790 0.9790 0.9810 0.9790 0.9790
1920.162797 0.9790 0.9790 0.9790 0.9790 0.9790
1924.859103 0.9790 0.9790 0.9790 0.9790 0.9790
1929.555409 0.9790 0.9780 0.9790 0.9790 0.9780
1934.251715 0.9780 0.9780 0.9780 0.9780 0.9780
1938.948021 0.9780 0.9780 0.9790 0.9810 0.9790
1943.644327 0.9790 0.9790 0.9790 0.9790 0.9790
1948.340633 0.9790 0.9790 0.9790 0.9780 0.9780
1953.036939 0.9790 0.9790 0.9780 0.9780 0.9780
1957.733245 0.9780 0.9780 0.9760 0.9760 0.9760
1962.429552 0.9760 0.9780 0.9780 0.9780 0.9780
1967.125858 0.9780 0.9780 0.9780 0.9780 0.9780
1971.822164 0.9780 0.9780 0.9780 0.9780 0.9780
1976.518470 0.9760 0.9760 0.9760 0.9760 0.9760
1981.214776 0.9780 0.9780 0.9780 0.9780 0.9780
1985.911082 0.9780 0.9780 0.9780 0.9780 0.9780
1990.607388 0.9790 0.9810 0.9810 0.9790 0.9790
1995.303694 0.9790 0.9790 0.9790 0.9790 0.9790
2000.000000 0.9790 0.9785 0.9780 0.9780 0.9780
2004.696306 0.9755 0.9730 0.9681 0.9631 0.9630
2009.392612 0.9630 0.9702 0.9777 0.9780 0.9780
2014.088918 0.9770 0.9761 0.9760 0.9760 0.9760
2018.785224 0.9760 0.9770 0.9779 0.9780 0.9780
2023.481530 0.9766 0.9751 0.9750 0.9750 0.9750
2028.177836 0.9750 0.9741 0.9731 0.9730 0.9730
2032.874142 0.9730 0.9730 0.9730 0.9730 0.9730
2037.570448 0.9730 0.9730 0.9730 0.9739 0.9749
2042.266755 0.9754 0.9759 0.9760 0.9760 0.9760
2046.963061 0.9760 0.9760 0.9760 0.9760 0.9760
2051.659367 0.9760 0.9760 0.9760 0.9760 0.9760
2056.355673 0.9760 0.9760 0.9760 0.9760 0.9760
2061.051979 0.9760 0.9760 0.9760 0.9760 0.9760
2065.748285 0.9760 0.9760 0.9760 0.9760 0.9760
2070.444591 0.9760 0.9760 0.9760 0.9760 0.9760
2075.140897 0.9760 0.9760 0.9760 0.9760 0.9760
2079.837203 0.9760 0.9760 0.9768 0.9778 0.9772
2084.533509 0.9762 0.9760 0.9760 0.9760 0.9760
2089.229815 0.9760 0.9760 0.9760 0.9760 0.9760
2093.926121 0.9760 0.9760 0.9760 0.9760 0.9760
2098.622427 0.9760 0.9760 0.9760 0.9760 0.9760
2103.318733 0.9760 0.9760 0.9760 0.9760 0.9760
2108.015039 0.9760 0.9760 0.9760 0.9760 0.9760
2112.711345 0.9760 0.9760 0.9760 0.9760 0.9760
2117.407652 0.9760 0.9760 0.9760 0.9760 0.9760
2122.103958 0.9760 0.9760 0.9760 0.9760 0.9760
2126.800264 0.9760 0.9760 0.9760 0.9760 0.9760
2131.496570 0.9760 0.9760 0.9760 0.9760 0.9760
2136.192876 0.9760 0.9760 0.9760 0.9760 0.9760
2140.889182 0.9760 0.9760 0.9760 0.9760 0.9760
2145.585488 0.9760 0.9760 0.9760 0.9760 0.9760
2150.281794 0.9760 0.9760 0.9760 0.9760 0.9760
2154.978100 0.9760 0.9760 0.9760 0.9760 0.9760
2159.674406 0.9760 0.9757 0.9752 0.9750 0.9750
2164.370712 0.9750 0.9750 0.9750 0.9750 0.9750
2169.067018 0.9750 0.9744 0.9734 0.9730 0.9730
2173.763324 0.9730 0.9730 0.9730 0.9730 0.9727
2178.459630 0.9722 0.9720 0.9720 0.9717 0.9712
2183.155936 0.9710 0.9710 0.9710 0.9710 0.9705
2187.852242 0.9695 0.9690 0.9690 0.9690 0.9690
2192.548548 0.9690 0.9690 0.9687 0.9682 0.9680
2197.244855 0.9680 0.9680 0.9680 0.9680 0.9680
2201.941161 0.9675 0.9665 0.9660 0.9660 0.9660
2206.637467 0.9660 0.9660 0.9660 0.9660 0.9660
2211.333773 0.9660 0.9660 0.9660 0.9660 0.9658
2216.030079 0.9653 0.9650 0.9650 0.9650 0.9650
2220.726385 0.9646 0.9636 0.9628 0.9623 0.9620
2225.422691 0.9620 0.9620 0.9620 0.9622 0.9627
2230.118997 0.9630 0.9630 0.9634 0.9644 0.9650
2234.815303 0.9650 0.9650 0.9650 0.9652 0.9657
2239.511609 0.9660 0.9660 0.9660 0.9660 0.9664
2244.207915 0.9674 0.9680 0.9680 0.9680 0.9680
2248.904221 0.9680 0.9680 0.9680 0.9680 0.9680
2253.600527 0.9680 0.9680 0.9680 0.9680 0.9680
2258.296833 0.9680 0.9680 0.9680 0.9680 0.9680
2262.993139 0.9680 0.9682 0.9687 0.9690 0.9690
2267.689445 0.9690 0.9690 0.9690 0.9690 0.9690
2272.385752 0.9690 0.9690 0.9690 0.9690 0.9690
2277.082058 0.9690 0.9690 0.9690 0.9690 0.9690
2281.778364 0.9690 0.9690 0.9690 0.9688 0.9684
2286.474670 0.9680 0.9680 0.9680 0.9680 0.9677
2291.170976 0.9667 0.9660 0.9660 0.9660 0.9660
2295.867282 0.9660 0.9660 0.9660 0.9660 0.9663
2300.563588 0.9673 0.9681 0.9686 0.9690 0.9690
2305.259894 0.9690 0.9690 0.9692 0.9702 0.9710
2309.956200 0.9710 0.9711 0.9716 0.9723 0.9738
2314.652506 0.9751 0.9756 0.9760 0.9760 0.9763
2319.348812 0.9778 0.9792 0.9802 0.9811 0.9816
2324.045118 0.9822 0.9832 0.9840 0.9840 0.9838
2328.741424 0.9828 0.9820 0.9820 0.9820 0.9820
2333.437730 0.9819 0.9814 0.9808 0.9798 0.9792
2338.134036 0.9802 0.9810 0.9810 0.9808 0.9798
2342.830342 0.9789 0.9784 0.9778 0.9763 0.9748
2347.526648 0.9733 0.9718 0.9703 0.9689 0.9684
2352.222955 0.9683 0.9708 0.9735 0.9775 0.9811
2356.919261 0.9816 0.9822 0.9837 0.9852 0.9872
2361.615567 0.9890 0.9890 0.9888 0.9873 0.9860
2366.311873 0.9855 0.9846 0.9801 0.9751 0.9646
2371.008179 0.9550 0.9550 0.9562 0.9726 0.9879
2375.704485 0.9864 0.9849 0.9834 0.9815 0.9745
2380.400791 0.9676 0.9616 0.9558 0.9528 0.9498
2385.097097 0.9463 0.9430 0.9425 0.9420 0.9420
2389.793403 0.9420 0.9425 0.9430 0.9445 0.9461
2394.489709 0.9491 0.9521 0.9541 0.9561 0.9580
2399.186015 0.9601 0.9625 0.9650 0.9670 0.9690
2403.882321 0.9710 0.9730 0.9745 0.9760 0.9760
2408.578627 0.9760 0.9760 0.9760 0.9770 0.9780
2413.274933 0.9785 0.9790 0.9790 0.9790 0.9790
2417.971239 0.9790 0.9790 0.9790 0.9785 0.9780
2422.667545 0.9780 0.9780 0.9780 0.9780 0.9780
2427.363852 0.9780 0.9780 0.9780 0.9780 0.9780
2432.060158 0.9785 0.9790 0.9790 0.9790 0.9790
2436.756464 0.9790 0.9790 0.9790 0.9790 0.9790
2441.452770 0.9790 0.9790 0.9790 0.9790 0.9790
2446.149076 0.9790 0.9790 0.9790 0.9790 0.9790
2450.845382 0.9790 0.9790 0.9790 0.9790 0.9790
2455.541688 0.9790 0.9790 0.9790 0.9790 0.9790
2460.237994 0.9790 0.9790 0.9786 0.9781 0.9780
2464.934300 0.9780 0.9780 0.9780 0.9780 0.9780
2469.630606 0.9780 0.9780 0.9780 0.9780 0.9780
2474.326912 0.9780 0.9780 0.9780 0.9784 0.9789
2479.023218 0.9786 0.9781 0.9780 0.9780 0.9784
2483.719524 0.9789 0.9790 0.9790 0.9790 0.9790
2488.415830 0.9790 0.9790 0.9790 0.9790 0.9790
2493.112136 0.9790 0.9790 0.9790 0.9790 0.9790
2497.808442 0.9790 0.9790 0.9790 0.9790 0.9790
2502.504748 0.9790 0.9790 0.9790 0.9790 0.9790
2507.201055 0.9790 0.9790 0.9790 0.9790 0.9790
2511.897361 0.9790 0.9790 0.9790 0.9790 0.9790
2516.593667 0.9790 0.9790 0.9790 0.9790 0.9790
2521.289973 0.9790 0.9790 0.9790 0.9790 0.9790
2525.986279 0.9790 0.9790 0.9790 0.9790 0.9790
2530.682585 0.9790 0.9790 0.9790 0.9790 0.9790
2535.378891 0.9790 0.9790 0.9787 0.9782 0.9780
2540.075197 0.9780 0.9780 0.9780 0.9780 0.9780
2544.771503 0.9780 0.9780 0.9780 0.9780 0.9780
2549.467809 0.9780 0.9780 0.9780 0.9780 0.9780
2554.164115 0.9774 0.9764 0.9760 0.9760 0.9760
2558.860421 0.9760 0.9760 0.9760 0.9760 0.9760
2563.556727 0.9760 0.9760 0.9760 0.9760 0.9760
2568.253033 0.9760 0.9757 0.9752 0.9750 0.9750
2572.949339 0.9750 0.9750 0.9750 0.9750 0.9750
2577.645645 0.9750 0.9744 0.9734 0.9730 0.9730
2582.341952 0.9730 0.9730 0.9730 0.9730 0.9730
2587.038258 0.9730 0.9727 0.9722 0.9717 0.9712
2591.734564 0.9705 0.9695 0.9690 0.9690 0.9687
2596.430870 0.9682 0.9680 0.9680 0.9680 0.9680
2601.127176 0.9675 0.9665 0.9657 0.9652 0.9650
2605.823482 0.9650 0.9645 0.9635 0.9627 0.9622
2610.519788 0.9615 0.9605 0.9600 0.9600 0.9598
2615.216094 0.9593 0.9588 0.9583 0.9575 0.9565
2619.912400 0.9558 0.9553 0.9545 0.9535 0.9530
2624.608706 0.9530 0.9530 0.9530 0.9530 0.9530
2629.305012 0.9528 0.9523 0.9516 0.9506 0.9498
2634.001318 0.9493 0.9486 0.9476 0.9468 0.9463
2638.697624 0.9460 0.9460 0.9460 0.9460 0.9460
2643.393930 0.9460 0.9458 0.9453 0.9450 0.9450
2648.090236 0.9450 0.9450 0.9450 0.9450 0.9450
2652.786542 0.9450 0.9446 0.9436 0.9430 0.9430
2657.482848 0.9430 0.9430 0.9430 0.9430 0.9430
2662.179155 0.9430 0.9430 0.9430 0.9430 0.9430
2666.875461 0.9430 0.9430 0.9430 0.9430 0.9430
2671.571767 0.9430 0.9430 0.9430 0.9430 0.9430
2676.268073 0.9430 0.9430 0.9430 0.9430 0.9433
2680.964379 0.9443 0.9450 0.9450 0.9452 0.9457
2685.660685 0.9460 0.9460 0.9460 0.9460 0.9460
2690.356991 0.9460 0.9461 0.9466 0.9473 0.9483
2695.053297 0.9490 0.9490 0.9491 0.9496 0.9503
2699.749603 0.9513 0.9520 0.9520 0.9516 0.9501
2704.445909 0.9490 0.9490 0.9490 0.9490 0.9490
2709.142215 0.9490 0.9488 0.9478 0.9469 0.9464
2713.838521 0.9456 0.9441 0.9429 0.9424 0.9420
2718.534827 0.9420 0.9413 0.9383 0.9357 0.9342
2723.231133 0.9327 0.9312 0.9296 0.9276 0.9257
2727.927439 0.9242 0.9227 0.9212 0.9197 0.9182
2732.623745 0.9167 0.9152 0.9137 0.9122 0.9110
2737.320052 0.9110 0.9110 0.9110 0.9112 0.9122
2742.016358 0.9131 0.9136 0.9143 0.9158 0.9171
2746.712664 0.9176 0.9180 0.9180 0.9121 0.8727
2751.408970 0.8351 0.8079 0.7852 0.7862 0.7962
2756.105276 0.8565 0.9089 0.9149 0.9200 0.9200
2760.801582 0.9190 0.9115 0.9039 0.8949 0.8863
2765.497888 0.8803 0.8748 0.8728 0.8698 0.8589
2770.194194 0.8482 0.8396 0.8319 0.8309 0.8296
2774.890500 0.8261 0.8229 0.8219 0.8211 0.8221
2779.586806 0.8239 0.8338 0.8436 0.8511 0.8586
2784.283112 0.8676 0.8766 0.8856 0.8941 0.8961
2788.979418 0.8981 0.8991 0.9004 0.9058 0.9112
2793.675724 0.9147 0.9181 0.9190 0.9200 0.9190
2798.372030 0.9176 0.9087 0.8999 0.8969 0.8939
2803.068336 0.8920 0.8899 0.8870 0.8840 0.8825
2807.764642 0.8810 0.8810 0.8809 0.8764 0.8720
2812.460948 0.8705 0.8690 0.8670 0.8650 0.8630
2817.157255 0.8610 0.8600 0.8590 0.8570 0.8550
2821.853561 0.8506 0.8461 0.8416 0.8371 0.8360
2826.549867 0.8350 0.8340 0.8330 0.8315 0.8300
2831.246173 0.8232 0.8163 0.8103 0.8043 0.7997
2835.942479 0.7952 0.7945 0.7940 0.7865 0.7785
2840.638785 0.7705 0.7626 0.7569 0.7514 0.7473
2845.335091 0.7433 0.7370 0.7305 0.7254 0.7204
2850.031397 0.7136 0.7066 0.6859 0.6640 0.6416
2854.727703 0.6192 0.6121 0.6066 0.6006 0.5947
2859.424009 0.5798 0.5639 0.5484 0.5329 0.5131
2864.120315 0.4927 0.4506 0.4053 0.3806 0.3587
2868.816621 0.3407 0.3233 0.2816 0.2362 0.1905
2873.512927 0.1446 0.1290 0.1186 0.1102 0.1023
2878.209233 0.1002 0.0992 0.0978 0.0963 0.0927
2882.905539 0.0887 0.0992 0.1128 0.1213 0.1287
2887.601845 0.1292 0.1282 0.1223 0.1153 0.1099
2892.298152 0.1049 0.0992 0.0932 0.0840 0.0740
2896.994458 0.0641 0.0541 0.0520 0.0520 0.1028
2901.690764 0.1675 0.1820 0.1820 0.1773 0.1713
2906.387070 0.1555 0.1371 0.1256 0.1162 0.1029
2911.083376 0.0884 0.0732 0.0578 0.0483 0.0409
2915.779682 0.0371 0.0346 0.0329 0.0314 0.0299
2920.475988 0.0284 0.0265 0.0245 0.0236 0.0231
2925.172294 0.0219 0.0204 0.0193 0.0183 0.0176
2929.868600 0.0171 0.0170 0.0170 0.0174 0.0179
2934.564906 0.0187 0.0197 0.0203 0.0208 0.0210
2939.261212 0.0210 0.0217 0.0227 0.0230 0.0230
2943.957518 0.0240 0.0255 0.0260 0.0260 0.0260
2948.653824 0.0260 0.0260 0.0260 0.0253 0.0243
2953.350130 0.0230 0.0215 0.0210 0.0210 0.0220
2958.046436 0.0235 0.0250 0.0265 0.0270 0.0270
2962.742742 0.0251 0.0221 0.0207 0.0202 0.0194
2967.439048 0.0184 0.0177 0.0172 0.0170 0.0170
2972.135355 0.0173 0.0178 0.0180 0.0180 0.0186
2976.831661 0.0196 0.0209 0.0224 0.0233 0.0238
2981.527967 0.0261 0.0296 0.0310 0.0310 0.0319
2986.224273 0.0334 0.0346 0.0356 0.0371 0.0391
2990.920579 0.0403 0.0408 0.0418 0.0433 0.0448
2995.616885 0.0463 0.0475 0.0486 0.0490 0.0490
3000.313191 0.0490 0.0490 0.0476 0.0451 0.0429
3005.009497 0.0409 0.0373 0.0324 0.0295 0.0285
3009.705803 0.0285 0.0295 0.0303 0.0308 0.0315
3014.402109 0.0325 0.0345 0.0375 0.0390 0.0390
3019.098415 0.0395 0.0405 0.0415 0.0425 0.0447
3023.794721 0.0482 0.0537 0.0611 0.0650 0.0650
3028.491027 0.0657 0.0672 0.0689 0.0709 0.0736
3033.187333 0.0771 0.0799 0.0819 0.0872 0.0962
3037.883639 0.1019 0.1039 0.1114 0.1253 0.1359
3042.579945 0.1424 0.1581 0.1855 0.2012 0.2017
3047.276252 0.2033 0.2063 0.2147 0.2307 0.2462
3051.972558 0.2612 0.2799 0.3041 0.3288 0.3542
3056.668864 0.3717 0.3782 0.3857 0.3946 0.4094
3061.365170 0.4329 0.4689 0.5242 0.5599 0.5649
3066.061476 0.5749 0.5928 0.6064 0.6129 0.6253
3070.757782 0.6477 0.6715 0.6977 0.7211 0.7401
3075.454088 0.7542 0.7602 0.7669 0.7749 0.7843
3080.150394 0.7962 0.8091 0.8235 0.8368 0.8477
3084.846700 0.8563 0.8603 0.8645 0.8690 0.8752
3089.543006 0.8852 0.8928 0.8953 0.8998 0.9083
3094.239312 0.9167 0.9252 0.9310 0.9310 0.9318
3098.935618 0.9343 0.9365 0.9380 0.9394 0.9409
3103.631924 0.9424 0.9439 0.9453 0.9463 0.9473
3108.328230 0.9483 0.9491 0.9496 0.9500 0.9500
3113.024536 0.9503 0.9513 0.9517 0.9507 0.9503
3117.720842 0.9513 0.9521 0.9526 0.9530 0.9530
3122.417148 0.9532 0.9542 0.9550 0.9550 0.9550
3127.113455 0.9550 0.9550 0.9550 0.9551 0.9556
3131.809761 0.9560 0.9560 0.9560 0.9560 0.9559
3136.506067 0.9554 0.9550 0.9550 0.9550 0.9550
3141.202373 0.9551 0.9556 0.9560 0.9560 0.9560
3145.898679 0.9560 0.9560 0.9560 0.9560 0.9560
3150.594985 0.9560 0.9560 0.9559 0.9554 0.9550
3155.291291 0.9550 0.9550 0.9550 0.9550 0.9550
3159.987597 0.9550 0.9550 0.9550 0.9550 0.9550
3164.683903 0.9550 0.9550 0.9550 0.9549 0.9539
3169.380209 0.9529 0.9524 0.9519 0.9509 0.9499
3174.076515 0.9494 0.9490 0.9490 0.9490 0.9490
3178.772821 0.9490 0.9490 0.9489 0.9479 0.9470
3183.469127 0.9470 0.9470 0.9470 0.9469 0.9459
3188.165433 0.9450 0.9450 0.9450 0.9450 0.9449
3192.861739 0.9439 0.9430 0.9430 0.9430 0.9430
3197.558045 0.9430 0.9425 0.9420 0.9420 0.9420
3202.254352 0.9420 0.9420 0.9410 0.9400 0.9400
3206.950658 0.9399 0.9384 0.9370 0.9365 0.9360
3211.646964 0.9350 0.9340 0.9335 0.9330 0.9330
3216.343270 0.9330 0.9330 0.9330 0.9330 0.9330
3221.039576 0.9330 0.9330 0.9335 0.9340 0.9340
3225.735882 0.9340 0.9350 0.9360 0.9360 0.9360
3230.432188 0.9360 0.9360 0.9360 0.9360 0.9350
3235.128494 0.9340 0.9340 0.9340 0.9340 0.9340
3239.824800 0.9340 0.9340 0.9340 0.9340 0.9340
3244.521106 0.9340 0.9340 0.9340 0.9340 0.9340
3249.217412 0.9349 0.9359 0.9360 0.9360 0.9360
3253.913718 0.9360 0.9360 0.9360 0.9365 0.9370
3258.610024 0.9370 0.9370 0.9370 0.9370 0.9370
3263.306330 0.9370 0.9379 0.9389 0.9390 0.9390
3268.002636 0.9394 0.9399 0.9409 0.9419 0.9424
3272.698942 0.9429 0.9439 0.9449 0.9450 0.9450
3277.395248 0.9454 0.9459 0.9460 0.9460 0.9464
3282.091555 0.9469 0.9479 0.9489 0.9490 0.9490
3286.787861 0.9494 0.9499 0.9508 0.9518 0.9524
3291.484167 0.9529 0.9538 0.9548 0.9554 0.9559
3296.180473 0.9568 0.9578 0.9580 0.9580 0.9584
3300.876779 0.9589 0.9590 0.9590 0.9602 0.9617
3305.573085 0.9620 0.9620 0.9624 0.9629 0.9630
3310.269391 0.9630 0.9638 0.9648 0.9650 0.9650
3314.965697 0.9654 0.9659 0.9660 0.9660 0.9660
3319.662003 0.9660 0.9660 0.9660 0.9668 0.9678
3324.358309 0.9680 0.9680 0.9684 0.9689 0.9690
3329.054615 0.9690 0.9690 0.9690 0.9697 0.9707
3333.750921 0.9710 0.9710 0.9710 0.9710 0.9710
3338.447227 0.9710 0.9710 0.9710 0.9710 0.9710
3343.143533 0.9710 0.9710 0.9710 0.9710 0.9710
3347.839839 0.9710 0.9710 0.9710 0.9710 0.9710
3352.536145 0.9710 0.9710 0.9710 0.9710 0.9710
3357.232452 0.9710 0.9710 0.9710 0.9703 0.9693
3361.928758 0.9690 0.9690 0.9687 0.9682 0.9680
3366.625064 0.9680 0.9674 0.9664 0.9660 0.9660
3371.321370 0.9660 0.9660 0.9660 0.9660 0.9660
3376.017676 0.9660 0.9660 0.9660 0.9660 0.9660
3380.713982 0.9660 0.9660 0.9666 0.9676 0.9680
3385.410288 0.9680 0.9683 0.9688 0.9690 0.9690
3390.106594 0.9687 0.9682 0.9674 0.9664 0.9660
3394.802900 0.9660 0.9660 0.9660 0.9660 0.9660
3399.499206 0.9666 0.9676 0.9680 0.9680 0.9674
3404.195512 0.9664 0.9657 0.9652 0.9645 0.9635
3408.891818 0.9627 0.9622 0.9620 0.9620 0.9620
3413.588124 0.9620 0.9623 0.9628 0.9635 0.9645
3418.284430 0.9653 0.9658 0.9668 0.9683 0.9690
3422.980736 0.9690 0.9690 0.9690 0.9695 0.9705
3427.677042 0.9710 0.9710 0.9712 0.9717 0.9723
3432.373348 0.9727 0.9730 0.9730 0.9730 0.9730
3437.069655 0.9730 0.9730 0.9730 0.9730 0.9735
3441.765961 0.9745 0.9750 0.9750 0.9750 0.9750
3446.462267 0.9750 0.9750 0.9750 0.9750 0.9752
3451.158573 0.9757 0.9760 0.9760 0.9760 0.9760
3455.854879 0.9760 0.9760 0.9760 0.9760 0.9760
3460.551185 0.9760 0.9760 0.9760 0.9760 0.9760
3465.247491 0.9760 0.9760 0.9764 0.9774 0.9780
3469.943797 0.9780 0.9780 0.9780 0.9780 0.9780
3474.640103 0.9780 0.9780 0.9780 0.9780 0.9780
3479.336409 0.9780 0.9780 0.9780 0.9780 0.9780
3484.032715 0.9782 0.9787 0.9788 0.9783 0.9782
3488.729021 0.9787 0.9790 0.9790 0.9790 0.9790
3493.425327 0.9790 0.9790 0.9793 0.9803 0.9810
3498.121633 0.9810 0.9810 0.9810 0.9810 0.9810
3502.817939 0.9810 0.9810 0.9812 0.9817 0.9820
3507.514245 0.9820 0.9820 0.9820 0.9820 0.9820
3512.210552 0.9820 0.9820 0.9823 0.9833 0.9840
3516.906858 0.9840 0.9840 0.9840 0.9840 0.9840
3521.603164 0.9840 0.9840 0.9840 0.9840 0.9840
3526.299470 0.9840 0.9840 0.9840 0.9840 0.9840
3530.995776 0.9840 0.9840 0.9840 0.9840 0.9840
3535.692082 0.9840 0.9840 0.9840 0.9840 0.9840
3540.388388 0.9840 0.9840 0.9840 0.9840 0.9840
3545.084694 0.9840 0.9840 0.9840 0.9840 0.9840
3549.781000 0.9840 0.9840 0.9841 0.9846 0.9851
3554.477306 0.9856 0.9860 0.9860 0.9863 0.9878
3559.173612 0.9890 0.9890 0.9887 0.9872 0.9860
3563.869918 0.9860 0.9860 0.9860 0.9859 0.9854
3568.566224 0.9850 0.9850 0.9851 0.9856 0.9860
3573.262530 0.9860 0.9860 0.9860 0.9861 0.9871
3577.958836 0.9881 0.9886 0.9890 0.9890 0.9888
3582.655142 0.9873 0.9860 0.9860 0.9860 0.9860
3587.351448 0.9860 0.9860 0.9860 0.9860 0.9860
3592.047755 0.9860 0.9860 0.9860 0.9860 0.9860
3596.744061 0.9861 0.9871 0.9881 0.9896 0.9910
3601.440367 0.9910 0.9909 0.9899 0.9890 0.9890
3606.136673 0.9890 0.9890 0.9891 0.9901 0.9909
3610.832979 0.9894 0.9880 0.9870 0.9860 0.9860
3615.529285 0.9863 0.9937 1.0009 0.9989 0.9969
3620.225591 0.9939 0.9909 0.9884 0.9860 0.9850
3624.921897 0.9839 0.9815 0.9790 0.9790 0.9790
3629.618203 0.9815 0.9840 0.9860 0.9880 0.9895
3634.314509 0.9910 0.9925 0.9940 0.9955 0.9970
3639.010815 0.9930 0.9890 0.9870 0.9850 0.9830
3643.707121 0.9810 0.9800 0.9790 0.9790 0.9790
3648.403427 0.9790 0.9790 0.9790 0.9790 0.9799
3653.099733 0.9809 0.9815 0.9820 0.9834 0.9849
3657.796039 0.9869 0.9889 0.9904 0.9919 0.9920
3662.492345 0.9920 0.9906 0.9891 0.9872 0.9852
3667.188652 0.9832 0.9812 0.9801 0.9791 0.9799
3671.884958 0.9809 0.9810 0.9810 0.9823 0.9839
3676.581264 0.9840 0.9840 0.9827 0.9812 0.9797
3681.277570 0.9782 0.9771 0.9761 0.9747 0.9732
3685.973876 0.9730 0.9730 0.9730 0.9730 0.9739
3690.670182 0.9749 0.9754 0.9759 0.9769 0.9779
3695.366488 0.9780 0.9780 0.9772 0.9762 0.9756
3700.062794 0.9751 0.9750 0.9750 0.9750 0.9750
3704.759100 0.9742 0.9732 0.9726 0.9721 0.9720
3709.455406 0.9720 0.9720 0.9720 0.9724 0.9729
3714.151712 0.9738 0.9748 0.9754 0.9759 0.9772
3718.848018 0.9787 0.9798 0.9808 0.9802 0.9792
3723.544324 0.9778 0.9763 0.9756 0.9751 0.9750
3728.240630 0.9750 0.9754 0.9759 0.9760 0.9760
3732.936936 0.9760 0.9760 0.9756 0.9751 0.9735
3737.633242 0.9715 0.9703 0.9693 0.9679 0.9664
3742.329548 0.9649 0.9634 0.9619 0.9604 0.9596
3747.025855 0.9591 0.9586 0.9581 0.9573 0.9563
3751.722161 0.9560 0.9560 0.9560 0.9560 0.9567
3756.418467 0.9577 0.9583 0.9588 0.9593 0.9598
3761.114773 0.9607 0.9617 0.9623 0.9628 0.9637
3765.811079 0.9647 0.9650 0.9650 0.9643 0.9633
3770.507385 0.9630 0.9630 0.9627 0.9622 0.9620
3775.203691 0.9620 0.9620 0.9620 0.9620 0.9620
3779.899997 0.9623 0.9628 0.9646 0.9671 0.9683
3784.596303 0.9688 0.9696 0.9706 0.9710 0.9710
3789.292609 0.9704 0.9694 0.9690 0.9690 0.9687
3793.988915 0.9682 0.9680 0.9680 0.9671 0.9656
3798.685221 0.9650 0.9650 0.9644 0.9634 0.9630
3803.381527 0.9630
##END=
