##TITLE=Propane
##JCAMP-DX=4.24
##DATA TYPE=INFRARED SPECTRUM
##CLASS=COBLENTZ
##ORIGIN=DOW CHEMICAL COMPANY
##OWNER=Copyright (C) 1987 by the Coblentz Society
Collection (C) 2018 copyright by the U.S. Secretary of Commerce
on behalf of the United States of America. All rights reserved.
##DATE=1964
##CAS REGISTRY NO=74-98-6
##MOLFORM=C3 H8
##SOURCE REFERENCE=COBLENTZ NO. 8878
##$NIST SOURCE=COBLENTZ
##$NIST IMAGE=cob8878
##SPECTROMETER/DATA SYSTEM=DOW KBr FOREPRISM-GRATING
##INSTRUMENT PARAMETERS=GRATING CHANGED AT 5.0, 7.5, 15.0 MICRON
##STATE=GAS (150 mmHg, N2 ADDED, TOTAL PRESSURE 600 mmHg)
NOTE: High partial pressure may produce unreliable values in the range
of 2500 to 3400 cm-1; see scan of original spectrum.
##PATH LENGTH=5 CM
##SAMPLING PROCEDURE=TRANSMISSION
##RESOLUTION=2
##DATA PROCESSING=DIGITIZED BY COBLENTZ SOCIETY (BATCH II) FROM HARD COPY
##XUNITS=1/CM
##YUNITS=TRANSMITTANCE
##XFACTOR=1.0
##YFACTOR=1
##FIRSTX=457
##LASTX=3782
##FIRSTY=0.8944
##MAXX=3782
##MINX=457
##MAXY=0.9647
##MINY=0.0026
##NPOINTS=3326
##XYDATA=(X++(Y..Y))
457.000000 0.8944 0.8947 0.8949 0.8951 0.8954
462.000000 0.8956 0.8960 0.8964 0.8969 0.8974
467.000000 0.8980 0.8987 0.8993 0.8999 0.9006
472.000000 0.9013 0.9020 0.9026 0.9033 0.9045
477.000000 0.9058 0.9071 0.9084 0.9097 0.9110
482.000000 0.9123 0.9136 0.9149 0.9161 0.9172
487.000000 0.9184 0.9195 0.9204 0.9214 0.9223
492.000000 0.9233 0.9243 0.9252 0.9262 0.9266
497.000000 0.9270 0.9273 0.9277 0.9280 0.9284
502.000000 0.9287 0.9286 0.9291 0.9293 0.9293
507.000000 0.9293 0.9292 0.9292 0.9291 0.9290
512.000000 0.9290 0.9290 0.9290 0.9290 0.9290
517.000000 0.9290 0.9290 0.9290 0.9289 0.9288
522.000000 0.9287 0.9286 0.9285 0.9284 0.9283
527.000000 0.9281 0.9278 0.9275 0.9271 0.9268
532.000000 0.9264 0.9261 0.9257 0.9254 0.9251
537.000000 0.9247 0.9244 0.9236 0.9229 0.9221
542.000000 0.9214 0.9207 0.9199 0.9192 0.9183
547.000000 0.9170 0.9157 0.9144 0.9131 0.9120
552.000000 0.9122 0.9117 0.9134 0.9140 0.9146
557.000000 0.9152 0.9158 0.9165 0.9171 0.9178
562.000000 0.9184 0.9191 0.9198 0.9205 0.9213
567.000000 0.9221 0.9228 0.9236 0.9245 0.9253
572.000000 0.9262 0.9271 0.9280 0.9288 0.9295
577.000000 0.9301 0.9306 0.9312 0.9318 0.9323
582.000000 0.9329 0.9335 0.9340 0.9345 0.9349
587.000000 0.9353 0.9357 0.9361 0.9365 0.9369
592.000000 0.9373 0.9377 0.9381 0.9384 0.9387
597.000000 0.9389 0.9391 0.9394 0.9396 0.9398
602.000000 0.9401 0.9403 0.9406 0.9407 0.9408
607.000000 0.9410 0.9411 0.9412 0.9413 0.9412
612.000000 0.9408 0.9404 0.9400 0.9395 0.9388
617.000000 0.9381 0.9374 0.9367 0.9360 0.9353
622.000000 0.9349 0.9349 0.9349 0.9349 0.9349
627.000000 0.9349 0.9349 0.9349 0.9349 0.9353
632.000000 0.9357 0.9362 0.9367 0.9371 0.9376
637.000000 0.9381 0.9385 0.9387 0.9400 0.9413
642.000000 0.9426 0.9439 0.9452 0.9469 0.9486
647.000000 0.9504 0.9511 0.9515 0.9520 0.9520
652.000000 0.9516 0.9511 0.9507 0.9502 0.9497
657.000000 0.9493 0.9488 0.9484 0.9476 0.9474
662.000000 0.9470 0.9465 0.9463 0.9460 0.9458
667.000000 0.9471 0.9498 0.9526 0.9647 0.9622
672.000000 0.9590 0.9555 0.9517 0.9490 0.9477
677.000000 0.9465 0.9458 0.9452 0.9446 0.9441
682.000000 0.9436 0.9429 0.9420 0.9411 0.9401
687.000000 0.9386 0.9371 0.9357 0.9342 0.9324
692.000000 0.9305 0.9286 0.9267 0.9246 0.9225
697.000000 0.9204 0.9183 0.9162 0.9141 0.9119
702.000000 0.9098 0.9073 0.9048 0.9023 0.8999
707.000000 0.8974 0.8949 0.8924 0.8899 0.8874
712.000000 0.8849 0.8823 0.8798 0.8767 0.8737
717.000000 0.8707 0.8676 0.8646 0.8615 0.8585
722.000000 0.8555 0.8522 0.8488 0.8455 0.8422
727.000000 0.8389 0.8356 0.8324 0.8293 0.8261
732.000000 0.8230 0.8198 0.8168 0.8138 0.8108
737.000000 0.8077 0.8063 0.8051 0.8039 0.8027
742.000000 0.8021 0.8015 0.8008 0.8002 0.7980
747.000000 0.7939 0.7629 0.7194 0.6758 0.6480
752.000000 0.6476 0.6681 0.7198 0.7716 0.7900
757.000000 0.7866 0.7863 0.7865 0.7872 0.7891
762.000000 0.7911 0.7931 0.7947 0.7962 0.7977
767.000000 0.7992 0.8007 0.8022 0.8039 0.8057
772.000000 0.8077 0.8097 0.8116 0.8132 0.8149
777.000000 0.8161 0.8172 0.8184 0.8195 0.8207
782.000000 0.8224 0.8241 0.8259 0.8276 0.8294
787.000000 0.8314 0.8334 0.8355 0.8378 0.8401
792.000000 0.8424 0.8449 0.8474 0.8500 0.8522
797.000000 0.8543 0.8564 0.8584 0.8603 0.8619
802.000000 0.8633 0.8648 0.8663 0.8676 0.8687
807.000000 0.8700 0.8707 0.8713 0.8717 0.8720
812.000000 0.8723 0.8726 0.8729 0.8729 0.8729
817.000000 0.8729 0.8729 0.8728 0.8726 0.8724
822.000000 0.8722 0.8720 0.8718 0.8713 0.8706
827.000000 0.8700 0.8694 0.8689 0.8684 0.8679
832.000000 0.8674 0.8669 0.8660 0.8651 0.8641
837.000000 0.8632 0.8623 0.8613 0.8604 0.8597
842.000000 0.8590 0.8583 0.8576 0.8569 0.8562
847.000000 0.8555 0.8548 0.8542 0.8536 0.8530
852.000000 0.8524 0.8518 0.8512 0.8506 0.8500
857.000000 0.8494 0.8488 0.8481 0.8475 0.8474
862.000000 0.8473 0.8471 0.8474 0.8483 0.8493
867.000000 0.8503 0.8518 0.8540 0.8562 0.8575
872.000000 0.8578 0.8567 0.8523 0.8457 0.8424
877.000000 0.8392 0.8385 0.8388 0.8393 0.8399
882.000000 0.8407 0.8415 0.8423 0.8431 0.8439
887.000000 0.8446 0.8453 0.8460 0.8465 0.8471
892.000000 0.8471 0.8469 0.8468 0.8466 0.8461
897.000000 0.8450 0.8438 0.8424 0.8403 0.8359
902.000000 0.8308 0.8254 0.8184 0.8143 0.8102
907.000000 0.8074 0.8047 0.8031 0.8005 0.8020
912.000000 0.8022 0.8028 0.8047 0.8100 0.8153
917.000000 0.8206 0.8259 0.8312 0.8365 0.8433
922.000000 0.8472 0.8499 0.8140 0.7861 0.7847
927.000000 0.7858 0.7943 0.8123 0.8238 0.8248
932.000000 0.8233 0.8222 0.8195 0.8083 0.8054
937.000000 0.8036 0.8051 0.8073 0.8106 0.8146
942.000000 0.8185 0.8220 0.8254 0.8289 0.8332
947.000000 0.8375 0.8415 0.8450 0.8485 0.8518
952.000000 0.8549 0.8579 0.8610 0.8633 0.8657
957.000000 0.8681 0.8704 0.8724 0.8738 0.8746
962.000000 0.8755 0.8762 0.8765 0.8768 0.8771
967.000000 0.8773 0.8774 0.8774 0.8775 0.8776
972.000000 0.8777 0.8777 0.8777 0.8777 0.8777
977.000000 0.8777 0.8776 0.8775 0.8773 0.8772
982.000000 0.8770 0.8769 0.8767 0.8766 0.8764
987.000000 0.8763 0.8761 0.8760 0.8758 0.8757
992.000000 0.8756 0.8755 0.8754 0.8753 0.8752
997.000000 0.8751 0.8750 0.8749 0.8748 0.8746
1002.000000 0.8745 0.8744 0.8743 0.8742 0.8742
1007.000000 0.8741 0.8741 0.8741 0.8740 0.8740
1012.000000 0.8740 0.8739 0.8739 0.8738 0.8737
1017.000000 0.8736 0.8734 0.8733 0.8731 0.8726
1022.000000 0.8719 0.8710 0.8700 0.8690 0.8678
1027.000000 0.8664 0.8648 0.8628 0.8608 0.8584
1032.000000 0.8551 0.8519 0.8496 0.8473 0.8449
1037.000000 0.8426 0.8401 0.8373 0.8351 0.8338
1042.000000 0.8343 0.8322 0.8353 0.8363 0.8374
1047.000000 0.8385 0.8394 0.8402 0.8396 0.8393
1052.000000 0.8380 0.8176 0.7956 0.7971 0.8080
1057.000000 0.8207 0.8334 0.8453 0.8478 0.8469
1062.000000 0.8476 0.8453 0.8382 0.8247 0.8141
1067.000000 0.8086 0.8068 0.8072 0.8060 0.8144
1072.000000 0.8205 0.8247 0.8275 0.8303 0.8357
1077.000000 0.8415 0.8468 0.8523 0.8568 0.8596
1082.000000 0.8623 0.8651 0.8675 0.8698 0.8717
1087.000000 0.8736 0.8745 0.8752 0.8758 0.8758
1092.000000 0.8758 0.8759 0.8760 0.8797 0.8762
1097.000000 0.8762 0.8762 0.8762 0.8762 0.8762
1102.000000 0.8760 0.8758 0.8756 0.8754 0.8749
1107.000000 0.8745 0.8740 0.8736 0.8731 0.8725
1112.000000 0.8720 0.8715 0.8710 0.8704 0.8697
1117.000000 0.8690 0.8683 0.8677 0.8667 0.8656
1122.000000 0.8646 0.8635 0.8624 0.8612 0.8600
1127.000000 0.8587 0.8574 0.8561 0.8548 0.8535
1132.000000 0.8523 0.8510 0.8497 0.8483 0.8470
1137.000000 0.8457 0.8444 0.8430 0.8417 0.8405
1142.000000 0.8394 0.8382 0.8371 0.8359 0.8351
1147.000000 0.8345 0.8342 0.8349 0.8335 0.8365
1152.000000 0.8373 0.8387 0.8405 0.8427 0.8450
1157.000000 0.8469 0.8487 0.8493 0.8484 0.8508
1162.000000 0.8433 0.8369 0.8201 0.8109 0.8104
1167.000000 0.8076 0.8107 0.8135 0.8172 0.8199
1172.000000 0.8223 0.8246 0.8265 0.8285 0.8304
1177.000000 0.8313 0.8322 0.8331 0.8342 0.8379
1182.000000 0.8423 0.8460 0.8493 0.8516 0.8539
1187.000000 0.8559 0.8560 0.8562 0.8564 0.8565
1192.000000 0.8576 0.8597 0.8619 0.8641 0.8659
1197.000000 0.8676 0.8692 0.8706 0.8720 0.8732
1202.000000 0.8742 0.8752 0.8761 0.8771 0.8781
1207.000000 0.8791 0.8801 0.8810 0.8820 0.8830
1212.000000 0.8836 0.8839 0.8843 0.8847 0.8851
1217.000000 0.8855 0.8859 0.8862 0.8865 0.8868
1222.000000 0.8871 0.8874 0.8877 0.8880 0.8883
1227.000000 0.8886 0.8886 0.8886 0.8885 0.8884
1232.000000 0.8884 0.8883 0.8876 0.8868 0.8860
1237.000000 0.8852 0.8844 0.8837 0.8829 0.8821
1242.000000 0.8813 0.8806 0.8808 0.8811 0.8819
1247.000000 0.8827 0.8836 0.8844 0.8849 0.8854
1252.000000 0.8859 0.8864 0.8869 0.8874 0.8879
1257.000000 0.8882 0.8886 0.8889 0.8892 0.8895
1262.000000 0.8899 0.8902 0.8905 0.8909 0.8912
1267.000000 0.8915 0.8918 0.8922 0.8925 0.8928
1272.000000 0.8933 0.8938 0.8943 0.8949 0.8954
1277.000000 0.8960 0.8965 0.8971 0.8976 0.8982
1282.000000 0.8987 0.8992 0.8998 0.9005 0.9011
1287.000000 0.9017 0.9023 0.9030 0.9036 0.9042
1292.000000 0.9048 0.9054 0.9059 0.9064 0.9068
1297.000000 0.9073 0.9077 0.9082 0.9076 0.9076
1302.000000 0.9067 0.9046 0.9022 0.8997 0.8970
1307.000000 0.8942 0.8905 0.8867 0.8830 0.8789
1312.000000 0.8748 0.8707 0.8666 0.8612 0.8558
1317.000000 0.8505 0.8450 0.8394 0.8337 0.8285
1322.000000 0.8237 0.8189 0.8113 0.7992 0.7925
1327.000000 0.7920 0.7930 0.7961 0.7999 0.8061
1332.000000 0.8143 0.8227 0.8322 0.8383 0.8409
1337.000000 0.8417 0.7927 0.7530 0.7132 0.6735
1342.000000 0.6508 0.6489 0.8531 0.8530 0.8529
1347.000000 0.8244 0.8062 0.7880 0.7698 0.7515
1352.000000 0.7270 0.7158 0.7061 0.6986 0.6920
1357.000000 0.6864 0.6808 0.6752 0.6713 0.6674
1362.000000 0.6634 0.6594 0.6557 0.6525 0.6508
1367.000000 0.6505 0.6507 0.6519 0.6590 0.6684
1372.000000 0.6779 0.6816 0.6821 0.6805 0.6779
1377.000000 0.6696 0.6134 0.5224 0.4314 0.3745
1382.000000 0.3732 0.5893 0.6875 0.6773 0.6486
1387.000000 0.6199 0.5912 0.5625 0.5353 0.5290
1392.000000 0.5305 0.5326 0.5355 0.5379 0.5395
1397.000000 0.5407 0.5460 0.5580 0.5772 0.5964
1402.000000 0.6157 0.6349 0.6542 0.6859 0.7028
1407.000000 0.7111 0.7181 0.7230 0.7275 0.7296
1412.000000 0.7318 0.7331 0.7340 0.7346 0.7357
1417.000000 0.7345 0.7339 0.7331 0.7315 0.7295
1422.000000 0.7274 0.7247 0.7208 0.7161 0.7090
1427.000000 0.7030 0.6970 0.6849 0.6733 0.6632
1432.000000 0.6530 0.6428 0.6327 0.6225 0.6123
1437.000000 0.6022 0.5920 0.5818 0.5717 0.5615
1442.000000 0.5513 0.5412 0.5310 0.5208 0.5107
1447.000000 0.5005 0.4904 0.4802 0.4700 0.4579
1452.000000 0.4474 0.4386 0.4288 0.4183 0.4141
1457.000000 0.4110 0.4121 0.4140 0.4176 0.4213
1462.000000 0.4364 0.4538 0.4568 0.4619 0.4247
1467.000000 0.3458 0.3524 0.3652 0.3738 0.3615
1472.000000 0.3007 0.2399 0.1791 0.1449 0.1522
1477.000000 0.2389 0.3256 0.4123 0.4982 0.5024
1482.000000 0.4762 0.4564 0.4368 0.4343 0.4335
1487.000000 0.4343 0.4330 0.4369 0.4406 0.4483
1492.000000 0.4550 0.4604 0.4660 0.4725 0.4805
1497.000000 0.4935 0.5041 0.5104 0.5195 0.5251
1502.000000 0.5299 0.5385 0.5494 0.5601 0.5724
1507.000000 0.5902 0.6077 0.6162 0.6240 0.6341
1512.000000 0.6447 0.6549 0.6657 0.6768 0.6835
1517.000000 0.6890 0.6946 0.7051 0.7153 0.7245
1522.000000 0.7344 0.7447 0.7597 0.7681 0.7720
1527.000000 0.7749 0.7772 0.7794 0.7828 0.7863
1532.000000 0.7909 0.7980 0.8103 0.8216 0.8292
1537.000000 0.8364 0.8428 0.8465 0.8503 0.8560
1542.000000 0.8681 0.8715 0.8724 0.8728 0.8732
1547.000000 0.8736 0.8743 0.8754 0.8766 0.8778
1552.000000 0.8794 0.8812 0.8836 0.8868 0.8898
1557.000000 0.8927 0.8959 0.8992 0.9026 0.9061
1562.000000 0.9089 0.9056 0.9010 0.8965 0.8929
1567.000000 0.8935 0.8941 0.8948 0.8953 0.8958
1572.000000 0.8962 0.8965 0.8969 0.8972 0.8974
1577.000000 0.8976 0.8977 0.8975 0.8968 0.8962
1582.000000 0.8954 0.8943 0.8932 0.8922 0.8914
1587.000000 0.8908 0.8907 0.8906 0.8905 0.8905
1592.000000 0.8905 0.8905 0.8905 0.8905 0.8905
1597.000000 0.8905 0.8905 0.8905 0.8905 0.8905
1602.000000 0.8905 0.8905 0.8905 0.8905 0.8905
1607.000000 0.8907 0.8909 0.8911 0.8913 0.8916
1612.000000 0.8918 0.8920 0.8923 0.8927 0.8932
1617.000000 0.8935 0.8930 0.8925 0.8911 0.8899
1622.000000 0.8887 0.8875 0.8864 0.8853 0.8843
1627.000000 0.8835 0.8827 0.8820 0.8815 0.8809
1632.000000 0.8819 0.8829 0.8840 0.8852 0.8859
1637.000000 0.8867 0.8874 0.8863 0.8851 0.8830
1642.000000 0.8805 0.8791 0.8778 0.8764 0.8769
1647.000000 0.8778 0.8787 0.8799 0.8811 0.8825
1652.000000 0.8843 0.8855 0.8867 0.8867 0.8858
1657.000000 0.8842 0.8823 0.8804 0.8789 0.8783
1662.000000 0.8785 0.8786 0.8785 0.8782 0.8779
1667.000000 0.8787 0.8796 0.8805 0.8815 0.8824
1672.000000 0.8832 0.8825 0.8818 0.8806 0.8796
1677.000000 0.8791 0.8787 0.8783 0.8779 0.8781
1682.000000 0.8785 0.8793 0.8804 0.8815 0.8826
1687.000000 0.8832 0.8817 0.8801 0.8785 0.8773
1692.000000 0.8761 0.8761 0.8765 0.8770 0.8776
1697.000000 0.8782 0.8789 0.8797 0.8799 0.8800
1702.000000 0.8802 0.8800 0.8795 0.8786 0.8777
1707.000000 0.8768 0.8760 0.8751 0.8746 0.8754
1712.000000 0.8763 0.8774 0.8785 0.8797 0.8811
1717.000000 0.8826 0.8841 0.8841 0.8841 0.8838
1722.000000 0.8823 0.8805 0.8794 0.8787 0.8792
1727.000000 0.8798 0.8808 0.8820 0.8831 0.8842
1732.000000 0.8854 0.8865 0.8885 0.8917 0.8936
1737.000000 0.8928 0.8921 0.8913 0.8902 0.8894
1742.000000 0.8887 0.8880 0.8876 0.8876 0.8876
1747.000000 0.8876 0.8878 0.8879 0.8881 0.8883
1752.000000 0.8882 0.8881 0.8880 0.8879 0.8877
1757.000000 0.8876 0.8875 0.8873 0.8872 0.8870
1762.000000 0.8869 0.8868 0.8869 0.8870 0.8870
1767.000000 0.8871 0.8872 0.8875 0.8880 0.8885
1772.000000 0.8890 0.8895 0.8885 0.8875 0.8864
1777.000000 0.8853 0.8842 0.8835 0.8833 0.8833
1782.000000 0.8833 0.8833 0.8833 0.8833 0.8833
1787.000000 0.8833 0.8834 0.8835 0.8835 0.8836
1792.000000 0.8836 0.8837 0.8838 0.8838 0.8839
1797.000000 0.8840 0.8840 0.8841 0.8841 0.8842
1802.000000 0.8843 0.8843 0.8844 0.8844 0.8845
1807.000000 0.8845 0.8845 0.8845 0.8845 0.8845
1812.000000 0.8845 0.8845 0.8845 0.8845 0.8845
1817.000000 0.8845 0.8845 0.8844 0.8844 0.8843
1822.000000 0.8842 0.8841 0.8840 0.8840 0.8839
1827.000000 0.8838 0.8838 0.8838 0.8838 0.8838
1832.000000 0.8838 0.8838 0.8838 0.8838 0.8838
1837.000000 0.8838 0.8838 0.8838 0.8841 0.8847
1842.000000 0.8852 0.8858 0.8865 0.8872 0.8868
1847.000000 0.8863 0.8860 0.8859 0.8858 0.8856
1852.000000 0.8855 0.8854 0.8854 0.8854 0.8855
1857.000000 0.8856 0.8857 0.8858 0.8860 0.8862
1862.000000 0.8865 0.8867 0.8869 0.8870 0.8871
1867.000000 0.8872 0.8873 0.8874 0.8874 0.8875
1872.000000 0.8876 0.8877 0.8877 0.8878 0.8879
1877.000000 0.8879 0.8880 0.8880 0.8880 0.8880
1882.000000 0.8880 0.8879 0.8877 0.8874 0.8871
1887.000000 0.8869 0.8866 0.8864 0.8863 0.8861
1892.000000 0.8860 0.8858 0.8857 0.8856 0.8855
1897.000000 0.8854 0.8853 0.8852 0.8851 0.8850
1902.000000 0.8849 0.8848 0.8847 0.8846 0.8845
1907.000000 0.8842 0.8839 0.8837 0.8834 0.8832
1912.000000 0.8829 0.8827 0.8820 0.8816 0.8813
1917.000000 0.8809 0.8806 0.8802 0.8798 0.8794
1922.000000 0.8791 0.8788 0.8787 0.8786 0.8786
1927.000000 0.8785 0.8784 0.8783 0.8783 0.8782
1932.000000 0.8781 0.8781 0.8782 0.8784 0.8785
1937.000000 0.8787 0.8788 0.8789 0.8791 0.8792
1942.000000 0.8800 0.8808 0.8816 0.8824 0.8832
1947.000000 0.8840 0.8838 0.8833 0.8827 0.8821
1952.000000 0.8814 0.8808 0.8809 0.8811 0.8813
1957.000000 0.8814 0.8816 0.8822 0.8829 0.8835
1962.000000 0.8840 0.8842 0.8844 0.8847 0.8849
1967.000000 0.8852 0.8855 0.8858 0.8861 0.8864
1972.000000 0.8867 0.8871 0.8874 0.8877 0.8880
1977.000000 0.8881 0.8880 0.8880 0.8879 0.8879
1982.000000 0.8878 0.8878 0.8877 0.8877 0.8877
1987.000000 0.8877 0.8877 0.8877 0.8877 0.8877
1992.000000 0.8876 0.8875 0.8874 0.8873 0.8872
1997.000000 0.8871 0.8870 0.8870 0.8869 0.8868
2002.000000 0.8867 0.8866 0.8866 0.8864 0.8863
2007.000000 0.8862 0.8861 0.8859 0.8858 0.8857
2012.000000 0.8856 0.8854 0.8853 0.8852 0.8851
2017.000000 0.8849 0.8848 0.8847 0.8846 0.8844
2022.000000 0.8843 0.8843 0.8843 0.8842 0.8842
2027.000000 0.8841 0.8841 0.8841 0.8841 0.8840
2032.000000 0.8840 0.8840 0.8840 0.8839 0.8839
2037.000000 0.8838 0.8838 0.8837 0.8836 0.8835
2042.000000 0.8835 0.8835 0.8835 0.8835 0.8835
2047.000000 0.8834 0.8834 0.8834 0.8834 0.8833
2052.000000 0.8833 0.8833 0.8833 0.8832 0.8832
2057.000000 0.8832 0.8832 0.8832 0.8832 0.8832
2062.000000 0.8832 0.8832 0.8833 0.8833 0.8833
2067.000000 0.8833 0.8834 0.8834 0.8834 0.8834
2072.000000 0.8835 0.8835 0.8835 0.8836 0.8837
2077.000000 0.8838 0.8839 0.8840 0.8841 0.8842
2082.000000 0.8843 0.8844 0.8845 0.8846 0.8847
2087.000000 0.8848 0.8849 0.8850 0.8852 0.8853
2092.000000 0.8854 0.8854 0.8855 0.8855 0.8855
2097.000000 0.8855 0.8855 0.8855 0.8855 0.8855
2102.000000 0.8855 0.8854 0.8853 0.8852 0.8852
2107.000000 0.8851 0.8850 0.8849 0.8849 0.8848
2112.000000 0.8847 0.8846 0.8846 0.8845 0.8844
2117.000000 0.8843 0.8843 0.8842 0.8841 0.8840
2122.000000 0.8840 0.8839 0.8838 0.8837 0.8836
2127.000000 0.8835 0.8834 0.8832 0.8831 0.8830
2132.000000 0.8829 0.8828 0.8827 0.8826 0.8825
2137.000000 0.8823 0.8822 0.8821 0.8820 0.8819
2142.000000 0.8818 0.8817 0.8816 0.8814 0.8812
2147.000000 0.8810 0.8809 0.8807 0.8806 0.8804
2152.000000 0.8803 0.8801 0.8800 0.8798 0.8797
2157.000000 0.8795 0.8794 0.8792 0.8791 0.8789
2162.000000 0.8787 0.8785 0.8784 0.8782 0.8781
2167.000000 0.8779 0.8778 0.8776 0.8775 0.8773
2172.000000 0.8772 0.8770 0.8769 0.8767 0.8766
2177.000000 0.8764 0.8763 0.8761 0.8760 0.8758
2182.000000 0.8756 0.8754 0.8753 0.8751 0.8750
2187.000000 0.8748 0.8747 0.8745 0.8744 0.8743
2192.000000 0.8742 0.8741 0.8740 0.8738 0.8737
2197.000000 0.8736 0.8735 0.8734 0.8733 0.8732
2202.000000 0.8731 0.8730 0.8729 0.8728 0.8727
2207.000000 0.8726 0.8725 0.8724 0.8723 0.8722
2212.000000 0.8721 0.8720 0.8719 0.8717 0.8716
2217.000000 0.8715 0.8714 0.8713 0.8712 0.8710
2222.000000 0.8709 0.8707 0.8706 0.8704 0.8703
2227.000000 0.8701 0.8700 0.8698 0.8696 0.8694
2232.000000 0.8693 0.8691 0.8690 0.8688 0.8687
2237.000000 0.8685 0.8684 0.8683 0.8682 0.8680
2242.000000 0.8679 0.8677 0.8676 0.8674 0.8673
2247.000000 0.8672 0.8678 0.8669 0.8668 0.8668
2252.000000 0.8668 0.8669 0.8670 0.8671 0.8673
2257.000000 0.8676 0.8680 0.8687 0.8694 0.8700
2262.000000 0.8706 0.8712 0.8719 0.8725 0.8731
2267.000000 0.8738 0.8746 0.8753 0.8761 0.8768
2272.000000 0.8776 0.8783 0.8790 0.8797 0.8804
2277.000000 0.8806 0.8809 0.8809 0.8809 0.8809
2282.000000 0.8809 0.8809 0.8809 0.8809 0.8809
2287.000000 0.8809 0.8810 0.8811 0.8812 0.8812
2292.000000 0.8813 0.8814 0.8815 0.8815 0.8816
2297.000000 0.8817 0.8818 0.8819 0.8820 0.8821
2302.000000 0.8822 0.8823 0.8825 0.8826 0.8828
2307.000000 0.8829 0.8831 0.8835 0.8839 0.8846
2312.000000 0.8853 0.8861 0.8869 0.8877 0.8886
2317.000000 0.8892 0.8899 0.8905 0.8912 0.8918
2322.000000 0.8924 0.8930 0.8937 0.8943 0.8949
2327.000000 0.8955 0.8961 0.8965 0.8969 0.8972
2332.000000 0.8975 0.8973 0.8971 0.8969 0.8968
2337.000000 0.8965 0.8963 0.8961 0.8959 0.8956
2342.000000 0.8954 0.8951 0.8949 0.8946 0.8944
2347.000000 0.8941 0.8939 0.8937 0.8935 0.8933
2352.000000 0.8931 0.8931 0.8932 0.8934 0.8937
2357.000000 0.8939 0.8941 0.8942 0.8944 0.8940
2362.000000 0.8936 0.8931 0.8926 0.8920 0.8915
2367.000000 0.8898 0.8882 0.8864 0.8846 0.8829
2372.000000 0.8813 0.8799 0.8785 0.8774 0.8763
2377.000000 0.8752 0.8742 0.8734 0.8726 0.8718
2382.000000 0.8710 0.8704 0.8698 0.8694 0.8691
2387.000000 0.8677 0.8663 0.8589 0.8515 0.8441
2392.000000 0.8367 0.8297 0.8227 0.8239 0.8251
2397.000000 0.8304 0.8358 0.8412 0.8466 0.8519
2402.000000 0.8573 0.8626 0.8680 0.8711 0.8742
2407.000000 0.8749 0.8756 0.8759 0.8762 0.8764
2412.000000 0.8766 0.8766 0.8766 0.8765 0.8764
2417.000000 0.8764 0.8764 0.8764 0.8764 0.8763
2422.000000 0.8762 0.8761 0.8760 0.8759 0.8758
2427.000000 0.8757 0.8756 0.8756 0.8756 0.8756
2432.000000 0.8756 0.8756 0.8756 0.8756 0.8756
2437.000000 0.8756 0.8756 0.8755 0.8754 0.8753
2442.000000 0.8753 0.8751 0.8750 0.8748 0.8746
2447.000000 0.8744 0.8742 0.8740 0.8739 0.8738
2452.000000 0.8737 0.8737 0.8737 0.8737 0.8737
2457.000000 0.8737 0.8737 0.8739 0.8742 0.8744
2462.000000 0.8747 0.8750 0.8753 0.8755 0.8758
2467.000000 0.8758 0.8758 0.8756 0.8754 0.8752
2472.000000 0.8751 0.8749 0.8748 0.8746 0.8745
2477.000000 0.8744 0.8743 0.8741 0.8740 0.8737
2482.000000 0.8735 0.8733 0.8731 0.8729 0.8728
2487.000000 0.8726 0.8725 0.8723 0.8722 0.8720
2492.000000 0.8719 0.8718 0.8718 0.8719 0.8720
2497.000000 0.8720 0.8721 0.8722 0.8724 0.8726
2502.000000 0.8728 0.8730 0.8732 0.8734 0.8736
2507.000000 0.8737 0.8739 0.8741 0.8743 0.8745
2512.000000 0.8747 0.8749 0.8751 0.8753 0.8755
2517.000000 0.8757 0.8759 0.8761 0.8764 0.8766
2522.000000 0.8768 0.8770 0.8772 0.8774 0.8776
2527.000000 0.8778 0.8781 0.8783 0.8785 0.8787
2532.000000 0.8790 0.8792 0.8794 0.8794 0.8795
2537.000000 0.8795 0.8810 0.8795 0.8795 0.8795
2542.000000 0.8795 0.8794 0.8793 0.8792 0.8791
2547.000000 0.8790 0.8789 0.8788 0.8787 0.8784
2552.000000 0.8782 0.8779 0.8777 0.8774 0.8772
2557.000000 0.8769 0.8767 0.8764 0.8762 0.8758
2562.000000 0.8754 0.8749 0.8745 0.8740 0.8736
2567.000000 0.8731 0.8727 0.8722 0.8718 0.8713
2572.000000 0.8709 0.8704 0.8700 0.8696 0.8692
2577.000000 0.8688 0.8684 0.8679 0.8675 0.8671
2582.000000 0.8667 0.8662 0.8658 0.8651 0.8645
2587.000000 0.8638 0.8632 0.8625 0.8619 0.8612
2592.000000 0.8606 0.8599 0.8592 0.8585 0.8579
2597.000000 0.8570 0.8561 0.8552 0.8543 0.8534
2602.000000 0.8525 0.8516 0.8507 0.8498 0.8489
2607.000000 0.8480 0.8472 0.8464 0.8456 0.8448
2612.000000 0.8440 0.8432 0.8424 0.8415 0.8407
2617.000000 0.8404 0.8402 0.8399 0.8397 0.8394
2622.000000 0.8391 0.8388 0.8386 0.8380 0.8375
2627.000000 0.8367 0.8359 0.8351 0.8343 0.8335
2632.000000 0.8328 0.8326 0.8324 0.8321 0.8319
2637.000000 0.8317 0.8315 0.8315 0.8282 0.8316
2642.000000 0.8318 0.8320 0.8322 0.8326 0.8330
2647.000000 0.8333 0.8337 0.8341 0.8345 0.8353
2652.000000 0.8361 0.8368 0.8376 0.8382 0.8389
2657.000000 0.8395 0.8401 0.8403 0.8405 0.8394
2662.000000 0.8384 0.8370 0.8356 0.8356 0.8356
2667.000000 0.8360 0.8364 0.8369 0.8375 0.8382
2672.000000 0.8389 0.8396 0.8403 0.8415 0.8428
2677.000000 0.8438 0.8448 0.8457 0.8467 0.8477
2682.000000 0.8488 0.8499 0.8510 0.8518 0.8526
2687.000000 0.8533 0.8541 0.8544 0.8547 0.8550
2692.000000 0.8554 0.8557 0.8560 0.8561 0.8587
2697.000000 0.8563 0.8564 0.8561 0.8559 0.8556
2702.000000 0.8554 0.8546 0.8539 0.8530 0.8521
2707.000000 0.8512 0.8503 0.8494 0.8486 0.8477
2712.000000 0.8468 0.8453 0.8438 0.8419 0.8401
2717.000000 0.8380 0.8360 0.8337 0.8315 0.8289
2722.000000 0.8264 0.8237 0.8211 0.8182 0.8153
2727.000000 0.8133 0.8113 0.8093 0.8074 0.8054
2732.000000 0.8035 0.8015 0.7995 0.7973 0.7952
2737.000000 0.7928 0.7904 0.7715 0.7527 0.7569
2742.000000 0.7611 0.7727 0.7843 0.7874 0.7905
2747.000000 0.7903 0.7901 0.7878 0.7856 0.7811
2752.000000 0.7766 0.7721 0.7676 0.7635 0.7595
2757.000000 0.7592 0.7589 0.7593 0.7598 0.7619
2762.000000 0.7641 0.7667 0.7693 0.7714 0.7735
2767.000000 0.7753 0.7771 0.7781 0.7792 0.7793
2772.000000 0.7794 0.7785 0.7777 0.7759 0.7741
2777.000000 0.7719 0.7697 0.7668 0.7639 0.7615
2782.000000 0.7591 0.7577 0.7563 0.7560 0.7558
2787.000000 0.7582 0.7606 0.7633 0.7660 0.7678
2792.000000 0.7697 0.7694 0.7691 0.7673 0.7656
2797.000000 0.7610 0.7564 0.7530 0.7497 0.7494
2802.000000 0.7492 0.7494 0.7497 0.7498 0.7500
2807.000000 0.7489 0.7478 0.7464 0.7450 0.7430
2812.000000 0.7410 0.7370 0.7330 0.7298 0.7266
2817.000000 0.7229 0.7192 0.7148 0.7104 0.7035
2822.000000 0.6966 0.6891 0.6816 0.6755 0.6695
2827.000000 0.6638 0.6582 0.6514 0.6447 0.6265
2832.000000 0.6083 0.6039 0.5996 0.5957 0.5918
2837.000000 0.5883 0.5848 0.5811 0.5775 0.5737
2842.000000 0.5699 0.5652 0.5605 0.5541 0.5477
2847.000000 0.4981 0.4485 0.4184 0.3883 0.3694
2852.000000 0.3506 0.3317 0.3129 0.2941 0.2753
2857.000000 0.2564 0.2376 0.2187 0.1999 0.1810
2862.000000 0.1622 0.1434 0.1246 0.1057 0.0869
2867.000000 0.0676 0.0484 0.0435 0.0387 0.0380
2872.000000 0.0373 0.0380 0.0388 0.0470 0.0553
2877.000000 0.0653 0.0754 0.0854 0.0955 0.0951
2882.000000 0.0947 0.0846 0.0745 0.0644 0.0543
2887.000000 0.0452 0.0361 0.0331 0.0301 0.0281
2892.000000 0.0262 0.0244 0.0226 0.0215 0.0204
2897.000000 0.0202 0.0200 0.0203 0.0206 0.0216
2902.000000 0.0226 0.0236 0.0246 0.0258 0.0271
2907.000000 0.0282 0.0293 0.0298 0.0304 0.0303
2912.000000 0.0302 0.0298 0.0294 0.0282 0.0271
2917.000000 0.0258 0.0246 0.0231 0.0217 0.0202
2922.000000 0.0188 0.0175 0.0163 0.0152 0.0141
2927.000000 0.0128 0.0116 0.0104 0.0092 0.0086
2932.000000 0.0081 0.0075 0.0070 0.0064 0.0058
2937.000000 0.0054 0.0050 0.0046 0.0043 0.0040
2942.000000 0.0037 0.0036 0.0036 0.0035 0.0035
2947.000000 0.0033 0.0032 0.0030 0.0029 0.0027
2952.000000 0.0026 0.0026 0.0026 0.0026 0.0027
2957.000000 0.0027 0.0027 0.0027 0.0027 0.0027
2962.000000 0.0027 0.0027 0.0027 0.0027 0.0027
2967.000000 0.0027 0.0027 0.0027 0.0027 0.0027
2972.000000 0.0027 0.0027 0.0027 0.0027 0.0027
2977.000000 0.0028 0.0029 0.0029 0.0030 0.0032
2982.000000 0.0034 0.0037 0.0040 0.0044 0.0049
2987.000000 0.0055 0.0061 0.0067 0.0073 0.0081
2992.000000 0.0089 0.0103 0.0117 0.0136 0.0156
2997.000000 0.0175 0.0194 0.0315 0.0437 0.0490
3002.000000 0.0543 0.0553 0.0564 0.0829 0.1095
3007.000000 0.1329 0.1563 0.1862 0.2161 0.2460
3012.000000 0.2760 0.3059 0.3359 0.3658 0.3958
3017.000000 0.4257 0.4557 0.4856 0.5156 0.5455
3022.000000 0.5754 0.6053 0.6353 0.6652 0.6952
3027.000000 0.7133 0.7315 0.7390 0.7465 0.7553
3032.000000 0.7642 0.7857 0.8072 0.8113 0.8154
3037.000000 0.8193 0.8232 0.8263 0.8295 0.8323
3042.000000 0.8352 0.8371 0.8391 0.8399 0.8408
3047.000000 0.8416 0.8425 0.8433 0.8442 0.8449
3052.000000 0.8456 0.8460 0.8465 0.8469 0.8474
3057.000000 0.8477 0.8481 0.8481 0.8481 0.8481
3062.000000 0.8481 0.8481 0.8481 0.8481 0.8481
3067.000000 0.8481 0.8512 0.8481 0.8481 0.8479
3072.000000 0.8477 0.8475 0.8474 0.8472 0.8471
3077.000000 0.8469 0.8468 0.8466 0.8465 0.8463
3082.000000 0.8462 0.8459 0.8456 0.8453 0.8450
3087.000000 0.8447 0.8444 0.8441 0.8439 0.8433
3092.000000 0.8428 0.8423 0.8418 0.8413 0.8408
3097.000000 0.8403 0.8398 0.8392 0.8387 0.8381
3102.000000 0.8376 0.8370 0.8365 0.8359 0.8353
3107.000000 0.8347 0.8341 0.8335 0.8330 0.8324
3112.000000 0.8318 0.8312 0.8306 0.8300 0.8295
3117.000000 0.8289 0.8283 0.8277 0.8271 0.8262
3122.000000 0.8254 0.8245 0.8236 0.8227 0.8219
3127.000000 0.8210 0.8201 0.8192 0.8184 0.8175
3132.000000 0.8166 0.8157 0.8149 0.8140 0.8131
3137.000000 0.8122 0.8114 0.8105 0.8097 0.8088
3142.000000 0.8080 0.8071 0.8063 0.8054 0.8045
3147.000000 0.8036 0.8028 0.8019 0.8011 0.8002
3152.000000 0.7994 0.7985 0.7977 0.7967 0.7958
3157.000000 0.7948 0.7939 0.7929 0.7919 0.7909
3162.000000 0.7900 0.7890 0.7881 0.7871 0.7862
3167.000000 0.7852 0.7842 0.7835 0.7828 0.7821
3172.000000 0.7815 0.7808 0.7802 0.7796 0.7790
3177.000000 0.7785 0.7780 0.7774 0.7769 0.7764
3182.000000 0.7768 0.7766 0.7773 0.7788 0.7803
3187.000000 0.7826 0.7849 0.7870 0.7891 0.7908
3192.000000 0.7926 0.7941 0.7956 0.7967 0.7979
3197.000000 0.7990 0.8001 0.8012 0.8024 0.8034
3202.000000 0.8045 0.8055 0.8065 0.8075 0.8085
3207.000000 0.8094 0.8104 0.8114 0.8124 0.8133
3212.000000 0.8143 0.8153 0.8163 0.8173 0.8184
3217.000000 0.8196 0.8208 0.8220 0.8232 0.8243
3222.000000 0.8255 0.8268 0.8281 0.8294 0.8308
3227.000000 0.8321 0.8334 0.8347 0.8361 0.8374
3232.000000 0.8388 0.8400 0.8413 0.8424 0.8436
3237.000000 0.8447 0.8459 0.8470 0.8482 0.8493
3242.000000 0.8505 0.8516 0.8528 0.8539 0.8551
3247.000000 0.8560 0.8570 0.8579 0.8588 0.8597
3252.000000 0.8607 0.8616 0.8625 0.8634 0.8643
3257.000000 0.8649 0.8656 0.8661 0.8667 0.8672
3262.000000 0.8678 0.8680 0.8682 0.8684 0.8686
3267.000000 0.8688 0.8690 0.8692 0.8694 0.8694
3272.000000 0.8694 0.8694 0.8694 0.8694 0.8694
3277.000000 0.8694 0.8721 0.8694 0.8694 0.8693
3282.000000 0.8693 0.8692 0.8691 0.8690 0.8689
3287.000000 0.8688 0.8687 0.8685 0.8684 0.8683
3292.000000 0.8682 0.8681 0.8680 0.8678 0.8677
3297.000000 0.8673 0.8669 0.8665 0.8661 0.8656
3302.000000 0.8652 0.8648 0.8644 0.8640 0.8636
3307.000000 0.8632 0.8628 0.8624 0.8620 0.8611
3312.000000 0.8603 0.8592 0.8581 0.8570 0.8559
3317.000000 0.8547 0.8536 0.8530 0.8524 0.8517
3322.000000 0.8511 0.8505 0.8499 0.8502 0.8506
3327.000000 0.8511 0.8516 0.8515 0.8515 0.8514
3332.000000 0.8514 0.8513 0.8512 0.8508 0.8504
3337.000000 0.8500 0.8497 0.8493 0.8489 0.8484
3342.000000 0.8482 0.8475 0.8471 0.8477 0.8484
3347.000000 0.8490 0.8497 0.8503 0.8510 0.8516
3352.000000 0.8523 0.8531 0.8540 0.8550 0.8560
3357.000000 0.8570 0.8580 0.8590 0.8600 0.8610
3362.000000 0.8620 0.8630 0.8641 0.8651 0.8662
3367.000000 0.8673 0.8684 0.8693 0.8703 0.8706
3372.000000 0.8709 0.8711 0.8714 0.8717 0.8720
3377.000000 0.8720 0.8721 0.8721 0.8721 0.8721
3382.000000 0.8721 0.8721 0.8721 0.8721 0.8721
3387.000000 0.8721 0.8721 0.8721 0.8722 0.8722
3392.000000 0.8722 0.8722 0.8723 0.8723 0.8723
3397.000000 0.8723 0.8723 0.8723 0.8724 0.8724
3402.000000 0.8724 0.8724 0.8725 0.8725 0.8725
3407.000000 0.8725 0.8725 0.8725 0.8725 0.8725
3412.000000 0.8725 0.8725 0.8725 0.8725 0.8725
3417.000000 0.8725 0.8725 0.8725 0.8725 0.8725
3422.000000 0.8725 0.8725 0.8726 0.8726 0.8727
3427.000000 0.8727 0.8728 0.8728 0.8729 0.8729
3432.000000 0.8730 0.8730 0.8731 0.8731 0.8732
3437.000000 0.8732 0.8733 0.8734 0.8735 0.8735
3442.000000 0.8736 0.8736 0.8737 0.8738 0.8740
3447.000000 0.8741 0.8742 0.8743 0.8745 0.8746
3452.000000 0.8748 0.8749 0.8751 0.8752 0.8754
3457.000000 0.8755 0.8757 0.8758 0.8760 0.8761
3462.000000 0.8763 0.8764 0.8765 0.8766 0.8768
3467.000000 0.8769 0.8770 0.8771 0.8772 0.8773
3472.000000 0.8774 0.8775 0.8776 0.8777 0.8779
3477.000000 0.8780 0.8781 0.8782 0.8783 0.8784
3482.000000 0.8785 0.8786 0.8787 0.8788 0.8790
3487.000000 0.8791 0.8792 0.8793 0.8794 0.8795
3492.000000 0.8797 0.8798 0.8800 0.8801 0.8802
3497.000000 0.8803 0.8805 0.8806 0.8807 0.8808
3502.000000 0.8810 0.8811 0.8812 0.8813 0.8815
3507.000000 0.8816 0.8817 0.8818 0.8820 0.8821
3512.000000 0.8822 0.8822 0.8823 0.8824 0.8825
3517.000000 0.8825 0.8826 0.8826 0.8827 0.8828
3522.000000 0.8829 0.8829 0.8830 0.8830 0.8831
3527.000000 0.8832 0.8833 0.8833 0.8834 0.8834
3532.000000 0.8835 0.8835 0.8836 0.8837 0.8838
3537.000000 0.8838 0.8838 0.8838 0.8839 0.8839
3542.000000 0.8840 0.8840 0.8872 0.8841 0.8841
3547.000000 0.8841 0.8842 0.8842 0.8843 0.8843
3552.000000 0.8844 0.8844 0.8844 0.8844 0.8845
3557.000000 0.8845 0.8846 0.8847 0.8848 0.8848
3562.000000 0.8849 0.8849 0.8850 0.8850 0.8851
3567.000000 0.8851 0.8852 0.8853 0.8854 0.8854
3572.000000 0.8855 0.8855 0.8856 0.8856 0.8857
3577.000000 0.8857 0.8858 0.8859 0.8860 0.8860
3582.000000 0.8861 0.8861 0.8861 0.8861 0.8861
3587.000000 0.8861 0.8862 0.8862 0.8862 0.8862
3592.000000 0.8862 0.8862 0.8863 0.8863 0.8863
3597.000000 0.8863 0.8863 0.8863 0.8864 0.8864
3602.000000 0.8864 0.8864 0.8864 0.8864 0.8864
3607.000000 0.8862 0.8860 0.8858 0.8857 0.8855
3612.000000 0.8853 0.8851 0.8850 0.8848 0.8846
3617.000000 0.8844 0.8843 0.8841 0.8840 0.8838
3622.000000 0.8836 0.8834 0.8833 0.8831 0.8829
3627.000000 0.8827 0.8825 0.8822 0.8820 0.8818
3632.000000 0.8816 0.8813 0.8811 0.8809 0.8807
3637.000000 0.8805 0.8803 0.8800 0.8798 0.8796
3642.000000 0.8794 0.8791 0.8789 0.8787 0.8785
3647.000000 0.8783 0.8781 0.8778 0.8776 0.8774
3652.000000 0.8772 0.8769 0.8767 0.8764 0.8761
3657.000000 0.8758 0.8755 0.8752 0.8749 0.8746
3662.000000 0.8743 0.8740 0.8737 0.8734 0.8731
3667.000000 0.8728 0.8725 0.8722 0.8719 0.8716
3672.000000 0.8713 0.8710 0.8707 0.8704 0.8701
3677.000000 0.8701 0.8701 0.8702 0.8703 0.8704
3682.000000 0.8705 0.8707 0.8709 0.8717 0.8726
3687.000000 0.8734 0.8743 0.8751 0.8760 0.8764
3692.000000 0.8769 0.8771 0.8774 0.8777 0.8780
3697.000000 0.8783 0.8787 0.8791 0.8795 0.8798
3702.000000 0.8802 0.8805 0.8809 0.8812 0.8815
3707.000000 0.8818 0.8822 0.8825 0.8828 0.8832
3712.000000 0.8836 0.8840 0.8844 0.8848 0.8852
3717.000000 0.8856 0.8861 0.8865 0.8869 0.8872
3722.000000 0.8876 0.8879 0.8883 0.8887 0.8891
3727.000000 0.8893 0.8896 0.8895 0.8894 0.8893
3732.000000 0.8893 0.8889 0.8885 0.8880 0.8875
3737.000000 0.8869 0.8864 0.8859 0.8854 0.8849
3742.000000 0.8844 0.8839 0.8834 0.8829 0.8824
3747.000000 0.8819 0.8815 0.8810 0.8805 0.8800
3752.000000 0.8795 0.8790 0.8786 0.8781 0.8776
3757.000000 0.8771 0.8766 0.8760 0.8755 0.8749
3762.000000 0.8743 0.8737 0.8732 0.8726 0.8720
3767.000000 0.8714 0.8709 0.8704 0.8700 0.8696
3772.000000 0.8693 0.8689 0.8686 0.8684 0.8682
3777.000000 0.8680 0.8678 0.8676 0.8675 0.8674
3782.000000 0.8673
##END=
