##TITLE=SULFUR DIOXIDE
##JCAMP-DX=4.24
##DATA TYPE=INFRARED SPECTRUM
##CLASS=COBLENTZ
##ORIGIN=DOW CHEMICAL COMPANY
##OWNER=COBLENTZ SOCIETY
Collection (C) 2018 copyright by the U.S. Secretary of Commerce
on behalf of the United States of America. All rights reserved.
##DATE=1977/11/16
##NAMES=oxosulfane oxide
##CAS REGISTRY NO=7446-09-5
##MOLFORM=O2 S
##SOURCE REFERENCE=COBLENTZ NO. 10500
##$NIST SOURCE=COBLENTZ
##$NIST IMAGE=cob-r10500
##SPECTROMETER/DATA SYSTEM=PERKIN-ELMER 180
##INSTRUMENT PARAMETERS=I0 MODE
##STATE=GAS (100 mmHg, N2 ADDED, TOTAL PRESSURE 600 mmHg)
##PATH LENGTH=1 CM
##SAMPLING PROCEDURE=TRANSMISSION
##RESOLUTION=1 CM^-^1 AT 4000
##DATA PROCESSING=DIGITIZED BY NIST FROM HARD COPY (FROM TWO SEGMENTS)
##XUNITS=1/CM
##YUNITS=TRANSMITTANCE
##XFACTOR=1.000000
##YFACTOR=1
##DELTAX=1.513517
##FIRSTX=270.054
##LASTX=3999.36
##FIRSTY=0
##MAXX=3999.36
##MINX=270.054
##MAXY=0.918
##MINY=0
##NPOINTS=2465
##XYDATA=(X++(Y..Y))
270.054000 0.0000 0.0000 0.0000 0.0000 0.0000
277.621583 0.0000 0.0000 0.0000 0.0000 0.0000
285.189166 0.0000 0.0000 0.0000 0.0000 0.0000
292.756750 0.0000 0.0000 0.0000 0.0000 0.0000
300.324333 0.0000 0.0000 0.0000 0.0010 0.0010
307.891916 0.0040 0.0090 0.0090 0.0100 0.0100
315.459499 0.0120 0.0190 0.0190 0.0210 0.0220
323.027082 0.0250 0.0280 0.0310 0.0389 0.0450
330.594665 0.0490 0.0510 0.0580 0.0610 0.0700
338.162249 0.0790 0.0909 0.0999 0.1089 0.1110
345.729832 0.1200 0.1290 0.1340 0.1579 0.1610
353.297415 0.1700 0.1790 0.1919 0.2059 0.2189
360.864998 0.2220 0.2310 0.2400 0.2480 0.2620
368.432581 0.2720 0.2979 0.3050 0.3129 0.3219
376.000165 0.3280 0.3430 0.3560 0.3680 0.3730
383.567748 0.3840 0.3939 0.4029 0.4109 0.4179
391.135331 0.4420 0.4470 0.4560 0.4570 0.4710
398.702914 0.4999 0.5129 0.5269 0.5330 0.5419
406.270497 0.5480 0.5540 0.5660 0.5790 0.5870
413.838081 0.5970 0.6050 0.6060 0.6229 0.6319
421.405664 0.6470 0.6500 0.6560 0.6620 0.6680
428.973247 0.6770 0.6850 0.6920 0.6940 0.7009
436.540830 0.7060 0.7120 0.7190 0.7240 0.7270
444.108413 0.7300 0.7330 0.7390 0.7400 0.7450
451.675996 0.7500 0.7530 0.7530 0.7560 0.7590
459.243580 0.7600 0.7600 0.7600 0.7620 0.7620
466.811163 0.7620 0.7620 0.7600 0.7600 0.7600
474.378746 0.7570 0.7560 0.7530 0.7510 0.7500
481.946329 0.7430 0.7420 0.7390 0.7310 0.7270
489.513912 0.7220 0.7130 0.7060 0.7030 0.7000
497.081496 0.6980 0.6940 0.6920 0.6910 0.6910
504.649079 0.6920 0.6970 0.7149 0.7279 0.7419
512.216662 0.7660 0.7770 0.7890 0.7900 0.7900
519.784245 0.7800 0.7601 0.7332 0.7251 0.7151
527.351828 0.7060 0.7010 0.7000 0.7010 0.7120
534.919412 0.7160 0.7180 0.7299 0.7429 0.7499
542.486995 0.7570 0.7660 0.7720 0.7770 0.7870
550.054578 0.7920 0.7960 0.7990 0.8050 0.8139
557.622161 0.8160 0.8200 0.8230 0.8310 0.8350
565.189744 0.8370 0.8370 0.8380 0.8410 0.8430
572.757327 0.8490 0.8500 0.8500 0.8520 0.8580
580.324911 0.8590 0.8620 0.8650 0.8670 0.8680
587.892494 0.8680 0.8700 0.8710 0.8730 0.8750
595.460077 0.8750 0.8780 0.8790 0.8810 0.8840
603.027660 0.8850 0.8870 0.8870 0.8870 0.8880
610.595243 0.8880 0.8900 0.8900 0.8900 0.8900
618.162827 0.8900 0.8910 0.8940 0.8940 0.8930
625.730410 0.8930 0.8930 0.8930 0.8930 0.8930
633.297993 0.8940 0.8940 0.8960 0.8960 0.8960
640.865576 0.8960 0.8960 0.8960 0.8970 0.8990
648.433159 0.8990 0.8990 0.9000 0.9000 0.9000
656.000743 0.9000 0.9000 0.9000 0.9000 0.9020
663.568326 0.9000 0.9000 0.8990 0.9000 0.9000
671.135909 0.9020 0.9020 0.9020 0.9020 0.9030
678.703492 0.9030 0.9020 0.9020 0.9020 0.9020
686.271075 0.9020 0.9020 0.9020 0.9020 0.9020
693.838658 0.9030 0.9030 0.9050 0.9050 0.9050
701.406242 0.9050 0.9050 0.9050 0.9030 0.9030
708.973825 0.9020 0.9000 0.9000 0.9000 0.9000
716.541408 0.9000 0.9020 0.9020 0.9020 0.9020
724.108991 0.9030 0.9050 0.9050 0.9080 0.9080
731.676574 0.9090 0.9090 0.9090 0.9110 0.9110
739.244158 0.9090 0.9090 0.9090 0.9080 0.9080
746.811741 0.9080 0.9090 0.9090 0.9090 0.9090
754.379324 0.9090 0.9090 0.9110 0.9120 0.9140
761.946907 0.9140 0.9120 0.9140 0.9150 0.9150
769.514490 0.9170 0.9170 0.9170 0.9170 0.9170
777.082074 0.9170 0.9180 0.9180 0.9170 0.9170
784.649657 0.9150 0.9150 0.9150 0.9150 0.9140
792.217240 0.9140 0.9120 0.9120 0.9120 0.9120
799.784823 0.9140 0.9150 0.9170 0.9180 0.9180
807.352406 0.9180 0.9170 0.9170 0.9140 0.9140
814.919989 0.9140 0.9140 0.9140 0.9120 0.9120
822.487573 0.9120 0.9120 0.9120 0.9140 0.9140
830.055156 0.9120 0.9120 0.9120 0.9110 0.9120
837.622739 0.9110 0.9110 0.9110 0.9110 0.9110
845.190322 0.9110 0.9110 0.9120 0.9120 0.9090
852.757905 0.9090 0.9080 0.9080 0.9060 0.9060
860.325489 0.9060 0.9050 0.9050 0.9060 0.9060
867.893072 0.9080 0.9090 0.9090 0.9090 0.9090
875.460655 0.9080 0.9080 0.9080 0.9060 0.9060
883.028238 0.9050 0.9030 0.9030 0.9030 0.9030
890.595821 0.9030 0.9030 0.9050 0.9050 0.9050
898.163405 0.9050 0.9050 0.9030 0.9030 0.9030
905.730988 0.9030 0.9030 0.9030 0.9030 0.9030
913.298571 0.9030 0.9030 0.9030 0.9020 0.9020
920.866154 0.9000 0.9000 0.9000 0.9000 0.9000
928.433737 0.9000 0.9020 0.9020 0.9000 0.9000
936.001320 0.9000 0.9000 0.9000 0.9020 0.9020
943.568904 0.9020 0.9020 0.9020 0.9020 0.9020
951.136487 0.9000 0.9000 0.9000 0.9000 0.9000
958.704070 0.9000 0.9000 0.8990 0.8990 0.8990
966.271653 0.8990 0.8990 0.8990 0.8990 0.8990
973.839236 0.8990 0.8990 0.8990 0.8990 0.8990
981.406820 0.8990 0.8990 0.8990 0.8990 0.8990
988.974403 0.8990 0.8990 0.8990 0.8990 0.8990
996.541986 0.8990 0.8970 0.8960 0.8930 0.8910
1004.109569 0.8900 0.8900 0.8870 0.8870 0.8850
1011.677152 0.8840 0.8840 0.8840 0.8840 0.8840
1019.244735 0.8840 0.8840 0.8840 0.8840 0.8840
1026.812319 0.8840 0.8840 0.8840 0.8840 0.8840
1034.379902 0.8840 0.8840 0.8840 0.8840 0.8840
1041.947485 0.8840 0.8840 0.8840 0.8840 0.8840
1049.515068 0.8840 0.8840 0.8840 0.8840 0.8840
1057.082651 0.8840 0.8850 0.8850 0.8850 0.8850
1064.650235 0.8850 0.8850 0.8820 0.8810 0.8810
1072.217818 0.8810 0.8790 0.8790 0.8760 0.8750
1079.785401 0.8730 0.8730 0.8730 0.8730 0.8730
1087.352984 0.8730 0.8730 0.8710 0.8710 0.8700
1094.920567 0.8680 0.8650 0.8620 0.8610 0.8610
1102.488151 0.8580 0.8530 0.8500 0.8470 0.8460
1110.055734 0.8440 0.8430 0.8400 0.8340 0.8290
1117.623317 0.8250 0.8200 0.8170 0.8160 0.8100
1125.190900 0.8010 0.7930 0.7870 0.7830 0.7741
1132.758483 0.7690 0.7620 0.7570 0.7510 0.7430
1140.326066 0.7430 0.7480 0.7510 0.7540 0.7629
1147.893650 0.7750 0.7810 0.7860 0.7980 0.8130
1155.461233 0.8220 0.8220 0.8111 0.7961 0.7811
1163.028816 0.7620 0.7460 0.7370 0.7300 0.7300
1170.596399 0.7280 0.7300 0.7360 0.7430 0.7509
1178.163982 0.7600 0.7660 0.7720 0.7750 0.7870
1185.731566 0.7990 0.8040 0.8100 0.8110 0.8160
1193.299149 0.8170 0.8200 0.8250 0.8260 0.8280
1200.866732 0.8290 0.8290 0.8320 0.8380 0.8430
1208.434315 0.8470 0.8500 0.8530 0.8580 0.8590
1216.001898 0.8610 0.8620 0.8640 0.8670 0.8700
1223.569482 0.8710 0.8710 0.8730 0.8750 0.8780
1231.137065 0.8790 0.8810 0.8810 0.8820 0.8840
1238.704648 0.8850 0.8870 0.8870 0.8880 0.8880
1246.272231 0.8880 0.8880 0.8880 0.8900 0.8900
1253.839814 0.8900 0.8900 0.8900 0.8900 0.8900
1261.407397 0.8900 0.8900 0.8900 0.8900 0.8900
1268.974981 0.8900 0.8910 0.8910 0.8910 0.8910
1276.542564 0.8910 0.8910 0.8930 0.8930 0.8930
1284.110147 0.8930 0.8930 0.8930 0.8930 0.8930
1291.677730 0.8930 0.8930 0.8930 0.8930 0.8930
1299.245313 0.8930 0.8930 0.8930 0.8930 0.8930
1306.812897 0.8910 0.8900 0.8850 0.8840 0.8780
1314.380480 0.8730 0.8650 0.8520 0.8410 0.8310
1321.948063 0.8220 0.8021 0.7721 0.7372 0.7002
1329.515646 0.6670 0.6400 0.5810 0.5131 0.4651
1337.083229 0.4152 0.3612 0.3192 0.2862 0.2195
1344.650813 0.1730 0.1520 0.1400 0.1370 0.1350
1352.218396 0.1370 0.1460 0.1520 0.1609 0.1729
1359.785979 0.1770 0.1790 0.1790 0.1201 0.0611
1367.353562 0.2205 0.5378 0.3410 0.1421 0.1201
1374.921145 0.0990 0.0820 0.0870 0.1020 0.1180
1382.488728 0.1489 0.1789 0.2417 0.2708 0.3157
1390.056312 0.3641 0.4121 0.5700 0.6609 0.7398
1397.623895 0.7869 0.8049 0.8229 0.8349 0.8519
1405.191478 0.8700 0.8850 0.8870 0.8870 0.8880
1412.759061 0.8880 0.8880 0.8880 0.8880 0.8880
1420.326644 0.8880 0.8880 0.8880 0.8880 0.8880
1427.894228 0.8880 0.8880 0.8870 0.8870 0.8870
1435.461811 0.8880 0.8880 0.8900 0.8900 0.8900
1443.029394 0.8900 0.8910 0.8910 0.8900 0.8900
1450.596977 0.8880 0.8880 0.8880 0.8880 0.8880
1458.164560 0.8880 0.8870 0.8870 0.8870 0.8850
1465.732144 0.8850 0.8840 0.8820 0.8820 0.8820
1473.299727 0.8840 0.8840 0.8840 0.8850 0.8850
1480.867310 0.8870 0.8880 0.8900 0.8910 0.8910
1488.434893 0.8910 0.8910 0.8930 0.8930 0.8940
1496.002476 0.8960 0.8960 0.8970 0.8970 0.8970
1503.570059 0.8970 0.8970 0.8970 0.8970 0.8970
1511.137643 0.8960 0.8960 0.8960 0.8960 0.8970
1518.705226 0.8970 0.8990 0.8990 0.8990 0.8970
1526.272809 0.8970 0.8970 0.8970 0.8970 0.8960
1533.840392 0.8960 0.8960 0.8960 0.8960 0.8940
1541.407975 0.8940 0.8940 0.8930 0.8930 0.8910
1548.975559 0.8910 0.8930 0.8930 0.8940 0.8940
1556.543142 0.8930 0.8930 0.8930 0.8910 0.8900
1564.110725 0.8900 0.8930 0.8930 0.8930 0.8930
1571.678308 0.8930 0.8910 0.8910 0.8910 0.8900
1579.245891 0.8900 0.8880 0.8880 0.8880 0.8880
1586.813475 0.8900 0.8900 0.8900 0.8900 0.8900
1594.381058 0.8900 0.8900 0.8880 0.8880 0.8880
1601.948641 0.8880 0.8880 0.8880 0.8880 0.8880
1609.516224 0.8880 0.8880 0.8880 0.8880 0.8880
1617.083807 0.8880 0.8880 0.8880 0.8880 0.8870
1624.651390 0.8870 0.8870 0.8850 0.8850 0.8820
1632.218974 0.8820 0.8820 0.8820 0.8820 0.8820
1639.786557 0.8840 0.8850 0.8880 0.8880 0.8880
1647.354140 0.8880 0.8880 0.8900 0.8900 0.8870
1654.921723 0.8850 0.8840 0.8840 0.8850 0.8880
1662.489306 0.8900 0.8910 0.8910 0.8930 0.8930
1670.056890 0.8940 0.8940 0.8940 0.8940 0.8930
1677.624473 0.8930 0.8930 0.8930 0.8930 0.8930
1685.192056 0.8930 0.8930 0.8930 0.8930 0.8930
1692.759639 0.8930 0.8930 0.8910 0.8910 0.8910
1700.327222 0.8910 0.8910 0.8910 0.8910 0.8910
1707.894806 0.8910 0.8910 0.8910 0.8910 0.8910
1715.462389 0.8910 0.8910 0.8910 0.8910 0.8930
1723.029972 0.8930 0.8940 0.8940 0.8940 0.8940
1730.597555 0.8930 0.8930 0.8930 0.8930 0.8910
1738.165138 0.8910 0.8910 0.8930 0.8930 0.8930
1745.732721 0.8930 0.8930 0.8940 0.8940 0.8940
1753.300305 0.8960 0.8970 0.8970 0.8970 0.8990
1760.867888 0.8990 0.8970 0.8970 0.8990 0.8990
1768.435471 0.8990 0.8990 0.8990 0.8990 0.8990
1776.003054 0.8990 0.8990 0.8990 0.8990 0.8990
1783.570637 0.8990 0.8990 0.9000 0.9000 0.9000
1791.138221 0.9000 0.9000 0.9000 0.9000 0.9000
1798.705804 0.9000 0.9000 0.8990 0.8990 0.8990
1806.273387 0.8990 0.8990 0.8990 0.8990 0.8990
1813.840970 0.8990 0.8970 0.8970 0.8970 0.8990
1821.408553 0.9000 0.9000 0.9000 0.9000 0.9000
1828.976136 0.9000 0.9000 0.9000 0.9000 0.9000
1836.543720 0.9000 0.9000 0.9000 0.9000 0.9000
1844.111303 0.9000 0.9000 0.9000 0.9000 0.9000
1851.678886 0.9000 0.9000 0.9000 0.9000 0.8990
1859.246469 0.8990 0.8990 0.8970 0.8970 0.8970
1866.814052 0.8970 0.8970 0.8970 0.8990 0.8990
1874.381636 0.8990 0.8990 0.8990 0.8990 0.8990
1881.949219 0.8990 0.8990 0.8990 0.8990 0.8990
1889.516802 0.8990 0.8990 0.8990 0.9000 0.9000
1897.084385 0.9000 0.9000 0.8990 0.8970 0.8970
1904.651968 0.8960 0.8960 0.8960 0.8960 0.8960
1912.219552 0.8960 0.8960 0.8970 0.8970 0.8990
1919.787135 0.8990 0.8990 0.8990 0.8990 0.8990
1927.354718 0.8990 0.8970 0.8970 0.8970 0.8970
1934.922301 0.8970 0.8970 0.8960 0.8960 0.8960
1942.489884 0.8960 0.8940 0.8940 0.8960 0.8970
1950.057467 0.8970 0.8990 0.8990 0.8990 0.8990
1957.625051 0.8990 0.8990 0.8990 0.8970 0.8960
1965.192634 0.8940 0.8930 0.8910 0.8910 0.8910
1972.760217 0.8930 0.8930 0.8930 0.8910 0.8910
1980.327800 0.8910 0.8910 0.8910 0.8910 0.8910
1987.895383 0.8910 0.8910 0.8910 0.8910 0.8940
1995.462967 0.8940 0.8940 0.8990 0.9000 0.9010
2003.030550 0.9020 0.9025 0.9030 0.9040 0.9050
2010.598133 0.9055 0.9060 0.9070 0.9080 0.9080
2018.165716 0.9080 0.9065 0.9051 0.9050 0.9050
2025.733299 0.9040 0.9030 0.9030 0.9030 0.9030
2033.300883 0.9030 0.9025 0.9020 0.9020 0.9020
2040.868466 0.9020 0.9020 0.9020 0.9020 0.9025
2048.436049 0.9030 0.9030 0.9030 0.9030 0.9030
2056.003632 0.9030 0.9030 0.9030 0.9030 0.9030
2063.571215 0.9030 0.9030 0.9030 0.9030 0.9030
2071.138798 0.9030 0.9030 0.9030 0.9030 0.9030
2078.706382 0.9030 0.9030 0.9030 0.9030 0.9030
2086.273965 0.9030 0.9030 0.9030 0.9030 0.9030
2093.841548 0.9030 0.9030 0.9030 0.9030 0.9030
2101.409131 0.9030 0.9030 0.9030 0.9030 0.9025
2108.976714 0.9020 0.9020 0.9020 0.9020 0.9020
2116.544298 0.9033 0.9048 0.9050 0.9050 0.9041
2124.111881 0.9031 0.9030 0.9030 0.9030 0.9030
2131.679464 0.9030 0.9030 0.9026 0.9021 0.9020
2139.247047 0.9020 0.9011 0.9001 0.9000 0.9000
2146.814630 0.9009 0.9019 0.9020 0.9020 0.9024
2154.382214 0.9029 0.9030 0.9030 0.9030 0.9030
2161.949797 0.9039 0.9049 0.9050 0.9050 0.9050
2169.517380 0.9050 0.9050 0.9050 0.9050 0.9050
2177.084963 0.9041 0.9032 0.9026 0.9021 0.9020
2184.652546 0.9020 0.9011 0.9001 0.9000 0.9000
2192.220129 0.9013 0.9028 0.9030 0.9030 0.9017
2199.787713 0.9002 0.9000 0.9000 0.9000 0.9000
2207.355296 0.8996 0.8991 0.8990 0.8990 0.8990
2214.922879 0.8990 0.8990 0.8990 0.8990 0.8990
2222.490462 0.8990 0.8990 0.8990 0.8990 0.8990
2230.058045 0.8990 0.8994 0.8999 0.9000 0.9000
2237.625629 0.9000 0.9000 0.9000 0.9000 0.8996
2245.193212 0.8991 0.8990 0.8990 0.8990 0.8990
2252.760795 0.8990 0.8990 0.8982 0.8972 0.8970
2260.328378 0.8970 0.8970 0.8970 0.8970 0.8970
2267.895961 0.8970 0.8970 0.8970 0.8970 0.8970
2275.463545 0.8970 0.8970 0.8970 0.8970 0.8970
2283.031128 0.8970 0.8970 0.8970 0.8970 0.8970
2290.598711 0.8970 0.8970 0.8970 0.8966 0.8961
2298.166294 0.8960 0.8960 0.8952 0.8942 0.8940
2305.733877 0.8940 0.8940 0.8940 0.8940 0.8940
2313.301460 0.8940 0.8940 0.8940 0.8940 0.8940
2320.869044 0.8940 0.8940 0.8940 0.8940 0.8940
2328.436627 0.8940 0.8940 0.8936 0.8931 0.8930
2336.004210 0.8930 0.8930 0.8930 0.8930 0.8930
2343.571793 0.8930 0.8930 0.8930 0.8930 0.8930
2351.139376 0.8930 0.8934 0.8939 0.8940 0.8940
2358.706960 0.8940 0.8940 0.8940 0.8940 0.8940
2366.274543 0.8940 0.8940 0.8940 0.8940 0.8940
2373.842126 0.8940 0.8940 0.8940 0.8940 0.8940
2381.409709 0.8940 0.8940 0.8940 0.8940 0.8940
2388.977292 0.8940 0.8940 0.8940 0.8940 0.8940
2396.544876 0.8940 0.8940 0.8940 0.8940 0.8940
2404.112459 0.8940 0.8940 0.8940 0.8940 0.8940
2411.680042 0.8940 0.8940 0.8940 0.8940 0.8940
2419.247625 0.8940 0.8940 0.8940 0.8940 0.8940
2426.815208 0.8940 0.8940 0.8940 0.8937 0.8932
2434.382791 0.8930 0.8930 0.8930 0.8930 0.8930
2441.950375 0.8930 0.8923 0.8913 0.8907 0.8902
2449.517958 0.8893 0.8883 0.8880 0.8880 0.8877
2457.085541 0.8872 0.8853 0.8828 0.8810 0.8795
2464.653124 0.8777 0.8757 0.8737 0.8717 0.8707
2472.220707 0.8702 0.8681 0.8651 0.8630 0.8615
2479.788291 0.8600 0.8586 0.8580 0.8580 0.8583
2487.355874 0.8588 0.8597 0.8606 0.8620 0.8635
2494.923457 0.8643 0.8648 0.8660 0.8674 0.8677
2502.491040 0.8672 0.8617 0.8532 0.8491 0.8476
2510.058623 0.8479 0.8494 0.8534 0.8590 0.8654
2517.626206 0.8724 0.8772 0.8807 0.8845 0.8885
2525.193790 0.8903 0.8908 0.8916 0.8926 0.8930
2532.761373 0.8930 0.8930 0.8930 0.8924 0.8914
2540.328956 0.8910 0.8910 0.8910 0.8910 0.8910
2547.896539 0.8910 0.8916 0.8926 0.8930 0.8930
2555.464122 0.8933 0.8938 0.8940 0.8940 0.8931
2563.031706 0.8916 0.8910 0.8910 0.8910 0.8910
2570.599289 0.8910 0.8910 0.8910 0.8910 0.8910
2578.166872 0.8910 0.8910 0.8910 0.8916 0.8926
2585.734455 0.8930 0.8930 0.8933 0.8938 0.8940
2593.302038 0.8940 0.8937 0.8932 0.8930 0.8930
2600.869622 0.8925 0.8915 0.8910 0.8910 0.8910
2608.437205 0.8910 0.8910 0.8910 0.8910 0.8910
2616.004788 0.8910 0.8910 0.8910 0.8910 0.8910
2623.572371 0.8910 0.8910 0.8910 0.8910 0.8910
2631.139954 0.8910 0.8910 0.8910 0.8910 0.8907
2638.707537 0.8902 0.8900 0.8900 0.8900 0.8900
2646.275121 0.8900 0.8900 0.8895 0.8885 0.8880
2653.842704 0.8880 0.8880 0.8880 0.8880 0.8880
2661.410287 0.8880 0.8880 0.8885 0.8895 0.8900
2668.977870 0.8900 0.8900 0.8900 0.8900 0.8900
2676.545453 0.8900 0.8900 0.8900 0.8900 0.8900
2684.113037 0.8900 0.8900 0.8900 0.8900 0.8900
2691.680620 0.8900 0.8900 0.8900 0.8900 0.8900
2699.248203 0.8900 0.8900 0.8900 0.8900 0.8900
2706.815786 0.8900 0.8900 0.8900 0.8900 0.8895
2714.383369 0.8885 0.8880 0.8880 0.8885 0.8895
2721.950953 0.8900 0.8900 0.8900 0.8900 0.8895
2729.518536 0.8885 0.8878 0.8873 0.8870 0.8870
2737.086119 0.8865 0.8855 0.8850 0.8850 0.8850
2744.653702 0.8850 0.8850 0.8850 0.8850 0.8850
2752.221285 0.8850 0.8850 0.8850 0.8850 0.8850
2759.788868 0.8850 0.8855 0.8865 0.8870 0.8870
2767.356452 0.8872 0.8877 0.8880 0.8880 0.8880
2774.924035 0.8880 0.8880 0.8880 0.8880 0.8880
2782.491618 0.8880 0.8880 0.8880 0.8880 0.8880
2790.059201 0.8880 0.8880 0.8880 0.8878 0.8873
2797.626784 0.8870 0.8870 0.8866 0.8856 0.8850
2805.194368 0.8850 0.8848 0.8843 0.8836 0.8826
2812.761951 0.8820 0.8820 0.8820 0.8820 0.8820
2820.329534 0.8820 0.8820 0.8820 0.8820 0.8820
2827.897117 0.8820 0.8820 0.8820 0.8820 0.8818
2835.464700 0.8813 0.8810 0.8810 0.8806 0.8796
2843.032284 0.8788 0.8783 0.8780 0.8780 0.8776
2850.599867 0.8766 0.8760 0.8760 0.8760 0.8760
2858.167450 0.8764 0.8774 0.8782 0.8787 0.8790
2865.735033 0.8790 0.8790 0.8790 0.8790 0.8790
2873.302616 0.8794 0.8804 0.8810 0.8810 0.8810
2880.870199 0.8810 0.8810 0.8810 0.8810 0.8810
2888.437783 0.8806 0.8796 0.8790 0.8790 0.8790
2896.005366 0.8790 0.8790 0.8790 0.8788 0.8783
2903.572949 0.8777 0.8767 0.8758 0.8753 0.8743
2911.140532 0.8723 0.8708 0.8703 0.8697 0.8687
2918.708115 0.8680 0.8680 0.8683 0.8693 0.8702
2926.275699 0.8707 0.8713 0.8723 0.8730 0.8730
2933.843282 0.8738 0.8763 0.8780 0.8780 0.8782
2941.410865 0.8787 0.8790 0.8790 0.8790 0.8790
2948.978448 0.8790 0.8790 0.8793 0.8803 0.8810
2956.546031 0.8810 0.8810 0.8810 0.8810 0.8810
2964.113615 0.8810 0.8810 0.8810 0.8810 0.8810
2971.681198 0.8810 0.8810 0.8810 0.8810 0.8810
2979.248781 0.8811 0.8816 0.8820 0.8820 0.8820
2986.816364 0.8820 0.8820 0.8820 0.8820 0.8820
2994.383947 0.8820 0.8820 0.8820 0.8820 0.8823
3001.951530 0.8833 0.8840 0.8840 0.8840 0.8840
3009.519114 0.8840 0.8840 0.8840 0.8840 0.8840
3017.086697 0.8840 0.8840 0.8840 0.8840 0.8840
3024.654280 0.8840 0.8840 0.8840 0.8840 0.8840
3032.221863 0.8840 0.8840 0.8840 0.8840 0.8840
3039.789446 0.8840 0.8840 0.8840 0.8840 0.8840
3047.357030 0.8840 0.8840 0.8840 0.8840 0.8840
3054.924613 0.8840 0.8840 0.8840 0.8840 0.8838
3062.492196 0.8828 0.8820 0.8820 0.8820 0.8820
3070.059779 0.8820 0.8820 0.8820 0.8820 0.8820
3077.627362 0.8820 0.8820 0.8820 0.8820 0.8820
3085.194946 0.8820 0.8820 0.8819 0.8814 0.8810
3092.762529 0.8810 0.8810 0.8810 0.8810 0.8810
3100.330112 0.8810 0.8810 0.8810 0.8810 0.8810
3107.897695 0.8810 0.8808 0.8798 0.8790 0.8790
3115.465278 0.8790 0.8790 0.8790 0.8790 0.8790
3123.032861 0.8790 0.8790 0.8790 0.8789 0.8784
3130.600445 0.8780 0.8780 0.8780 0.8780 0.8780
3138.168028 0.8780 0.8780 0.8780 0.8780 0.8780
3145.735611 0.8780 0.8780 0.8780 0.8780 0.8780
3153.303194 0.8780 0.8780 0.8780 0.8778 0.8768
3160.870777 0.8760 0.8760 0.8760 0.8760 0.8760
3168.438361 0.8760 0.8760 0.8760 0.8760 0.8760
3176.005944 0.8759 0.8754 0.8750 0.8750 0.8750
3183.573527 0.8750 0.8750 0.8750 0.8750 0.8750
3191.141110 0.8750 0.8750 0.8750 0.8750 0.8750
3198.708693 0.8750 0.8750 0.8750 0.8750 0.8750
3206.276276 0.8750 0.8750 0.8750 0.8750 0.8750
3213.843860 0.8750 0.8750 0.8750 0.8750 0.8750
3221.411443 0.8750 0.8750 0.8750 0.8750 0.8750
3228.979026 0.8750 0.8749 0.8739 0.8730 0.8730
3236.546609 0.8730 0.8730 0.8730 0.8730 0.8730
3244.114192 0.8730 0.8729 0.8719 0.8710 0.8710
3251.681776 0.8710 0.8710 0.8710 0.8710 0.8710
3259.249359 0.8710 0.8710 0.8710 0.8710 0.8710
3266.816942 0.8710 0.8710 0.8710 0.8710 0.8710
3274.384525 0.8710 0.8710 0.8705 0.8700 0.8700
3281.952108 0.8699 0.8689 0.8680 0.8680 0.8681
3289.519692 0.8691 0.8700 0.8700 0.8700 0.8700
3297.087275 0.8700 0.8700 0.8700 0.8700 0.8700
3304.654858 0.8700 0.8700 0.8700 0.8699 0.8689
3312.222441 0.8680 0.8680 0.8680 0.8675 0.8670
3319.790024 0.8660 0.8650 0.8650 0.8650 0.8660
3327.357607 0.8670 0.8670 0.8670 0.8670 0.8669
3334.925191 0.8660 0.8650 0.8650 0.8650 0.8645
3342.492774 0.8640 0.8640 0.8640 0.8640 0.8640
3350.060357 0.8640 0.8640 0.8640 0.8640 0.8640
3357.627940 0.8640 0.8640 0.8640 0.8645 0.8650
3365.195523 0.8650 0.8650 0.8650 0.8650 0.8650
3372.763107 0.8650 0.8650 0.8650 0.8650 0.8650
3380.330690 0.8650 0.8650 0.8650 0.8650 0.8650
3387.898273 0.8650 0.8650 0.8650 0.8650 0.8650
3395.465856 0.8650 0.8650 0.8650 0.8650 0.8650
3403.033439 0.8650 0.8645 0.8640 0.8640 0.8640
3410.601023 0.8640 0.8640 0.8640 0.8640 0.8640
3418.168606 0.8640 0.8640 0.8640 0.8640 0.8640
3425.736189 0.8640 0.8640 0.8640 0.8640 0.8640
3433.303772 0.8640 0.8640 0.8640 0.8640 0.8640
3440.871355 0.8640 0.8640 0.8645 0.8650 0.8650
3448.438938 0.8650 0.8659 0.8669 0.8670 0.8670
3456.006522 0.8670 0.8670 0.8670 0.8670 0.8670
3463.574105 0.8670 0.8670 0.8670 0.8670 0.8670
3471.141688 0.8670 0.8670 0.8675 0.8680 0.8680
3478.709271 0.8680 0.8680 0.8680 0.8689 0.8699
3486.276854 0.8700 0.8700 0.8700 0.8700 0.8700
3493.844438 0.8700 0.8700 0.8700 0.8700 0.8700
3501.412021 0.8700 0.8700 0.8705 0.8710 0.8710
3508.979604 0.8710 0.8710 0.8710 0.8710 0.8710
3516.547187 0.8710 0.8710 0.8710 0.8710 0.8710
3524.114770 0.8710 0.8710 0.8710 0.8710 0.8710
3531.682354 0.8710 0.8710 0.8710 0.8710 0.8710
3539.249937 0.8710 0.8710 0.8710 0.8710 0.8710
3546.817520 0.8710 0.8710 0.8719 0.8729 0.8730
3554.385103 0.8730 0.8739 0.8749 0.8750 0.8750
3561.952686 0.8754 0.8759 0.8760 0.8760 0.8760
3569.520269 0.8760 0.8760 0.8760 0.8760 0.8760
3577.087853 0.8760 0.8760 0.8760 0.8760 0.8760
3584.655436 0.8760 0.8760 0.8760 0.8760 0.8760
3592.223019 0.8760 0.8760 0.8760 0.8760 0.8760
3599.790602 0.8760 0.8760 0.8760 0.8760 0.8760
3607.358185 0.8760 0.8760 0.8760 0.8760 0.8760
3614.925769 0.8760 0.8760 0.8760 0.8760 0.8760
3622.493352 0.8760 0.8760 0.8760 0.8760 0.8760
3630.060935 0.8760 0.8760 0.8760 0.8760 0.8760
3637.628518 0.8760 0.8760 0.8760 0.8760 0.8768
3645.196101 0.8778 0.8780 0.8780 0.8784 0.8789
3652.763685 0.8790 0.8790 0.8790 0.8790 0.8790
3660.331268 0.8790 0.8790 0.8790 0.8790 0.8790
3667.898851 0.8786 0.8781 0.8780 0.8780 0.8780
3675.466434 0.8780 0.8780 0.8780 0.8780 0.8780
3683.034017 0.8780 0.8780 0.8784 0.8789 0.8798
3690.601600 0.8808 0.8810 0.8810 0.8810 0.8810
3698.169184 0.8810 0.8810 0.8814 0.8819 0.8820
3705.736767 0.8820 0.8820 0.8820 0.8820 0.8820
3713.304350 0.8820 0.8820 0.8820 0.8820 0.8831
3720.871933 0.8846 0.8850 0.8850 0.8858 0.8868
3728.439516 0.8874 0.8879 0.8891 0.8906 0.8918
3736.007100 0.8928 0.8934 0.8939 0.8947 0.8957
3743.574683 0.8960 0.8960 0.8960 0.8960 0.8960
3751.142266 0.8960 0.8960 0.8960 0.8964 0.8969
3758.709849 0.8970 0.8970 0.8970 0.8970 0.8970
3766.277432 0.8970 0.8970 0.8970 0.8970 0.8970
3773.845016 0.8981 0.8996 0.9000 0.9000 0.9000
3781.412599 0.9000 0.9007 0.9017 0.9020 0.9020
3788.980182 0.9020 0.9020 0.9020 0.9020 0.9020
3796.547765 0.9020 0.9020 0.9020 0.9020 0.9020
3804.115348 0.9020 0.9020 0.9013 0.9003 0.9000
3811.682931 0.9000 0.9000 0.9000 0.8997 0.8991
3819.250515 0.8990 0.8990 0.8990 0.8990 0.8990
3826.818098 0.8990 0.8990 0.8990 0.8990 0.8990
3834.385681 0.8990 0.8990 0.8990 0.8990 0.8990
3841.953264 0.8990 0.8990 0.8990 0.8990 0.8990
3849.520847 0.8990 0.8990 0.8990 0.8990 0.8990
3857.088431 0.8990 0.8990 0.8990 0.8990 0.8990
3864.656014 0.8993 0.8998 0.9000 0.9000 0.9000
3872.223597 0.9000 0.9000 0.9000 0.8997 0.8992
3879.791180 0.8990 0.8990 0.8990 0.8990 0.8990
3887.358763 0.8990 0.8984 0.8974 0.8970 0.8970
3894.926347 0.8970 0.8970 0.8970 0.8970 0.8970
3902.493930 0.8970 0.8970 0.8970 0.8970 0.8970
3910.061513 0.8970 0.8970 0.8970 0.8970 0.8970
3917.629096 0.8970 0.8970 0.8970 0.8970 0.8970
3925.196679 0.8979 0.8994 0.9000 0.9000 0.9000
3932.764262 0.9000 0.9000 0.9000 0.9000 0.9000
3940.331846 0.9000 0.9000 0.8997 0.8992 0.8984
3947.899429 0.8974 0.8976 0.8986 0.8990 0.8990
3955.467012 0.8990 0.8990 0.8990 0.8990 0.8990
3963.034595 0.8990 0.8990 0.8990 0.8990 0.8990
3970.602178 0.8990 0.8990 0.8990 0.8990 0.8990
3978.169762 0.8990 0.8990 0.8990 0.8999 0.9014
3985.737345 0.9020 0.9020 0.9014 0.9004 0.9000
3993.304928 0.9000 0.9000 0.9000 0.8997 0.8992
##END=
