##TITLE=ETHENE, CHLORO-
##JCAMP-DX=4.24
##DATA TYPE=INFRARED SPECTRUM
##CLASS=COBLENTZ III
##ORIGIN=DOW CHEMICAL COMPANY
##OWNER=COBLENTZ SOCIETY
Collection (C) 2018 copyright by the U.S. Secretary of Commerce
on behalf of the United States of America. All rights reserved.
##DATE=1974/01/06
##NAMES=1-chloroethylene
VINYL CHLORIDE
##CAS REGISTRY NO=75-01-4
##MOLFORM=C2 H3 Cl
##SOURCE REFERENCE=COBLENTZ NO. 10079
##$NIST SOURCE=COBLENTZ
##$NIST IMAGE=cob10079
##SPECTROMETER/DATA SYSTEM=BECKMAN IR-9 (GRATING)
##INSTRUMENT PARAMETERS=ORDER CHANGES AT 670, 1200, 2000 CM^-^1
##STATE=GAS (7 mmHg DILUTED TO A TOTAL PRESSURE OF 700 mmHg WITH N2)
##PATH LENGTH=10 CM
##SAMPLING PROCEDURE=TRANSMISSION
##RESOLUTION=4
##DATA PROCESSING=DIGITIZED BY NIST FROM HARD COPY (FROM TWO SEGMENTS)
##XUNITS=1/CM
##YUNITS=TRANSMITTANCE
##XFACTOR=1.000000
##YFACTOR=1
##DELTAX=0.905492
##FIRSTX=399.095
##LASTX=3797.4
##FIRSTY=0.009
##MAXX=3797.4
##MINX=399.095
##MAXY=0.98
##MINY=0
##NPOINTS=3754
##XYDATA=(X++(Y..Y))
399.095000 0.0090 0.0080 0.0070 0.0050 0.0040
403.622458 0.0020 0.0020 0.0010 0.0000 0.0000
408.149915 0.0000 0.0000 0.0000 0.0000 0.0000
412.677373 0.0000 0.0000 0.0000 0.0000 0.0000
417.204830 0.0000 0.0000 0.0000 0.0000 0.0000
421.732288 0.0000 0.0000 0.0000 0.0000 0.0000
426.259746 0.0000 0.0000 0.0000 0.0000 0.0000
430.787203 0.0000 0.0000 0.0000 0.0000 0.0000
435.314661 0.0000 0.0000 0.0000 0.0000 0.0000
439.842119 0.0000 0.0000 0.0000 0.0000 0.0000
444.369576 0.0000 0.0000 0.0000 0.0000 0.0000
448.897034 0.0000 0.0000 0.0000 0.0000 0.0000
453.424491 0.0000 0.0000 0.0000 0.0000 0.0000
457.951949 0.0000 0.0000 0.0000 0.0000 0.0000
462.479407 0.0000 0.0000 0.0000 0.0000 0.0000
467.006864 0.0000 0.0000 0.0000 0.0000 0.0000
471.534322 0.0000 0.0000 0.0000 0.0000 0.0000
476.061780 0.0000 0.0000 0.0000 0.0000 0.0000
480.589237 0.0000 0.0000 0.0000 0.0000 0.0000
485.116695 0.0000 0.0000 0.0000 0.0000 0.0000
489.644152 0.0020 0.0040 0.0050 0.0070 0.0070
494.171610 0.0080 0.0090 0.0090 0.0090 0.0110
498.699068 0.0120 0.0120 0.0140 0.0150 0.0150
503.226525 0.0150 0.0150 0.0150 0.0150 0.0150
507.753983 0.0150 0.0150 0.0150 0.0150 0.0150
512.281441 0.0150 0.0140 0.0140 0.0140 0.0140
516.808898 0.0120 0.0120 0.0120 0.0120 0.0120
521.336356 0.0120 0.0140 0.0140 0.0150 0.0150
525.863813 0.0160 0.0190 0.0220 0.0250 0.0280
530.391271 0.0290 0.0310 0.0310 0.0320 0.0320
534.918729 0.0330 0.0350 0.0350 0.0350 0.0380
539.446186 0.0410 0.0420 0.0450 0.0480 0.0480
543.973644 0.0520 0.0530 0.0530 0.0550 0.0560
548.501102 0.0590 0.0600 0.0630 0.0670 0.0700
553.028559 0.0720 0.0730 0.0750 0.0770 0.0770
557.556017 0.0800 0.0830 0.0870 0.0900 0.0940
562.083474 0.0970 0.0970 0.0990 0.0990 0.1030
566.610932 0.1040 0.1060 0.1090 0.1110 0.1180
571.138390 0.1240 0.1270 0.1300 0.1300 0.1330
575.665847 0.1350 0.1380 0.1470 0.1510 0.1520
580.193305 0.1570 0.1600 0.1650 0.1670 0.1720
584.720763 0.1790 0.1890 0.2020 0.2080 0.2090
589.248220 0.2160 0.2220 0.2260 0.2290 0.2300
593.775678 0.2350 0.2390 0.2430 0.2500 0.2560
598.303135 0.2600 0.2620 0.2670 0.2790 0.2810
602.830593 0.2860 0.2880 0.3000 0.3070 0.3070
607.358051 0.3140 0.3220 0.3270 0.3320 0.3380
611.885508 0.3450 0.3450 0.3480 0.3490 0.3490
616.412966 0.3490 0.3440 0.3210 0.3000 0.3479
620.940424 0.3720 0.3860 0.3890 0.3990 0.4020
625.467881 0.4070 0.4150 0.4150 0.4190 0.4260
629.995339 0.4290 0.4300 0.4489 0.4490 0.4500
634.522796 0.4560 0.4630 0.4670 0.4680 0.4780
639.050254 0.4880 0.4900 0.4910 0.5020 0.5040
643.577712 0.5050 0.5120 0.5250 0.5290 0.5320
648.105169 0.5380 0.5490 0.5500 0.5560 0.5660
652.632627 0.5750 0.5770 0.5870 0.5900 0.5900
657.160085 0.5960 0.6060 0.6100 0.6160 0.6210
661.687542 0.6310 0.6330 0.6410 0.6450 0.6480
666.215000 0.6520 0.6600 0.6620 0.6640 0.6680
670.742457 0.6690 0.6770 0.6940 0.6950 0.6960
675.269915 0.7010 0.7080 0.7120 0.7180 0.7230
679.797373 0.7260 0.7290 0.7320 0.7420 0.7430
684.324830 0.7450 0.7450 0.7460 0.7470 0.7470
688.852288 0.7460 0.7450 0.7420 0.7330 0.7280
693.379746 0.7250 0.7130 0.6990 0.6880 0.6770
697.907203 0.6550 0.6520 0.6310 0.6100 0.5900
702.434661 0.5600 0.5500 0.5251 0.5120 0.4921
706.962118 0.4880 0.4770 0.4670 0.4610 0.4540
711.489576 0.4470 0.4470 0.4570 0.4700 0.4810
716.017034 0.4920 0.4950 0.5020 0.5160 0.5719
720.544491 0.6010 0.6010 0.4783 0.4571 0.4570
725.071949 0.4630 0.4630 0.4540 0.4500 0.4360
729.599407 0.4320 0.4150 0.4120 0.4120 0.4170
734.126864 0.4330 0.4580 0.4810 0.5080 0.5410
738.654322 0.5819 0.6179 0.6818 0.7019 0.7857
743.181779 0.8000 0.8240 0.8410 0.8540 0.8590
747.709237 0.8750 0.8780 0.8830 0.8890 0.8960
752.236695 0.9000 0.9020 0.9030 0.9060 0.9070
756.764152 0.9120 0.9130 0.9150 0.9160 0.9150
761.291610 0.9150 0.9230 0.9240 0.9240 0.9260
765.819068 0.9270 0.9290 0.9330 0.9330 0.9330
770.346525 0.9330 0.9330 0.9360 0.9360 0.9360
774.873983 0.9370 0.9360 0.9370 0.9390 0.9400
779.401440 0.9410 0.9430 0.9440 0.9460 0.9460
783.928898 0.9470 0.9470 0.9470 0.9470 0.9470
788.456356 0.9490 0.9500 0.9510 0.9530 0.9540
792.983813 0.9560 0.9530 0.9560 0.9560 0.9560
797.511271 0.9560 0.9560 0.9560 0.9540 0.9560
802.038729 0.9570 0.9570 0.9560 0.9570 0.9570
806.566186 0.9580 0.9580 0.9580 0.9580 0.9580
811.093644 0.9600 0.9600 0.9600 0.9600 0.9600
815.621101 0.9600 0.9600 0.9600 0.9610 0.9610
820.148559 0.9610 0.9610 0.9600 0.9600 0.9600
824.676017 0.9600 0.9610 0.9610 0.9600 0.9600
829.203474 0.9600 0.9600 0.9580 0.9570 0.9560
833.730932 0.9570 0.9560 0.9540 0.9510 0.9510
838.258390 0.9510 0.9510 0.9500 0.9490 0.9470
842.785847 0.9440 0.9390 0.9360 0.9410 0.9370
847.313305 0.9340 0.9300 0.9240 0.9340 0.9101
851.840762 0.9070 0.9070 0.9220 0.9220 0.8880
856.368220 0.8880 0.9120 0.9030 0.8880 0.8691
860.895678 0.9029 0.8650 0.8480 0.8860 0.8860
865.423135 0.8540 0.8250 0.8220 0.8240 0.8370
869.950593 0.8589 0.8080 0.7960 0.8080 0.8280
874.478051 0.7880 0.7860 0.7870 0.8030 0.8279
879.005508 0.7870 0.7760 0.7870 0.7980 0.8220
883.532966 0.8040 0.7731 0.7730 0.8029 0.8040
888.060423 0.7960 0.7840 0.7840 0.7840 0.7800
892.587881 0.7760 0.7391 0.6771 0.5264 0.3725
897.115339 0.3722 0.4831 0.5620 0.6260 0.6939
901.642796 0.7230 0.7490 0.7490 0.7011 0.6980
906.170254 0.6990 0.7120 0.7350 0.6960 0.6640
910.697711 0.6610 0.6450 0.7058 0.6641 0.6600
915.225169 0.6550 0.6550 0.6770 0.6780 0.6780
919.752627 0.6211 0.6809 0.6940 0.6093 0.6907
924.280084 0.7180 0.7178 0.6161 0.6860 0.7160
928.807542 0.6910 0.6600 0.6600 0.7009 0.7090
933.335000 0.7109 0.6780 0.6780 0.7160 0.7160
937.862457 0.6850 0.6620 0.6370 0.6111 0.4834
942.389915 0.3490 0.3494 0.6100 0.6500 0.6890
946.917372 0.7420 0.7430 0.7540 0.7450 0.7370
951.444830 0.7290 0.7260 0.7260 0.7490 0.7700
955.972288 0.7910 0.7261 0.7090 0.7928 0.7930
960.499745 0.7122 0.7910 0.7909 0.7220 0.7900
965.027203 0.7900 0.7251 0.7879 0.7840 0.7491
969.554661 0.7870 0.7900 0.7970 0.7690 0.8040
974.082118 0.8010 0.7960 0.7790 0.8099 0.8030
978.609576 0.8080 0.8130 0.8220 0.8300 0.8310
983.137033 0.8580 0.8520 0.8440 0.8610 0.8660
987.664491 0.8710 0.8720 0.8820 0.8830 0.8850
992.191949 0.8900 0.8930 0.8930 0.8950 0.9000
996.719406 0.9030 0.9060 0.9120 0.9120 0.9150
1001.246864 0.9170 0.9200 0.9230 0.9240 0.9240
1005.774322 0.9240 0.9230 0.9160 0.9120 0.9090
1010.301779 0.8980 0.8860 0.8710 0.8620 0.8371
1014.829237 0.8319 0.8050 0.7860 0.7690 0.7470
1019.356694 0.7420 0.7160 0.7130 0.7050 0.7030
1023.884152 0.7060 0.7120 0.7280 0.7450 0.7790
1028.411610 0.8150 0.8540 0.8919 0.8251 0.7961
1032.939067 0.7910 0.7900 0.7880 0.7880 0.7880
1037.466525 0.7870 0.7840 0.7800 0.7760 0.7690
1041.993983 0.7670 0.7670 0.7700 0.7770 0.7830
1046.521440 0.7940 0.7980 0.8150 0.8240 0.8390
1051.048898 0.8610 0.8760 0.8900 0.8930 0.9030
1055.576355 0.9130 0.9200 0.9340 0.9390 0.9430
1060.103813 0.9440 0.9470 0.9510 0.9560 0.9570
1064.631271 0.9580 0.9600 0.9610 0.9610 0.9630
1069.158728 0.9630 0.9630 0.9630 0.9630 0.9630
1073.686186 0.9630 0.9610 0.9610 0.9610 0.9610
1078.213644 0.9610 0.9610 0.9610 0.9610 0.9600
1082.741101 0.9610 0.9610 0.9610 0.9610 0.9610
1087.268559 0.9610 0.9600 0.9600 0.9600 0.9600
1091.796016 0.9600 0.9600 0.9600 0.9600 0.9600
1096.323474 0.9600 0.9600 0.9600 0.9600 0.9600
1100.850932 0.9600 0.9610 0.9600 0.9600 0.9580
1105.378389 0.9580 0.9580 0.9580 0.9580 0.9580
1109.905847 0.9600 0.9600 0.9600 0.9580 0.9580
1114.433305 0.9580 0.9580 0.9580 0.9570 0.9570
1118.960762 0.9570 0.9570 0.9570 0.9560 0.9560
1123.488220 0.9540 0.9540 0.9540 0.9540 0.9530
1128.015677 0.9530 0.9530 0.9540 0.9540 0.9560
1132.543135 0.9570 0.9560 0.9570 0.9570 0.9570
1137.070593 0.9570 0.9570 0.9560 0.9560 0.9560
1141.598050 0.9560 0.9560 0.9560 0.9560 0.9570
1146.125508 0.9570 0.9560 0.9540 0.9540 0.9570
1150.652966 0.9580 0.9580 0.9570 0.9570 0.9570
1155.180423 0.9570 0.9570 0.9560 0.9560 0.9560
1159.707881 0.9570 0.9570 0.9570 0.9580 0.9580
1164.235338 0.9580 0.9580 0.9580 0.9580 0.9580
1168.762796 0.9600 0.9600 0.9600 0.9600 0.9600
1173.290254 0.9600 0.9600 0.9610 0.9610 0.9600
1177.817711 0.9600 0.9600 0.9600 0.9630 0.9630
1182.345169 0.9610 0.9610 0.9610 0.9600 0.9600
1186.872627 0.9600 0.9600 0.9600 0.9610 0.9610
1191.400084 0.9610 0.9610 0.9610 0.9610 0.9610
1195.927542 0.9610 0.9610 0.9610 0.9610 0.9610
1200.454999 0.9610 0.9570 0.9580 0.9610 0.9640
1204.982457 0.9660 0.9660 0.9660 0.9640 0.9640
1209.509915 0.9640 0.9640 0.9660 0.9660 0.9640
1214.037372 0.9630 0.9630 0.9630 0.9610 0.9610
1218.564830 0.9610 0.9600 0.9600 0.9580 0.9580
1223.092288 0.9570 0.9570 0.9570 0.9570 0.9580
1227.619745 0.9580 0.9580 0.9580 0.9580 0.9580
1232.147203 0.9580 0.9570 0.9570 0.9570 0.9560
1236.674660 0.9540 0.9540 0.9510 0.9510 0.9510
1241.202118 0.9500 0.9490 0.9490 0.9470 0.9470
1245.729576 0.9470 0.9470 0.9470 0.9470 0.9490
1250.257033 0.9490 0.9470 0.9470 0.9460 0.9460
1254.784491 0.9410 0.9370 0.9340 0.9320 0.9260
1259.311949 0.9130 0.9100 0.8950 0.8820 0.8780
1263.839406 0.8710 0.8540 0.8390 0.8380 0.8350
1268.366864 0.8310 0.8200 0.8140 0.8140 0.8150
1272.894321 0.8180 0.8250 0.8350 0.8410 0.8510
1277.421779 0.8560 0.8609 0.8180 0.8181 0.8620
1281.949237 0.9150 0.9150 0.8860 0.8780 0.8730
1286.476694 0.8380 0.8249 0.8030 0.8010 0.8000
1291.004152 0.8000 0.8010 0.8100 0.8170 0.8340
1295.531610 0.8370 0.8510 0.8590 0.8680 0.8720
1300.059067 0.8850 0.8980 0.9060 0.9120 0.9160
1304.586525 0.9270 0.9290 0.9330 0.9370 0.9430
1309.113982 0.9440 0.9460 0.9470 0.9500 0.9510
1313.641440 0.9530 0.9540 0.9540 0.9560 0.9560
1318.168898 0.9560 0.9560 0.9540 0.9540 0.9540
1322.696355 0.9540 0.9540 0.9540 0.9540 0.9540
1327.223813 0.9540 0.9540 0.9530 0.9530 0.9530
1331.751271 0.9530 0.9510 0.9510 0.9500 0.9490
1336.278728 0.9470 0.9460 0.9470 0.9440 0.9410
1340.806186 0.9370 0.9400 0.9390 0.9300 0.9270
1345.333643 0.9270 0.9270 0.9400 0.9101 0.9070
1349.861101 0.9259 0.8920 0.8890 0.9060 0.9060
1354.388559 0.8780 0.8780 0.8920 0.8900 0.8760
1358.916016 0.8720 0.8720 0.8720 0.8720 0.8730
1363.443474 0.8760 0.8820 0.8900 0.8930 0.9120
1367.970932 0.9220 0.9240 0.9239 0.8860 0.9050
1372.498389 0.9050 0.9000 0.8960 0.8920 0.8850
1377.025847 0.8820 0.8720 0.8710 0.8690 0.8680
1381.553304 0.8650 0.8550 0.8550 0.8660 0.8720
1386.080762 0.8730 0.8790 0.8860 0.8900 0.8820
1390.608220 0.8930 0.9100 0.9160 0.9090 0.9150
1395.135677 0.9170 0.9230 0.9120 0.9230 0.9260
1399.663135 0.9270 0.9290 0.9370 0.9430 0.9430
1404.190592 0.9340 0.9340 0.9340 0.9340 0.9320
1408.718050 0.9390 0.9410 0.9410 0.9410 0.9430
1413.245508 0.9430 0.9430 0.9430 0.9430 0.9430
1417.772965 0.9390 0.9360 0.9340 0.9320 0.9320
1422.300423 0.9430 0.9440 0.9460 0.9430 0.9430
1426.827881 0.9460 0.9470 0.9490 0.9490 0.9490
1431.355338 0.9460 0.9490 0.9490 0.9500 0.9490
1435.882796 0.9470 0.9470 0.9430 0.9340 0.9430
1440.410253 0.9490 0.9510 0.9540 0.9490 0.9540
1444.937711 0.9540 0.9560 0.9560 0.9560 0.9570
1449.465169 0.9510 0.9570 0.9600 0.9600 0.9580
1453.992626 0.9580 0.9600 0.9600 0.9540 0.9500
1458.520084 0.9460 0.9370 0.9370 0.9540 0.9600
1463.047542 0.9600 0.9600 0.9610 0.9570 0.9510
1467.574999 0.9510 0.9610 0.9630 0.9640 0.9640
1472.102457 0.9610 0.9510 0.9470 0.9490 0.9560
1476.629914 0.9570 0.9570 0.9580 0.9610 0.9630
1481.157372 0.9660 0.9660 0.9640 0.9640 0.9640
1485.684830 0.9640 0.9630 0.9610 0.9560 0.9490
1490.212287 0.9560 0.9490 0.9460 0.9540 0.9540
1494.739745 0.9500 0.9490 0.9460 0.9390 0.9330
1499.267203 0.9320 0.9320 0.9340 0.9340 0.9360
1503.794660 0.9370 0.9340 0.9340 0.9320 0.9100
1508.322118 0.9070 0.9060 0.9120 0.9240 0.9400
1512.849575 0.9410 0.9430 0.9460 0.9500 0.9500
1517.377033 0.9400 0.9320 0.9300 0.9270 0.9240
1521.904491 0.9120 0.9030 0.9090 0.9130 0.9200
1526.431948 0.9220 0.9230 0.9260 0.9340 0.9360
1530.959406 0.9390 0.9500 0.9500 0.9460 0.9430
1535.486864 0.9440 0.9510 0.9560 0.9560 0.9540
1540.014321 0.9500 0.9370 0.9320 0.9340 0.9370
1544.541779 0.9460 0.9490 0.9490 0.9510 0.9560
1549.069236 0.9570 0.9580 0.9540 0.9510 0.9510
1553.596694 0.9580 0.9570 0.9510 0.9500 0.9570
1558.124152 0.9570 0.9489 0.9300 0.9260 0.9260
1562.651609 0.9570 0.9580 0.9580 0.9500 0.9500
1567.179067 0.9500 0.9490 0.9470 0.9400 0.9270
1571.706525 0.9270 0.9360 0.9360 0.9330 0.9270
1576.233982 0.9130 0.9020 0.9020 0.9120 0.9120
1580.761440 0.9000 0.8860 0.8750 0.8690 0.8420
1585.288897 0.8199 0.7979 0.7759 0.7350 0.7120
1589.816355 0.7010 0.6690 0.6160 0.5771 0.5221
1594.343813 0.4999 0.4780 0.4630 0.4460 0.4340
1598.871270 0.4220 0.4120 0.3980 0.3930 0.3930
1603.398728 0.4071 0.4260 0.4460 0.4670 0.4880
1607.926186 0.4910 0.4900 0.4880 0.4091 0.4090
1612.453643 0.6520 0.6538 0.5838 0.5138 0.4489
1616.981101 0.4190 0.3860 0.3680 0.3540 0.3390
1621.508558 0.3390 0.3450 0.3510 0.3641 0.4020
1626.036016 0.4260 0.4640 0.5010 0.5590 0.6309
1630.563474 0.6771 0.7082 0.7731 0.7970 0.8150
1635.090931 0.8280 0.8320 0.8520 0.8820 0.8860
1639.618389 0.8980 0.9070 0.9150 0.9220 0.9230
1644.145847 0.9240 0.9260 0.9240 0.9120 0.9120
1648.673304 0.9170 0.9200 0.9260 0.9330 0.9330
1653.200762 0.8990 0.8990 0.9270 0.9360 0.9440
1657.728219 0.9470 0.9490 0.9500 0.9540 0.9540
1662.255677 0.9540 0.9470 0.9470 0.9510 0.9540
1666.783135 0.9560 0.9560 0.9560 0.9500 0.9460
1671.310592 0.9500 0.9500 0.9500 0.9560 0.9560
1675.838050 0.9430 0.9430 0.9540 0.9560 0.9600
1680.365508 0.9600 0.9570 0.9540 0.9530 0.9470
1684.892965 0.9300 0.9301 0.9540 0.9540 0.9560
1689.420423 0.9560 0.9560 0.9570 0.9580 0.9580
1693.947880 0.9580 0.9570 0.9510 0.9470 0.9460
1698.475338 0.9360 0.9540 0.9340 0.9130 0.9130
1703.002796 0.9500 0.9490 0.9470 0.9470 0.9460
1707.530253 0.9460 0.9470 0.9490 0.9490 0.9470
1712.057711 0.9470 0.9460 0.9460 0.9430 0.9370
1716.585169 0.9360 0.9340 0.9300 0.9230 0.9230
1721.112626 0.9400 0.9470 0.9470 0.9470 0.9470
1725.640084 0.9470 0.9490 0.9490 0.9490 0.9500
1730.167541 0.9500 0.9490 0.9470 0.9470 0.9440
1734.694999 0.9260 0.9320 0.9460 0.9470 0.9510
1739.222457 0.9510 0.9460 0.9410 0.9460 0.9460
1743.749914 0.9460 0.9470 0.9490 0.9490 0.9500
1748.277372 0.9500 0.9500 0.9500 0.9500 0.9470
1752.804830 0.9490 0.9510 0.9540 0.9560 0.9570
1757.332287 0.9570 0.9530 0.9530 0.9600 0.9600
1761.859745 0.9500 0.9500 0.9560 0.9570 0.9580
1766.387202 0.9600 0.9580 0.9570 0.9560 0.9510
1770.914660 0.9570 0.9530 0.9470 0.9470 0.9460
1775.442118 0.9490 0.9540 0.9540 0.9510 0.9510
1779.969575 0.9510 0.9500 0.9470 0.9490 0.9470
1784.497033 0.9460 0.9440 0.9440 0.9430 0.9440
1789.024491 0.9440 0.9470 0.9470 0.9460 0.9440
1793.551948 0.9400 0.9400 0.9460 0.9470 0.9490
1798.079406 0.9500 0.9540 0.9510 0.9490 0.9460
1802.606863 0.9440 0.9410 0.9400 0.9400 0.9400
1807.134321 0.9400 0.9400 0.9410 0.9410 0.9430
1811.661779 0.9460 0.9460 0.9470 0.9490 0.9500
1816.189236 0.9500 0.9500 0.9500 0.9510 0.9540
1820.716694 0.9540 0.9560 0.9570 0.9560 0.9530
1825.244152 0.9510 0.9510 0.9510 0.9540 0.9560
1829.771609 0.9560 0.9560 0.9530 0.9540 0.9570
1834.299067 0.9600 0.9580 0.9610 0.9610 0.9630
1838.826524 0.9640 0.9640 0.9610 0.9600 0.9570
1843.353982 0.9570 0.9560 0.9500 0.9460 0.9460
1847.881440 0.9540 0.9540 0.9540 0.9560 0.9580
1852.408897 0.9600 0.9600 0.9600 0.9600 0.9600
1856.936355 0.9610 0.9610 0.9610 0.9580 0.9580
1861.463812 0.9580 0.9610 0.9610 0.9610 0.9610
1865.991270 0.9610 0.9580 0.9580 0.9570 0.9570
1870.518728 0.9580 0.9580 0.9580 0.9580 0.9580
1875.046185 0.9610 0.9610 0.9610 0.9630 0.9640
1879.573643 0.9660 0.9660 0.9640 0.9610 0.9610
1884.101101 0.9610 0.9610 0.9610 0.9610 0.9610
1888.628558 0.9610 0.9630 0.9610 0.9580 0.9610
1893.156016 0.9630 0.9640 0.9640 0.9660 0.9660
1897.683473 0.9660 0.9670 0.9670 0.9680 0.9700
1902.210931 0.9710 0.9700 0.9710 0.9710 0.9710
1906.738389 0.9730 0.9730 0.9730 0.9730 0.9730
1911.265846 0.9710 0.9710 0.9710 0.9710 0.9710
1915.793304 0.9710 0.9710 0.9710 0.9700 0.9700
1920.320762 0.9700 0.9730 0.9730 0.9710 0.9710
1924.848219 0.9710 0.9710 0.9710 0.9730 0.9730
1929.375677 0.9710 0.9710 0.9730 0.9730 0.9730
1933.903134 0.9730 0.9730 0.9730 0.9730 0.9730
1938.430592 0.9730 0.9730 0.9730 0.9730 0.9730
1942.958050 0.9710 0.9700 0.9700 0.9710 0.9710
1947.485507 0.9730 0.9730 0.9740 0.9740 0.9730
1952.012965 0.9710 0.9710 0.9700 0.9710 0.9710
1956.540423 0.9710 0.9710 0.9710 0.9730 0.9730
1961.067880 0.9730 0.9730 0.9730 0.9730 0.9730
1965.595338 0.9710 0.9710 0.9710 0.9710 0.9710
1970.122795 0.9710 0.9710 0.9710 0.9710 0.9700
1974.650253 0.9700 0.9700 0.9700 0.9700 0.9710
1979.177711 0.9710 0.9710 0.9710 0.9710 0.9710
1983.705168 0.9710 0.9710 0.9710 0.9700 0.9680
1988.232626 0.9680 0.9680 0.9680 0.9680 0.9670
1992.760084 0.9670 0.9670 0.9670 0.9660 0.9580
1997.287541 0.9430 0.9160 0.9160 0.9341 0.9455
2001.814999 0.9570 0.9605 0.9640 0.9650 0.9660
2006.342456 0.9665 0.9670 0.9685 0.9700 0.9715
2010.869914 0.9730 0.9730 0.9730 0.9730 0.9730
2015.397372 0.9730 0.9730 0.9730 0.9730 0.9730
2019.924829 0.9730 0.9735 0.9740 0.9740 0.9740
2024.452287 0.9745 0.9750 0.9745 0.9740 0.9735
2028.979745 0.9730 0.9730 0.9730 0.9730 0.9730
2033.507202 0.9735 0.9740 0.9740 0.9740 0.9740
2038.034660 0.9740 0.9745 0.9750 0.9750 0.9750
2042.562117 0.9745 0.9740 0.9740 0.9740 0.9740
2047.089575 0.9740 0.9745 0.9750 0.9750 0.9750
2051.617033 0.9759 0.9769 0.9775 0.9780 0.9766
2056.144490 0.9751 0.9750 0.9750 0.9750 0.9750
2060.671948 0.9745 0.9740 0.9740 0.9740 0.9740
2065.199406 0.9740 0.9740 0.9740 0.9667 0.9587
2069.726863 0.9580 0.9580 0.9640 0.9705 0.9719
2074.254321 0.9729 0.9730 0.9730 0.9735 0.9740
2078.781778 0.9740 0.9740 0.9740 0.9740 0.9745
2083.309236 0.9750 0.9745 0.9740 0.9736 0.9731
2087.836694 0.9730 0.9730 0.9735 0.9740 0.9740
2092.364151 0.9740 0.9740 0.9740 0.9740 0.9740
2096.891609 0.9740 0.9740 0.9753 0.9768 0.9774
2101.419067 0.9779 0.9758 0.9733 0.9730 0.9730
2105.946524 0.9734 0.9739 0.9744 0.9749 0.9750
2110.473982 0.9750 0.9759 0.9769 0.9770 0.9770
2115.001439 0.9770 0.9770 0.9770 0.9770 0.9770
2119.528897 0.9770 0.9770 0.9770 0.9761 0.9751
2124.056355 0.9746 0.9741 0.9740 0.9740 0.9753
2128.583812 0.9768 0.9770 0.9770 0.9753 0.9733
2133.111270 0.9730 0.9730 0.9730 0.9730 0.9730
2137.638728 0.9730 0.9730 0.9730 0.9730 0.9730
2142.166185 0.9738 0.9748 0.9750 0.9750 0.9750
2146.693643 0.9750 0.9746 0.9741 0.9740 0.9740
2151.221100 0.9736 0.9731 0.9734 0.9739 0.9736
2155.748558 0.9731 0.9730 0.9730 0.9730 0.9730
2160.276016 0.9738 0.9748 0.9750 0.9750 0.9750
2164.803473 0.9750 0.9750 0.9750 0.9750 0.9750
2169.330931 0.9750 0.9750 0.9750 0.9750 0.9746
2173.858389 0.9741 0.9740 0.9740 0.9744 0.9749
2178.385846 0.9750 0.9750 0.9746 0.9741 0.9740
2182.913304 0.9740 0.9740 0.9740 0.9740 0.9740
2187.440761 0.9740 0.9740 0.9740 0.9740 0.9740
2191.968219 0.9740 0.9740 0.9740 0.9740 0.9740
2196.495677 0.9740 0.9740 0.9740 0.9740 0.9740
2201.023134 0.9740 0.9740 0.9740 0.9740 0.9740
2205.550592 0.9740 0.9740 0.9740 0.9740 0.9740
2210.078050 0.9740 0.9740 0.9740 0.9740 0.9740
2214.605507 0.9740 0.9740 0.9740 0.9740 0.9740
2219.132965 0.9740 0.9740 0.9740 0.9740 0.9740
2223.660422 0.9740 0.9740 0.9740 0.9740 0.9740
2228.187880 0.9740 0.9740 0.9740 0.9740 0.9740
2232.715338 0.9740 0.9740 0.9740 0.9740 0.9744
2237.242795 0.9749 0.9750 0.9750 0.9746 0.9741
2241.770253 0.9744 0.9749 0.9750 0.9750 0.9750
2246.297711 0.9750 0.9746 0.9741 0.9751 0.9766
2250.825168 0.9755 0.9736 0.9730 0.9730 0.9730
2255.352626 0.9730 0.9734 0.9739 0.9744 0.9749
2259.880083 0.9750 0.9750 0.9743 0.9733 0.9730
2264.407541 0.9730 0.9734 0.9739 0.9744 0.9749
2268.934999 0.9757 0.9767 0.9770 0.9770 0.9756
2273.462456 0.9736 0.9730 0.9730 0.9730 0.9730
2277.989914 0.9730 0.9730 0.9730 0.9730 0.9730
2282.517372 0.9730 0.9730 0.9730 0.9730 0.9730
2287.044829 0.9733 0.9738 0.9740 0.9740 0.9751
2291.572287 0.9766 0.9770 0.9770 0.9763 0.9753
2296.099744 0.9750 0.9750 0.9757 0.9767 0.9770
2300.627202 0.9770 0.9756 0.9736 0.9723 0.9713
2305.154660 0.9710 0.9710 0.9717 0.9727 0.9733
2309.682117 0.9738 0.9737 0.9732 0.9730 0.9730
2314.209575 0.9730 0.9730 0.9733 0.9738 0.9740
2318.737033 0.9740 0.9740 0.9740 0.9737 0.9732
2323.264490 0.9730 0.9730 0.9733 0.9738 0.9740
2327.791948 0.9740 0.9740 0.9740 0.9743 0.9748
2332.319405 0.9750 0.9750 0.9756 0.9766 0.9770
2336.846863 0.9770 0.9764 0.9754 0.9756 0.9766
2341.374321 0.9770 0.9770 0.9770 0.9770 0.9770
2345.901778 0.9770 0.9773 0.9778 0.9780 0.9780
2350.429236 0.9780 0.9780 0.9780 0.9780 0.9780
2354.956693 0.9780 0.9780 0.9780 0.9780 0.9780
2359.484151 0.9780 0.9780 0.9780 0.9780 0.9777
2364.011609 0.9772 0.9773 0.9778 0.9780 0.9780
2368.539066 0.9780 0.9780 0.9780 0.9780 0.9786
2373.066524 0.9796 0.9800 0.9800 0.9800 0.9800
2377.593982 0.9800 0.9800 0.9800 0.9800 0.9794
2382.121439 0.9784 0.9780 0.9780 0.9780 0.9780
2386.648897 0.9777 0.9772 0.9770 0.9770 0.9764
2391.176354 0.9754 0.9747 0.9742 0.9737 0.9732
2395.703812 0.9724 0.9714 0.9710 0.9710 0.9716
2400.231270 0.9726 0.9733 0.9738 0.9743 0.9748
2404.758727 0.9750 0.9750 0.9750 0.9750 0.9750
2409.286185 0.9750 0.9750 0.9750 0.9747 0.9742
2413.813643 0.9737 0.9732 0.9724 0.9714 0.9710
2418.341100 0.9710 0.9710 0.9710 0.9710 0.9710
2422.868558 0.9710 0.9710 0.9710 0.9710 0.9710
2427.396015 0.9710 0.9710 0.9710 0.9710 0.9710
2431.923473 0.9710 0.9710 0.9710 0.9710 0.9710
2436.450931 0.9710 0.9710 0.9710 0.9715 0.9725
2440.978388 0.9730 0.9730 0.9733 0.9738 0.9740
2445.505846 0.9740 0.9740 0.9740 0.9743 0.9748
2450.033304 0.9755 0.9765 0.9770 0.9770 0.9765
2454.560761 0.9755 0.9750 0.9750 0.9750 0.9750
2459.088219 0.9750 0.9750 0.9747 0.9742 0.9737
2463.615676 0.9732 0.9730 0.9730 0.9730 0.9730
2468.143134 0.9725 0.9715 0.9710 0.9710 0.9715
2472.670592 0.9725 0.9730 0.9730 0.9730 0.9730
2477.198049 0.9730 0.9730 0.9732 0.9737 0.9733
2481.725507 0.9718 0.9710 0.9710 0.9715 0.9725
2486.252965 0.9730 0.9730 0.9732 0.9737 0.9742
2490.780422 0.9747 0.9750 0.9750 0.9745 0.9735
2495.307880 0.9730 0.9730 0.9730 0.9730 0.9730
2499.835337 0.9730 0.9732 0.9737 0.9738 0.9733
2504.362795 0.9730 0.9730 0.9730 0.9730 0.9730
2508.890253 0.9730 0.9730 0.9730 0.9725 0.9715
2513.417710 0.9715 0.9725 0.9730 0.9730 0.9725
2517.945168 0.9715 0.9710 0.9710 0.9714 0.9724
2522.472626 0.9732 0.9737 0.9740 0.9740 0.9738
2527.000083 0.9733 0.9732 0.9737 0.9738 0.9733
2531.527541 0.9726 0.9716 0.9710 0.9710 0.9710
2536.054998 0.9710 0.9710 0.9710 0.9714 0.9724
2540.582456 0.9730 0.9730 0.9724 0.9708 0.9700
2545.109914 0.9700 0.9702 0.9707 0.9710 0.9710
2549.637371 0.9714 0.9724 0.9730 0.9730 0.9730
2554.164829 0.9730 0.9730 0.9730 0.9730 0.9730
2558.692287 0.9730 0.9730 0.9730 0.9730 0.9726
2563.219744 0.9716 0.9710 0.9710 0.9710 0.9710
2567.747202 0.9710 0.9710 0.9710 0.9710 0.9710
2572.274659 0.9710 0.9714 0.9724 0.9730 0.9730
2576.802117 0.9730 0.9730 0.9730 0.9730 0.9730
2581.329575 0.9730 0.9726 0.9716 0.9710 0.9710
2585.857032 0.9708 0.9703 0.9696 0.9686 0.9680
2590.384490 0.9680 0.9680 0.9680 0.9680 0.9680
2594.911948 0.9680 0.9680 0.9680 0.9680 0.9680
2599.439405 0.9680 0.9680 0.9680 0.9680 0.9680
2603.966863 0.9680 0.9680 0.9684 0.9694 0.9700
2608.494320 0.9700 0.9702 0.9707 0.9710 0.9710
2613.021778 0.9710 0.9710 0.9708 0.9703 0.9700
2617.549236 0.9700 0.9696 0.9686 0.9680 0.9680
2622.076693 0.9680 0.9680 0.9680 0.9680 0.9680
2626.604151 0.9680 0.9680 0.9680 0.9680 0.9680
2631.131609 0.9680 0.9680 0.9683 0.9693 0.9700
2635.659066 0.9700 0.9700 0.9700 0.9700 0.9700
2640.186524 0.9700 0.9700 0.9700 0.9700 0.9700
2644.713981 0.9700 0.9697 0.9687 0.9678 0.9673
2649.241439 0.9670 0.9670 0.9672 0.9677 0.9685
2653.768897 0.9700 0.9710 0.9710 0.9708 0.9703
2658.296354 0.9700 0.9700 0.9702 0.9707 0.9710
2662.823812 0.9710 0.9705 0.9690 0.9680 0.9680
2667.351270 0.9680 0.9680 0.9683 0.9693 0.9697
2671.878727 0.9687 0.9678 0.9674 0.9671 0.9676
2676.406185 0.9683 0.9693 0.9697 0.9687 0.9683
2680.933642 0.9693 0.9700 0.9700 0.9700 0.9700
2685.461100 0.9697 0.9687 0.9684 0.9699 0.9710
2689.988558 0.9710 0.9704 0.9684 0.9671 0.9676
2694.516015 0.9680 0.9680 0.9680 0.9680 0.9680
2699.043473 0.9680 0.9683 0.9693 0.9701 0.9706
2703.570931 0.9710 0.9710 0.9709 0.9704 0.9700
2708.098388 0.9700 0.9697 0.9687 0.9683 0.9693
2712.625846 0.9700 0.9700 0.9697 0.9687 0.9680
2717.153303 0.9680 0.9679 0.9674 0.9670 0.9670
2721.680761 0.9670 0.9670 0.9674 0.9689 0.9701
2726.208219 0.9706 0.9710 0.9710 0.9709 0.9704
2730.735676 0.9700 0.9700 0.9698 0.9688 0.9680
2735.263134 0.9680 0.9680 0.9680 0.9679 0.9674
2739.790592 0.9670 0.9670 0.9670 0.9670 0.9670
2744.318049 0.9670 0.9670 0.9670 0.9670 0.9670
2748.845507 0.9670 0.9670 0.9670 0.9670 0.9670
2753.372964 0.9670 0.9670 0.9670 0.9670 0.9670
2757.900422 0.9670 0.9670 0.9670 0.9670 0.9673
2762.427880 0.9688 0.9700 0.9700 0.9700 0.9700
2766.955337 0.9700 0.9700 0.9700 0.9700 0.9698
2771.482795 0.9688 0.9680 0.9680 0.9679 0.9674
2776.010253 0.9670 0.9670 0.9670 0.9670 0.9670
2780.537710 0.9670 0.9670 0.9670 0.9670 0.9670
2785.065168 0.9671 0.9676 0.9680 0.9680 0.9682
2789.592625 0.9692 0.9700 0.9700 0.9698 0.9688
2794.120083 0.9680 0.9680 0.9680 0.9680 0.9680
2798.647541 0.9680 0.9680 0.9680 0.9680 0.9680
2803.174998 0.9680 0.9680 0.9680 0.9680 0.9680
2807.702456 0.9680 0.9680 0.9680 0.9679 0.9674
2812.229914 0.9670 0.9670 0.9670 0.9670 0.9670
2816.757371 0.9670 0.9670 0.9670 0.9669 0.9664
2821.284829 0.9660 0.9660 0.9660 0.9660 0.9660
2825.812286 0.9660 0.9660 0.9660 0.9660 0.9660
2830.339744 0.9661 0.9666 0.9670 0.9670 0.9669
2834.867202 0.9664 0.9660 0.9660 0.9660 0.9660
2839.394659 0.9659 0.9649 0.9638 0.9623 0.9610
2843.922117 0.9610 0.9609 0.9604 0.9600 0.9600
2848.449574 0.9600 0.9600 0.9599 0.9589 0.9579
2852.977032 0.9574 0.9570 0.9570 0.9569 0.9564
2857.504490 0.9560 0.9560 0.9561 0.9566 0.9570
2862.031947 0.9570 0.9570 0.9575 0.9580 0.9580
2866.559405 0.9580 0.9580 0.9581 0.9591 0.9600
2871.086863 0.9600 0.9600 0.9600 0.9600 0.9600
2875.614320 0.9600 0.9600 0.9600 0.9600 0.9599
2880.141778 0.9589 0.9580 0.9580 0.9581 0.9591
2884.669235 0.9600 0.9600 0.9600 0.9600 0.9600
2889.196693 0.9600 0.9600 0.9600 0.9600 0.9600
2893.724151 0.9599 0.9589 0.9580 0.9580 0.9580
2898.251608 0.9575 0.9570 0.9570 0.9570 0.9565
2902.779066 0.9560 0.9560 0.9560 0.9549 0.9540
2907.306524 0.9540 0.9540 0.9535 0.9529 0.9519
2911.833981 0.9510 0.9505 0.9500 0.9495 0.9490
2916.361439 0.9480 0.9470 0.9470 0.9470 0.9465
2920.888896 0.9460 0.9460 0.9460 0.9450 0.9440
2925.416354 0.9440 0.9440 0.9440 0.9440 0.9435
2929.943812 0.9430 0.9430 0.9430 0.9435 0.9440
2934.471269 0.9440 0.9440 0.9440 0.9440 0.9450
2938.998727 0.9460 0.9460 0.9460 0.9465 0.9470
2943.526185 0.9480 0.9490 0.9490 0.9490 0.9490
2948.053642 0.9490 0.9490 0.9490 0.9480 0.9470
2952.581100 0.9470 0.9470 0.9480 0.9490 0.9490
2957.108557 0.9490 0.9495 0.9500 0.9495 0.9490
2961.636015 0.9490 0.9490 0.9480 0.9470 0.9480
2966.163473 0.9490 0.9490 0.9490 0.9490 0.9490
2970.690930 0.9490 0.9490 0.9490 0.9490 0.9495
2975.218388 0.9500 0.9505 0.9510 0.9510 0.9510
2979.745846 0.9520 0.9530 0.9535 0.9540 0.9540
2984.273303 0.9540 0.9550 0.9560 0.9560 0.9560
2988.800761 0.9560 0.9560 0.9565 0.9570 0.9570
2993.328218 0.9570 0.9575 0.9580 0.9580 0.9580
2997.855676 0.9575 0.9570 0.9575 0.9580 0.9580
3002.383134 0.9580 0.9590 0.9600 0.9600 0.9600
3006.910591 0.9600 0.9600 0.9600 0.9600 0.9591
3011.438049 0.9581 0.9580 0.9580 0.9580 0.9580
3015.965507 0.9580 0.9580 0.9575 0.9570 0.9565
3020.492964 0.9560 0.9560 0.9560 0.9551 0.9541
3025.020422 0.9540 0.9540 0.9535 0.9530 0.9521
3029.547879 0.9511 0.9510 0.9510 0.9510 0.9510
3034.075337 0.9510 0.9510 0.9510 0.9510 0.9510
3038.602795 0.9510 0.9505 0.9500 0.9495 0.9490
3043.130252 0.9481 0.9471 0.9470 0.9470 0.9465
3047.657710 0.9460 0.9460 0.9460 0.9460 0.9460
3052.185168 0.9465 0.9470 0.9479 0.9489 0.9490
3056.712625 0.9490 0.9494 0.9499 0.9500 0.9500
3061.240083 0.9500 0.9500 0.9496 0.9491 0.9490
3065.767540 0.9490 0.9481 0.9471 0.9470 0.9470
3070.294998 0.9452 0.9432 0.9403 0.9373 0.9348
3074.822456 0.9323 0.9298 0.9273 0.9248 0.9223
3079.349913 0.9194 0.9164 0.9117 0.9067 0.9047
3083.877371 0.9032 0.9030 0.9030 0.9039 0.9049
3088.404829 0.9081 0.9115 0.9133 0.9148 0.9150
3092.932286 0.9150 0.9189 0.9234 0.9249 0.9259
3097.459744 0.9247 0.9232 0.9154 0.9064 0.8995
3101.987201 0.8930 0.8903 0.8883 0.8872 0.8861
3106.514659 0.8869 0.8879 0.8889 0.8898 0.8913
3111.042117 0.8928 0.8938 0.8948 0.8967 0.8987
3115.569574 0.8994 0.8999 0.9012 0.9027 0.9047
3120.097032 0.9066 0.9103 0.9143 0.9158 0.9168
3124.624490 0.9183 0.9197 0.9212 0.9227 0.9230
3129.151947 0.9230 0.9246 0.9266 0.9270 0.9270
3133.679405 0.9237 0.9197 0.9162 0.9127 0.9096
3138.206862 0.9066 0.9060 0.9060 0.9084 0.9114
3142.734320 0.9161 0.9211 0.9224 0.9229 0.9242
3147.261778 0.9257 0.9276 0.9296 0.9324 0.9354
3151.789235 0.9380 0.9405 0.9430 0.9455 0.9460
3156.316693 0.9460 0.9460 0.9460 0.9464 0.9469
3160.844151 0.9466 0.9461 0.9464 0.9469 0.9470
3165.371608 0.9470 0.9470 0.9470 0.9478 0.9488
3169.899066 0.9494 0.9499 0.9500 0.9500 0.9496
3174.426523 0.9491 0.9490 0.9490 0.9490 0.9490
3178.953981 0.9490 0.9490 0.9494 0.9499 0.9500
3183.481439 0.9500 0.9500 0.9500 0.9500 0.9500
3188.008896 0.9500 0.9500 0.9500 0.9500 0.9500
3192.536354 0.9500 0.9500 0.9500 0.9500 0.9500
3197.063812 0.9500 0.9500 0.9500 0.9500 0.9500
3201.591269 0.9500 0.9496 0.9491 0.9490 0.9490
3206.118727 0.9490 0.9490 0.9490 0.9490 0.9494
3210.646184 0.9499 0.9489 0.9474 0.9470 0.9470
3215.173642 0.9477 0.9487 0.9490 0.9490 0.9490
3219.701100 0.9490 0.9490 0.9490 0.9483 0.9473
3224.228557 0.9466 0.9461 0.9453 0.9443 0.9436
3228.756015 0.9431 0.9430 0.9430 0.9434 0.9439
3233.283473 0.9447 0.9457 0.9460 0.9460 0.9460
3237.810930 0.9460 0.9460 0.9460 0.9449 0.9434
3242.338388 0.9423 0.9413 0.9410 0.9410 0.9410
3246.865845 0.9410 0.9410 0.9410 0.9410 0.9410
3251.393303 0.9410 0.9410 0.9410 0.9410 0.9417
3255.920761 0.9427 0.9430 0.9430 0.9430 0.9430
3260.448218 0.9423 0.9413 0.9417 0.9427 0.9430
3264.975676 0.9430 0.9423 0.9413 0.9410 0.9410
3269.503134 0.9407 0.9402 0.9400 0.9400 0.9400
3274.030591 0.9400 0.9400 0.9400 0.9397 0.9392
3278.558049 0.9390 0.9390 0.9390 0.9390 0.9390
3283.085506 0.9390 0.9390 0.9390 0.9390 0.9390
3287.612964 0.9390 0.9390 0.9390 0.9390 0.9383
3292.140422 0.9373 0.9370 0.9370 0.9360 0.9345
3296.667879 0.9340 0.9340 0.9340 0.9340 0.9337
3301.195337 0.9332 0.9330 0.9330 0.9330 0.9330
3305.722795 0.9327 0.9322 0.9320 0.9320 0.9320
3310.250252 0.9320 0.9314 0.9304 0.9297 0.9292
3314.777710 0.9290 0.9290 0.9290 0.9290 0.9284
3319.305167 0.9274 0.9267 0.9262 0.9260 0.9260
3323.832625 0.9260 0.9260 0.9260 0.9260 0.9254
3328.360083 0.9244 0.9240 0.9240 0.9237 0.9232
3332.887540 0.9230 0.9230 0.9230 0.9230 0.9227
3337.414998 0.9222 0.9220 0.9220 0.9214 0.9204
3341.942455 0.9191 0.9176 0.9170 0.9170 0.9170
3346.469913 0.9170 0.9167 0.9162 0.9160 0.9160
3350.997371 0.9157 0.9152 0.9144 0.9134 0.9130
3355.524828 0.9130 0.9127 0.9122 0.9120 0.9120
3360.052286 0.9114 0.9104 0.9097 0.9092 0.9084
3364.579744 0.9074 0.9067 0.9062 0.9060 0.9060
3369.107201 0.9057 0.9052 0.9044 0.9034 0.9027
3373.634659 0.9022 0.9020 0.9020 0.9020 0.9020
3378.162116 0.9014 0.9004 0.9000 0.9000 0.8997
3382.689574 0.8992 0.8987 0.8982 0.8974 0.8964
3387.217032 0.8957 0.8952 0.8945 0.8935 0.8930
3391.744489 0.8930 0.8927 0.8922 0.8915 0.8905
3396.271947 0.8900 0.8900 0.8897 0.8892 0.8890
3400.799405 0.8890 0.8887 0.8882 0.8875 0.8865
3405.326862 0.8860 0.8860 0.8857 0.8852 0.8850
3409.854320 0.8850 0.8850 0.8850 0.8850 0.8850
3414.381777 0.8850 0.8850 0.8853 0.8858 0.8860
3418.909235 0.8860 0.8865 0.8875 0.8880 0.8880
3423.436693 0.8880 0.8880 0.8883 0.8888 0.8893
3427.964150 0.8898 0.8900 0.8900 0.8905 0.8915
3432.491608 0.8920 0.8920 0.8920 0.8920 0.8920
3437.019066 0.8920 0.8923 0.8928 0.8930 0.8930
3441.546523 0.8935 0.8945 0.8957 0.8972 0.8982
3446.073981 0.8987 0.8990 0.8990 0.8992 0.8997
3450.601438 0.9000 0.9000 0.9005 0.9015 0.9020
3455.128896 0.9020 0.9022 0.9027 0.9030 0.9030
3459.656354 0.9030 0.9030 0.9035 0.9045 0.9052
3464.183811 0.9057 0.9060 0.9060 0.9060 0.9060
3468.711269 0.9060 0.9060 0.9062 0.9067 0.9077
3473.238727 0.9092 0.9105 0.9115 0.9120 0.9120
3477.766184 0.9120 0.9120 0.9120 0.9120 0.9122
3482.293642 0.9127 0.9130 0.9130 0.9130 0.9130
3486.821099 0.9130 0.9130 0.9130 0.9130 0.9130
3491.348557 0.9130 0.9134 0.9144 0.9152 0.9157
3495.876015 0.9160 0.9160 0.9160 0.9160 0.9162
3500.403472 0.9167 0.9174 0.9184 0.9192 0.9197
3504.930930 0.9200 0.9200 0.9204 0.9214 0.9220
3509.458388 0.9220 0.9222 0.9227 0.9230 0.9230
3513.985845 0.9230 0.9230 0.9230 0.9230 0.9232
3518.513303 0.9237 0.9240 0.9240 0.9240 0.9240
3523.040760 0.9238 0.9233 0.9230 0.9230 0.9230
3527.568218 0.9230 0.9230 0.9230 0.9230 0.9230
3532.095676 0.9230 0.9230 0.9230 0.9230 0.9230
3536.623133 0.9230 0.9230 0.9230 0.9236 0.9251
3541.150591 0.9262 0.9267 0.9274 0.9284 0.9290
3545.678049 0.9290 0.9290 0.9290 0.9290 0.9290
3550.205506 0.9290 0.9290 0.9290 0.9290 0.9290
3554.732964 0.9290 0.9290 0.9290 0.9290 0.9290
3559.260421 0.9290 0.9290 0.9290 0.9290 0.9290
3563.787879 0.9290 0.9290 0.9290 0.9290 0.9290
3568.315337 0.9290 0.9290 0.9290 0.9290 0.9285
3572.842794 0.9270 0.9256 0.9246 0.9240 0.9240
3577.370252 0.9244 0.9254 0.9262 0.9267 0.9279
3581.897710 0.9304 0.9322 0.9327 0.9330 0.9330
3586.425167 0.9330 0.9330 0.9325 0.9310 0.9293
3590.952625 0.9273 0.9257 0.9247 0.9238 0.9233
3595.480082 0.9230 0.9230 0.9235 0.9250 0.9265
3600.007540 0.9280 0.9295 0.9310 0.9320 0.9320
3604.534998 0.9317 0.9307 0.9300 0.9300 0.9300
3609.062455 0.9300 0.9305 0.9320 0.9330 0.9330
3613.589913 0.9325 0.9310 0.9298 0.9293 0.9287
3618.117371 0.9277 0.9270 0.9270 0.9268 0.9263
3622.644828 0.9260 0.9260 0.9260 0.9260 0.9260
3627.172286 0.9260 0.9260 0.9260 0.9266 0.9286
3631.699743 0.9298 0.9293 0.9282 0.9257 0.9237
3636.227201 0.9227 0.9223 0.9233 0.9244 0.9259
3640.754659 0.9274 0.9289 0.9300 0.9300 0.9303
3645.282116 0.9313 0.9320 0.9320 0.9317 0.9307
3649.809574 0.9299 0.9294 0.9286 0.9271 0.9250
3654.337032 0.9215 0.9180 0.9145 0.9120 0.9120
3658.864489 0.9136 0.9196 0.9244 0.9259 0.9273
3663.391947 0.9283 0.9290 0.9290 0.9291 0.9296
3667.919404 0.9304 0.9319 0.9330 0.9330 0.9326
3672.446862 0.9311 0.9295 0.9275 0.9256 0.9241
3676.974320 0.9229 0.9224 0.9211 0.9176 0.9150
3681.501777 0.9150 0.9151 0.9156 0.9170 0.9210
3686.029235 0.9244 0.9259 0.9272 0.9282 0.9290
3690.556693 0.9290 0.9290 0.9290 0.9282 0.9247
3695.084150 0.9220 0.9220 0.9221 0.9226 0.9233
3699.611608 0.9248 0.9263 0.9278 0.9291 0.9296
3704.139065 0.9300 0.9300 0.9300 0.9300 0.9299
3708.666523 0.9294 0.9290 0.9290 0.9288 0.9278
3713.193981 0.9270 0.9270 0.9269 0.9264 0.9258
3717.721438 0.9248 0.9239 0.9234 0.9231 0.9236
3722.248896 0.9243 0.9258 0.9270 0.9270 0.9270
3726.776354 0.9270 0.9270 0.9270 0.9272 0.9282
3731.303811 0.9290 0.9290 0.9288 0.9278 0.9270
3735.831269 0.9270 0.9269 0.9264 0.9255 0.9224
3740.358726 0.9195 0.9170 0.9148 0.9138 0.9130
3744.886184 0.9130 0.9136 0.9171 0.9200 0.9200
3749.413642 0.9193 0.9153 0.9115 0.9085 0.9060
3753.941099 0.9060 0.9059 0.9054 0.9052 0.9062
3758.468557 0.9074 0.9099 0.9123 0.9143 0.9163
3762.996015 0.9183 0.9202 0.9212 0.9221 0.9226
3767.523472 0.9230 0.9230 0.9231 0.9236 0.9240
3772.050930 0.9240 0.9240 0.9240 0.9240 0.9240
3776.578387 0.9238 0.9228 0.9220 0.9220 0.9221
3781.105845 0.9226 0.9230 0.9230 0.9230 0.9230
3785.633303 0.9230 0.9230 0.9230 0.9230 0.9231
3790.160760 0.9236 0.9241 0.9251 0.9260 0.9260
3794.688218 0.9259 0.9249 0.9234 0.9189
##END=
