##TITLE=METHANE, BROMODICHLORO-
##JCAMP-DX=4.24
##DATA TYPE=INFRARED SPECTRUM
##CLASS=COBLENTZ
##ORIGIN=DOW CHEMICAL COMPANY
##OWNER=COBLENTZ SOCIETY
Collection (C) 2018 copyright by the U.S. Secretary of Commerce
on behalf of the United States of America. All rights reserved.
##DATE=1968/11/27
##NAMES=bromo(dichloro)methane
##CAS REGISTRY NO=75-27-4
##MOLFORM=C H Br Cl2
##BP=91 C
##SOURCE REFERENCE=COBLENTZ NO. 10620
##$NIST SOURCE=COBLENTZ
##$NIST IMAGE=cob10620
##SPECTROMETER/DATA SYSTEM=PERKIN-ELMER 225
##STATE=GAS (50 mmHg DILUTED TO A TOTAL PRESSURE OF 600 mmHg WITH N2)
##PATH LENGTH=5 CM CsI CELL
$$SPECTRAL CONTAMINATION DUE TO AN UNKNOWN AROUND 1738 CM^-^1
$$ SEE SPECTRUM NO. 10584 FOR SOLUTION STATE
##SAMPLING PROCEDURE=TRANSMISSION
##RESOLUTION=4
##DATA PROCESSING=DIGITIZED BY NIST FROM HARD COPY (FROM TWO SEGMENTS)
##XUNITS=1/CM
##YUNITS=TRANSMITTANCE
##XFACTOR=1.000000
##YFACTOR=1
##DELTAX=1.022647
##FIRSTX=212.418
##LASTX=3799.86
##FIRSTY=0.409
##MAXX=3799.86
##MINX=212.418
##MAXY=0.974
##MINY=0.006
##NPOINTS=3509
##XYDATA=(X++(Y..Y))
212.418000 0.4090 0.4260 0.4260 0.4360 0.4470
217.531235 0.4510 0.4590 0.4719 0.4839 0.4939
222.644469 0.5020 0.5050 0.5110 0.5270 0.5400
227.757704 0.5480 0.5490 0.5510 0.5630 0.5710
232.870939 0.5730 0.5760 0.5840 0.5870 0.5900
237.984173 0.5970 0.6030 0.6050 0.6080 0.6160
243.097408 0.6190 0.6310 0.6380 0.6440 0.6500
248.210643 0.6520 0.6520 0.6500 0.6520 0.6759
253.323877 0.6760 0.6740 0.6710 0.6680 0.6680
258.437112 0.6760 0.6790 0.6800 0.6840 0.6900
263.550347 0.6910 0.7060 0.7090 0.7100 0.7100
268.663581 0.7120 0.7120 0.7150 0.7170 0.7200
273.776816 0.7200 0.7100 0.7100 0.7420 0.7480
278.890051 0.7500 0.7500 0.7500 0.7480 0.7420
284.003285 0.7370 0.7370 0.7440 0.7450 0.7550
289.116520 0.7590 0.7590 0.7530 0.7530 0.7530
294.229755 0.7550 0.7550 0.7580 0.7580 0.7610
299.342989 0.7630 0.7660 0.7859 0.7880 0.7860
304.456224 0.7830 0.7810 0.7750 0.7740 0.7740
309.569459 0.7750 0.7770 0.7770 0.7780 0.7800
314.682693 0.7810 0.7810 0.7810 0.7800 0.7770
319.795928 0.7780 0.7800 0.7830 0.7880 0.7880
324.909163 0.7850 0.7850 0.7850 0.7830 0.7750
330.022397 0.7700 0.7740 0.7750 0.7780 0.7810
335.135632 0.7770 0.7770 0.7770 0.7770 0.7770
340.248866 0.7780 0.7800 0.7800 0.7810 0.7830
345.362101 0.7830 0.7800 0.7780 0.7800 0.7880
350.475336 0.7960 0.7970 0.7990 0.7990 0.7970
355.588570 0.7970 0.7960 0.7940 0.7930 0.7910
360.701805 0.7890 0.7890 0.7880 0.7880 0.7880
365.815040 0.7880 0.7880 0.7890 0.7890 0.7910
370.928274 0.7910 0.7930 0.7930 0.7960 0.7990
376.041509 0.7990 0.7880 0.7830 0.7810 0.7800
381.154744 0.7810 0.7810 0.7800 0.7800 0.7780
386.267978 0.7750 0.7740 0.7720 0.7690 0.7690
391.381213 0.7700 0.7700 0.7720 0.7740 0.7740
396.494448 0.7750 0.7750 0.7700 0.7640 0.7630
401.607682 0.7630 0.7640 0.7660 0.7660 0.7690
406.720917 0.7690 0.7700 0.7720 0.7740 0.7770
411.834152 0.7800 0.7810 0.7830 0.7850 0.7860
416.947386 0.7880 0.7880 0.7880 0.7860 0.7830
422.060621 0.7810 0.7800 0.7780 0.7750 0.7740
427.173856 0.7720 0.7720 0.7740 0.7740 0.7750
432.287090 0.7750 0.7750 0.7750 0.7740 0.7740
437.400325 0.7720 0.7720 0.7700 0.7690 0.7690
442.513560 0.7690 0.7700 0.7700 0.7700 0.7700
447.626794 0.7700 0.7700 0.7720 0.7720 0.7750
452.740029 0.7750 0.7830 0.7910 0.7970 0.7990
457.853264 0.8000 0.8020 0.8040 0.8040 0.8050
462.966498 0.8070 0.8070 0.8070 0.8070 0.8070
468.079733 0.8070 0.8070 0.8070 0.8050 0.8050
473.192968 0.8050 0.8070 0.8070 0.8070 0.8070
478.306202 0.8040 0.8020 0.8020 0.8020 0.8020
483.419437 0.8000 0.8000 0.8000 0.7990 0.7970
488.532672 0.7960 0.7940 0.7940 0.7930 0.7890
493.645906 0.7890 0.7880 0.7880 0.7880 0.7860
498.759141 0.7850 0.7830 0.7810 0.7800 0.7800
503.872376 0.7800 0.7780 0.7780 0.7780 0.7780
508.985610 0.7780 0.7780 0.7780 0.7780 0.7780
514.098845 0.7800 0.7800 0.7800 0.7800 0.7800
519.212080 0.7800 0.7800 0.7800 0.7800 0.7800
524.325314 0.7810 0.7810 0.7830 0.7850 0.7850
529.438549 0.7860 0.7860 0.7830 0.7810 0.7800
534.551784 0.7780 0.7780 0.7780 0.7780 0.7770
539.665018 0.7750 0.7740 0.7740 0.7740 0.7750
544.778253 0.7750 0.7770 0.7780 0.7780 0.7780
549.891488 0.7800 0.7800 0.7800 0.7800 0.7810
555.004722 0.7830 0.7830 0.7830 0.7810 0.7810
560.117957 0.7810 0.7810 0.7810 0.7810 0.7830
565.231192 0.7830 0.7830 0.7830 0.7830 0.7830
570.344426 0.7810 0.7810 0.7810 0.7810 0.7800
575.457661 0.7800 0.7800 0.7800 0.7780 0.7770
580.570896 0.7750 0.7700 0.7670 0.7630 0.7530
585.684130 0.7400 0.7310 0.7250 0.7120 0.7030
590.797365 0.6840 0.6630 0.6380 0.5820 0.5430
595.910599 0.5071 0.4801 0.4451 0.4181 0.4090
601.023834 0.3980 0.3880 0.3820 0.3800 0.3770
606.137069 0.2243 0.2240 0.4443 0.4450 0.3683
611.250303 0.2890 0.2710 0.2710 0.3150 0.4119
616.363538 0.4529 0.5947 0.6329 0.7117 0.7339
621.476773 0.7480 0.7580 0.7700 0.7850 0.7880
626.590007 0.7890 0.7940 0.7960 0.8000 0.8020
631.703242 0.8040 0.8040 0.8040 0.8050 0.8070
636.816477 0.8070 0.8080 0.8080 0.8080 0.8080
641.929711 0.8080 0.8080 0.8080 0.8070 0.8070
647.042946 0.8070 0.8070 0.8050 0.8050 0.8070
652.156181 0.8100 0.8120 0.8130 0.8130 0.8130
657.269415 0.8150 0.8160 0.8180 0.8190 0.8210
662.382650 0.8210 0.8230 0.8240 0.8240 0.8340
667.495885 0.8340 0.8290 0.8270 0.8260 0.8260
672.609119 0.8230 0.8190 0.8180 0.8180 0.8160
677.722354 0.8160 0.8160 0.8150 0.8150 0.8150
682.835589 0.8130 0.8120 0.8100 0.8080 0.8050
687.948823 0.8040 0.8000 0.7990 0.7970 0.7970
693.062058 0.7940 0.7860 0.7800 0.7750 0.7720
698.175293 0.7690 0.7530 0.7341 0.7280 0.7250
703.288527 0.7140 0.7070 0.7010 0.6930 0.6680
708.401762 0.6440 0.6161 0.5791 0.5302 0.4662
713.514997 0.4089 0.3820 0.3549 0.2680 0.2180
718.628231 0.1451 0.1071 0.0741 0.0411 0.0260
723.741466 0.0150 0.0120 0.0120 0.0090 0.0090
728.854701 0.0070 0.0070 0.0070 0.0090 0.0110
733.967935 0.0110 0.0110 0.0090 0.0070 0.0060
739.081170 0.0060 0.0090 0.0220 0.1018 0.2017
744.194405 0.4061 0.4781 0.5540 0.5700 0.5700
749.307639 0.5620 0.5161 0.4591 0.4371 0.4121
754.420874 0.3869 0.3249 0.2630 0.2190 0.1640
759.534109 0.1041 0.0691 0.0331 0.0300 0.0170
764.647343 0.0140 0.0110 0.0070 0.0070 0.0060
769.760578 0.0060 0.0070 0.0070 0.0090 0.0120
774.873813 0.0150 0.0170 0.0150 0.0120 0.0110
779.987047 0.0120 0.0150 0.0200 0.0310 0.0479
785.100282 0.1091 0.1610 0.2110 0.2510 0.3079
790.213517 0.4278 0.4829 0.5259 0.5868 0.6089
795.326751 0.7121 0.7560 0.7630 0.7640 0.7610
800.439986 0.7560 0.7470 0.7390 0.7310 0.7250
805.553221 0.7150 0.7090 0.7030 0.6990 0.6960
810.666455 0.6950 0.6930 0.6910 0.6910 0.6910
815.779690 0.6910 0.6910 0.6900 0.6880 0.6850
820.892925 0.6840 0.6770 0.6760 0.6820 0.7169
826.006159 0.7470 0.7610 0.7740 0.7750 0.7750
831.119394 0.7750 0.7750 0.7770 0.7780 0.7810
836.232629 0.7850 0.7970 0.8120 0.8150 0.8180
841.345863 0.8230 0.8240 0.8260 0.8270 0.8270
846.459098 0.8290 0.8290 0.8290 0.8300 0.8300
851.572332 0.8300 0.8300 0.8300 0.8320 0.8340
856.685567 0.8340 0.8340 0.8350 0.8350 0.8350
861.798802 0.8350 0.8350 0.8350 0.8350 0.8350
866.912036 0.8350 0.8350 0.8350 0.8340 0.8340
872.025271 0.8340 0.8340 0.8340 0.8340 0.8340
877.138506 0.8340 0.8340 0.8340 0.8350 0.8350
882.251740 0.8350 0.8350 0.8350 0.8350 0.8350
887.364975 0.8370 0.8370 0.8370 0.8370 0.8370
892.478210 0.8380 0.8380 0.8400 0.8400 0.8400
897.591444 0.8420 0.8420 0.8420 0.8420 0.8420
902.704679 0.8420 0.8430 0.8430 0.8430 0.8430
907.817914 0.8450 0.8450 0.8450 0.8450 0.8450
912.931148 0.8450 0.8450 0.8450 0.8450 0.8450
918.044383 0.8430 0.8430 0.8400 0.8380 0.8380
923.157618 0.8370 0.8350 0.8340 0.8320 0.8320
928.270852 0.8300 0.8300 0.8300 0.8300 0.8300
933.384087 0.8300 0.8300 0.8300 0.8300 0.8300
938.497322 0.8300 0.8300 0.8300 0.8320 0.8300
943.610556 0.8300 0.8300 0.8300 0.8300 0.8300
948.723791 0.8300 0.8300 0.8300 0.8290 0.8290
953.837026 0.8300 0.8300 0.8320 0.8320 0.8320
958.950260 0.8340 0.8340 0.8340 0.8340 0.8340
964.063495 0.8340 0.8340 0.8320 0.8320 0.8320
969.176730 0.8300 0.8290 0.8290 0.8270 0.8260
974.289964 0.8260 0.8240 0.8240 0.8240 0.8240
979.403199 0.8240 0.8230 0.8210 0.8210 0.8210
984.516434 0.8210 0.8230 0.8230 0.8240 0.8240
989.629668 0.8240 0.8240 0.8240 0.8240 0.8260
994.742903 0.8260 0.8260 0.8260 0.8260 0.8240
999.856138 0.8240 0.8240 0.8230 0.8230 0.8230
1004.969372 0.8230 0.8230 0.8210 0.8210 0.8190
1010.082607 0.8190 0.8190 0.8190 0.8180 0.8180
1015.195842 0.8180 0.8180 0.8180 0.8180 0.8180
1020.309076 0.8180 0.8180 0.8180 0.8180 0.8190
1025.422311 0.8190 0.8190 0.8180 0.8160 0.8150
1030.535546 0.8150 0.8130 0.8130 0.8130 0.8130
1035.648780 0.8130 0.8130 0.8130 0.8130 0.8130
1040.762015 0.8150 0.8150 0.8130 0.8120 0.8120
1045.875250 0.8100 0.8100 0.8100 0.8100 0.8100
1050.988484 0.8100 0.8100 0.8080 0.8080 0.8080
1056.101719 0.8070 0.8070 0.8070 0.8050 0.8050
1061.214954 0.8050 0.8050 0.8040 0.8040 0.8040
1066.328188 0.8040 0.8040 0.8040 0.8040 0.8040
1071.441423 0.8040 0.8050 0.8050 0.8050 0.8050
1076.554658 0.8040 0.8040 0.8040 0.8040 0.8040
1081.667892 0.8040 0.8040 0.8040 0.8020 0.8020
1086.781127 0.8020 0.8020 0.8020 0.8020 0.8020
1091.894362 0.8020 0.8020 0.8000 0.8000 0.8000
1097.007596 0.8000 0.7990 0.7990 0.7990 0.7990
1102.120831 0.7970 0.7970 0.7970 0.7970 0.7970
1107.234065 0.7960 0.7960 0.7960 0.7940 0.7940
1112.347300 0.7940 0.7930 0.7930 0.7910 0.7910
1117.460535 0.7910 0.7910 0.7910 0.7910 0.7910
1122.573769 0.7910 0.7910 0.7910 0.7910 0.7910
1127.687004 0.7910 0.7910 0.7910 0.7890 0.7890
1132.800239 0.7890 0.7880 0.7880 0.7860 0.7850
1137.913473 0.7830 0.7830 0.7810 0.7800 0.7780
1143.026708 0.7750 0.7700 0.7670 0.7660 0.7630
1148.139943 0.7610 0.7470 0.7420 0.7360 0.7260
1153.253177 0.7170 0.7010 0.6840 0.6550 0.6220
1158.366412 0.5920 0.4921 0.4291 0.4061 0.3821
1163.479647 0.2948 0.2299 0.1940 0.1941 0.2510
1168.592881 0.2520 0.2520 0.1541 0.0552 0.4141
1173.706116 0.4146 0.2897 0.1639 0.1150 0.1150
1178.819351 0.1560 0.1870 0.3299 0.4578 0.5129
1183.932585 0.6442 0.7100 0.7290 0.7340 0.7330
1189.045820 0.7280 0.7230 0.7200 0.7100 0.7010
1194.159055 0.6910 0.6819 0.6610 0.6470 0.6170
1199.272289 0.5870 0.5460 0.5080 0.4890 0.4501
1204.385524 0.4119 0.3718 0.2810 0.2590 0.2590
1209.498759 0.2700 0.2930 0.4278 0.5018 0.5598
1214.611993 0.5596 0.4337 0.3080 0.3080 0.3361
1219.725228 0.4260 0.4470 0.4700 0.5029 0.5240
1224.838463 0.5461 0.5780 0.6000 0.6360 0.6630
1229.951697 0.6800 0.7100 0.7200 0.7420 0.7590
1235.064932 0.7660 0.7700 0.7740 0.7770 0.7780
1240.178167 0.7780 0.7800 0.7810 0.7810 0.7810
1245.291401 0.7810 0.7810 0.7810 0.7810 0.7810
1250.404636 0.7810 0.7810 0.7810 0.7810 0.7810
1255.517871 0.7810 0.7810 0.7810 0.7810 0.7810
1260.631105 0.7810 0.7810 0.7830 0.7830 0.7830
1265.744340 0.7850 0.7850 0.7850 0.7850 0.7850
1270.857575 0.7860 0.7860 0.7860 0.7880 0.7890
1275.970809 0.7910 0.7910 0.7910 0.7910 0.7930
1281.084044 0.7930 0.7930 0.7930 0.7930 0.7930
1286.197279 0.7930 0.7930 0.7930 0.7930 0.7930
1291.310513 0.7930 0.7930 0.7930 0.7910 0.7910
1296.423748 0.7890 0.7890 0.7890 0.7880 0.7880
1301.536983 0.7880 0.7880 0.7880 0.7860 0.7860
1306.650217 0.7860 0.7860 0.7860 0.7860 0.7850
1311.763452 0.7850 0.7850 0.7830 0.7830 0.7830
1316.876687 0.7830 0.7830 0.7810 0.7800 0.7780
1321.989921 0.7770 0.7770 0.7770 0.7770 0.7770
1327.103156 0.7770 0.7770 0.7770 0.7770 0.7770
1332.216391 0.7770 0.7770 0.7770 0.7770 0.7770
1337.329625 0.7770 0.7770 0.7750 0.7750 0.7750
1342.442860 0.7750 0.7740 0.7740 0.7740 0.7740
1347.556095 0.7720 0.7720 0.7720 0.7720 0.7720
1352.669329 0.7720 0.7720 0.7720 0.7700 0.7700
1357.782564 0.7700 0.7700 0.7700 0.7700 0.7700
1362.895798 0.7700 0.7700 0.7720 0.7720 0.7720
1368.009033 0.7720 0.7720 0.7720 0.7720 0.7740
1373.122268 0.7740 0.7750 0.7750 0.7750 0.7750
1378.235502 0.7750 0.7770 0.7780 0.7800 0.7810
1383.348737 0.7830 0.7850 0.7860 0.7910 0.7940
1388.461972 0.7960 0.7960 0.7960 0.7970 0.7990
1393.575206 0.8000 0.8000 0.8020 0.8020 0.8020
1398.688441 0.8020 0.8020 0.8020 0.8020 0.8020
1403.801676 0.8020 0.8020 0.8020 0.8020 0.8020
1408.914910 0.8020 0.8020 0.8020 0.8000 0.7990
1414.028145 0.7970 0.7970 0.7970 0.7970 0.7960
1419.141380 0.7960 0.7960 0.7970 0.7970 0.7970
1424.254614 0.7970 0.7990 0.8000 0.8000 0.8000
1429.367849 0.8020 0.8020 0.8000 0.8000 0.8020
1434.481084 0.8050 0.8070 0.8080 0.8080 0.8120
1439.594318 0.8120 0.8120 0.8120 0.8120 0.8120
1444.707553 0.8130 0.8130 0.8150 0.8150 0.8150
1449.820788 0.8130 0.8120 0.8120 0.8120 0.8100
1454.934022 0.8100 0.8100 0.8120 0.8120 0.8120
1460.047257 0.8120 0.8100 0.8100 0.8100 0.8080
1465.160492 0.8080 0.8070 0.8040 0.8000 0.7970
1470.273726 0.7960 0.7940 0.7940 0.7910 0.7880
1475.386961 0.7850 0.7830 0.7810 0.7810 0.7800
1480.500196 0.7800 0.7780 0.7750 0.7740 0.7700
1485.613430 0.7690 0.7670 0.7670 0.7670 0.7660
1490.726665 0.7660 0.7660 0.7660 0.7660 0.7670
1495.839900 0.7670 0.7700 0.7740 0.7930 0.7960
1500.953134 0.8020 0.8040 0.8040 0.8050 0.8070
1506.066369 0.8120 0.8160 0.8190 0.8230 0.8240
1511.179604 0.8240 0.8240 0.8230 0.8230 0.8230
1516.292838 0.8210 0.8180 0.8180 0.8160 0.8160
1521.406073 0.8150 0.8130 0.8120 0.8120 0.8120
1526.519308 0.8120 0.8120 0.8100 0.8100 0.8070
1531.632542 0.8070 0.8120 0.8180 0.8180 0.8150
1536.745777 0.8130 0.8120 0.8120 0.8100 0.8100
1541.859012 0.8120 0.8120 0.8150 0.8190 0.8230
1546.972246 0.8240 0.8300 0.8400 0.8420 0.8420
1552.085481 0.8420 0.8420 0.8380 0.8350 0.8320
1557.198716 0.8320 0.8320 0.8300 0.8300 0.8300
1562.311950 0.8300 0.8300 0.8300 0.8290 0.8290
1567.425185 0.8290 0.8290 0.8300 0.8290 0.8290
1572.538420 0.8290 0.8270 0.8270 0.8270 0.8270
1577.651654 0.8270 0.8270 0.8290 0.8290 0.8290
1582.764889 0.8290 0.8290 0.8290 0.8290 0.8270
1587.878124 0.8270 0.8270 0.8270 0.8260 0.8260
1592.991358 0.8260 0.8260 0.8260 0.8260 0.8260
1598.104593 0.8260 0.8260 0.8260 0.8270 0.8270
1603.217828 0.8270 0.8270 0.8270 0.8290 0.8290
1608.331062 0.8290 0.8300 0.8300 0.8300 0.8300
1613.444297 0.8300 0.8290 0.8290 0.8290 0.8290
1618.557531 0.8300 0.8300 0.8230 0.8180 0.8160
1623.670766 0.8160 0.8180 0.8180 0.8190 0.8190
1628.784001 0.8230 0.8260 0.8340 0.8370 0.8320
1633.897235 0.8290 0.8270 0.8270 0.8290 0.8290
1639.010470 0.8300 0.8320 0.8370 0.8400 0.8450
1644.123705 0.8450 0.8420 0.8420 0.8420 0.8560
1649.236939 0.8560 0.8530 0.8400 0.8370 0.8370
1654.350174 0.8370 0.8370 0.8370 0.8380 0.8380
1659.463409 0.8380 0.8340 0.8340 0.8350 0.8350
1664.576643 0.8380 0.8420 0.8420 0.8400 0.8400
1669.689878 0.8400 0.8400 0.8420 0.8380 0.8350
1674.803113 0.8350 0.8380 0.8400 0.8420 0.8420
1679.916347 0.8420 0.8430 0.8420 0.8380 0.8370
1685.029582 0.8370 0.8370 0.8380 0.8400 0.8400
1690.142817 0.8420 0.8420 0.8430 0.8430 0.8400
1695.256051 0.8370 0.8350 0.8340 0.8300 0.8270
1700.369286 0.8240 0.8210 0.8190 0.8150 0.8130
1705.482521 0.8120 0.8120 0.8100 0.8080 0.8070
1710.595755 0.8070 0.8050 0.8050 0.8050 0.8040
1715.708990 0.7970 0.7960 0.7890 0.7880 0.7880
1720.822225 0.7860 0.7860 0.7860 0.7860 0.7880
1725.935459 0.7880 0.7880 0.7890 0.7910 0.7930
1731.048694 0.7930 0.7860 0.7830 0.7800 0.7780
1736.161929 0.7780 0.7780 0.7770 0.7770 0.7780
1741.275163 0.7830 0.7850 0.7860 0.7910 0.7930
1746.388398 0.7930 0.7940 0.7940 0.7960 0.7960
1751.501633 0.7940 0.7940 0.7960 0.7990 0.8020
1756.614867 0.8050 0.8070 0.8070 0.8100 0.8120
1761.728102 0.8120 0.8120 0.8120 0.8130 0.8180
1766.841337 0.8230 0.8240 0.8260 0.8270 0.8270
1771.954571 0.8260 0.8260 0.8260 0.8260 0.8260
1777.067806 0.8270 0.8270 0.8270 0.8300 0.8320
1782.181041 0.8320 0.8320 0.8300 0.8300 0.8320
1787.294275 0.8340 0.8340 0.8370 0.8370 0.8370
1792.407510 0.8370 0.8370 0.8370 0.8370 0.8370
1797.520745 0.8370 0.8370 0.8350 0.8350 0.8370
1802.633979 0.8370 0.8370 0.8370 0.8370 0.8370
1807.747214 0.8370 0.8370 0.8350 0.8350 0.8340
1812.860449 0.8340 0.8350 0.8350 0.8380 0.8380
1817.973683 0.8400 0.8400 0.8400 0.8420 0.8420
1823.086918 0.8420 0.8420 0.8420 0.8420 0.8420
1828.200153 0.8400 0.8400 0.8400 0.8420 0.8420
1833.313387 0.8420 0.8420 0.8420 0.8430 0.8430
1838.426622 0.8430 0.8450 0.8460 0.8480 0.8480
1843.539857 0.8460 0.8430 0.8420 0.8420 0.8420
1848.653091 0.8420 0.8420 0.8420 0.8420 0.8420
1853.766326 0.8420 0.8420 0.8420 0.8420 0.8430
1858.879561 0.8430 0.8430 0.8450 0.8450 0.8450
1863.992795 0.8450 0.8460 0.8460 0.8450 0.8450
1869.106030 0.8430 0.8420 0.8420 0.8420 0.8420
1874.219264 0.8420 0.8420 0.8430 0.8430 0.8430
1879.332499 0.8430 0.8420 0.8420 0.8420 0.8400
1884.445734 0.8400 0.8380 0.8380 0.8380 0.8420
1889.558968 0.8430 0.8430 0.8430 0.8430 0.8430
1894.672203 0.8450 0.8450 0.8450 0.8430 0.8420
1899.785438 0.8420 0.8420 0.8420 0.8400 0.8400
1904.898672 0.8400 0.8400 0.8400 0.8400 0.8400
1910.011907 0.8400 0.8400 0.8400 0.8400 0.8400
1915.125142 0.8400 0.8420 0.8420 0.8420 0.8420
1920.238376 0.8420 0.8430 0.8430 0.8420 0.8420
1925.351611 0.8420 0.8420 0.8420 0.8400 0.8400
1930.464846 0.8420 0.8420 0.8420 0.8420 0.8400
1935.578080 0.8400 0.8400 0.8400 0.8420 0.8420
1940.691315 0.8420 0.8430 0.8430 0.8430 0.8430
1945.804550 0.8430 0.8430 0.8430 0.8430 0.8430
1950.917784 0.8430 0.8450 0.8430 0.8430 0.8430
1956.031019 0.8430 0.8430 0.8450 0.8450 0.8430
1961.144254 0.8430 0.8450 0.8450 0.8450 0.8430
1966.257488 0.8430 0.8430 0.8430 0.8450 0.8450
1971.370723 0.8450 0.8450 0.8450 0.8450 0.8450
1976.483958 0.8450 0.8450 0.8450 0.8430 0.8430
1981.597192 0.8430 0.8430 0.8450 0.8450 0.8450
1986.710427 0.8450 0.8450 0.8430 0.8430 0.8430
1991.823662 0.8430 0.8430 0.8430 0.8430 0.8430
1996.936896 0.8430 0.8430 0.8430 0.8430 0.8425
2002.050131 0.8420 0.8410 0.8400 0.8390 0.8380
2007.163366 0.8380 0.8380 0.8380 0.8381 0.8391
2012.276600 0.8400 0.8400 0.8401 0.8411 0.8421
2017.389835 0.8426 0.8430 0.8430 0.8433 0.8448
2022.503070 0.8460 0.8460 0.8462 0.8472 0.8483
2027.616304 0.8499 0.8510 0.8510 0.8510 0.8510
2032.729539 0.8513 0.8523 0.8534 0.8550 0.8562
2037.842774 0.8567 0.8573 0.8583 0.8590 0.8590
2042.956008 0.8590 0.8590 0.8590 0.8590 0.8590
2048.069243 0.8590 0.8590 0.8590 0.8590 0.8590
2053.182478 0.8592 0.8597 0.8600 0.8600 0.8605
2058.295712 0.8615 0.8620 0.8620 0.8625 0.8636
2063.408947 0.8640 0.8640 0.8640 0.8640 0.8640
2068.522182 0.8640 0.8640 0.8640 0.8640 0.8640
2073.635416 0.8643 0.8648 0.8650 0.8650 0.8650
2078.748651 0.8650 0.8650 0.8650 0.8650 0.8650
2083.861886 0.8650 0.8650 0.8650 0.8650 0.8650
2088.975120 0.8650 0.8650 0.8650 0.8650 0.8650
2094.088355 0.8658 0.8668 0.8674 0.8679 0.8680
2099.201590 0.8680 0.8689 0.8699 0.8709 0.8719
2104.314824 0.8720 0.8720 0.8720 0.8720 0.8720
2109.428059 0.8720 0.8725 0.8730 0.8730 0.8730
2114.541294 0.8730 0.8730 0.8730 0.8730 0.8730
2119.654528 0.8730 0.8730 0.8730 0.8725 0.8720
2124.767763 0.8720 0.8720 0.8720 0.8720 0.8720
2129.880997 0.8720 0.8720 0.8720 0.8720 0.8721
2134.994232 0.8726 0.8730 0.8730 0.8732 0.8742
2140.107467 0.8751 0.8756 0.8760 0.8760 0.8763
2145.220701 0.8773 0.8780 0.8780 0.8780 0.8780
2150.333936 0.8780 0.8780 0.8780 0.8780 0.8780
2155.447171 0.8780 0.8780 0.8780 0.8780 0.8780
2160.560405 0.8782 0.8787 0.8790 0.8790 0.8788
2165.673640 0.8783 0.8780 0.8780 0.8780 0.8780
2170.786875 0.8780 0.8780 0.8783 0.8788 0.8790
2175.900109 0.8790 0.8790 0.8790 0.8790 0.8790
2181.013344 0.8790 0.8790 0.8790 0.8790 0.8796
2186.126579 0.8806 0.8810 0.8810 0.8810 0.8810
2191.239813 0.8810 0.8810 0.8810 0.8810 0.8810
2196.353048 0.8810 0.8810 0.8810 0.8817 0.8828
2201.466283 0.8834 0.8839 0.8840 0.8840 0.8840
2206.579517 0.8840 0.8852 0.8868 0.8870 0.8870
2211.692752 0.8870 0.8870 0.8870 0.8870 0.8870
2216.805987 0.8870 0.8870 0.8870 0.8870 0.8870
2221.919221 0.8870 0.8870 0.8870 0.8870 0.8870
2227.032456 0.8870 0.8870 0.8870 0.8870 0.8870
2232.145691 0.8870 0.8870 0.8870 0.8870 0.8870
2237.258925 0.8870 0.8870 0.8870 0.8870 0.8871
2242.372160 0.8881 0.8890 0.8890 0.8890 0.8890
2247.485395 0.8891 0.8896 0.8900 0.8900 0.8900
2252.598629 0.8900 0.8902 0.8912 0.8920 0.8920
2257.711864 0.8920 0.8920 0.8920 0.8920 0.8920
2262.825099 0.8920 0.8923 0.8933 0.8940 0.8940
2267.938333 0.8940 0.8940 0.8942 0.8947 0.8954
2273.051568 0.8964 0.8970 0.8970 0.8970 0.8970
2278.164803 0.8970 0.8970 0.8970 0.8970 0.8970
2283.278037 0.8970 0.8973 0.8978 0.8980 0.8980
2288.391272 0.8980 0.8980 0.8986 0.8996 0.9006
2293.504507 0.9016 0.9023 0.9028 0.9036 0.9046
2298.617741 0.9053 0.9058 0.9066 0.9076 0.9083
2303.730976 0.9088 0.9090 0.9090 0.9090 0.9090
2308.844211 0.9090 0.9090 0.9090 0.9090 0.9090
2313.957445 0.9090 0.9090 0.9090 0.9090 0.9090
2319.070680 0.9090 0.9090 0.9090 0.9090 0.9098
2324.183915 0.9109 0.9119 0.9129 0.9134 0.9139
2329.297149 0.9140 0.9140 0.9140 0.9140 0.9149
2334.410384 0.9159 0.9165 0.9170 0.9180 0.9190
2339.523619 0.9200 0.9210 0.9215 0.9220 0.9220
2344.636853 0.9220 0.9220 0.9221 0.9231 0.9240
2349.750088 0.9245 0.9250 0.9250 0.9250 0.9250
2354.863323 0.9250 0.9250 0.9249 0.9244 0.9240
2359.976557 0.9240 0.9238 0.9228 0.9220 0.9220
2365.089792 0.9220 0.9220 0.9219 0.9214 0.9205
2370.203027 0.9185 0.9166 0.9151 0.9136 0.9121
2375.316261 0.9105 0.9090 0.9077 0.9067 0.9058
2380.429496 0.9053 0.9047 0.9036 0.9030 0.9030
2385.542730 0.9030 0.9030 0.9030 0.9030 0.9030
2390.655965 0.9030 0.9030 0.9030 0.9035 0.9045
2395.769200 0.9050 0.9050 0.9050 0.9050 0.9050
2400.882434 0.9050 0.9050 0.9050 0.9050 0.9050
2405.995669 0.9044 0.9034 0.9027 0.9022 0.9014
2411.108904 0.9004 0.8994 0.8984 0.8980 0.8980
2416.222138 0.8980 0.8980 0.8977 0.8972 0.8970
2421.335373 0.8970 0.8970 0.8970 0.8974 0.8979
2426.448608 0.8995 0.9015 0.9043 0.9074 0.9100
2431.561842 0.9125 0.9146 0.9166 0.9178 0.9188
2436.675077 0.9190 0.9190 0.9199 0.9209 0.9210
2441.788312 0.9210 0.9214 0.9219 0.9220 0.9220
2446.901546 0.9215 0.9210 0.9210 0.9210 0.9210
2452.014781 0.9210 0.9210 0.9210 0.9210 0.9210
2457.128016 0.9215 0.9220 0.9220 0.9220 0.9220
2462.241250 0.9220 0.9220 0.9220 0.9220 0.9220
2467.354485 0.9220 0.9220 0.9220 0.9220 0.9220
2472.467720 0.9218 0.9202 0.9190 0.9190 0.9190
2477.580954 0.9190 0.9190 0.9190 0.9190 0.9190
2482.694189 0.9192 0.9202 0.9210 0.9210 0.9211
2487.807424 0.9217 0.9220 0.9220 0.9220 0.9220
2492.920658 0.9223 0.9233 0.9240 0.9240 0.9242
2498.033893 0.9247 0.9254 0.9264 0.9272 0.9277
2503.147128 0.9284 0.9294 0.9300 0.9300 0.9300
2508.260362 0.9300 0.9300 0.9300 0.9300 0.9300
2513.373597 0.9300 0.9300 0.9300 0.9300 0.9300
2518.486832 0.9300 0.9300 0.9300 0.9300 0.9300
2523.600066 0.9300 0.9300 0.9300 0.9300 0.9300
2528.713301 0.9300 0.9300 0.9300 0.9300 0.9300
2533.826536 0.9300 0.9300 0.9300 0.9300 0.9300
2538.939770 0.9300 0.9300 0.9300 0.9300 0.9300
2544.053005 0.9300 0.9300 0.9300 0.9300 0.9300
2549.166240 0.9300 0.9300 0.9300 0.9309 0.9319
2554.279474 0.9320 0.9320 0.9320 0.9320 0.9320
2559.392709 0.9320 0.9320 0.9320 0.9320 0.9320
2564.505944 0.9320 0.9320 0.9320 0.9320 0.9320
2569.619178 0.9320 0.9325 0.9330 0.9325 0.9320
2574.732413 0.9320 0.9320 0.9320 0.9320 0.9320
2579.845648 0.9320 0.9326 0.9330 0.9330 0.9329
2584.958882 0.9324 0.9320 0.9320 0.9320 0.9320
2590.072117 0.9320 0.9320 0.9320 0.9320 0.9321
2595.185352 0.9326 0.9330 0.9330 0.9330 0.9330
2600.298586 0.9330 0.9330 0.9330 0.9330 0.9333
2605.411821 0.9343 0.9347 0.9336 0.9330 0.9330
2610.525056 0.9330 0.9330 0.9334 0.9344 0.9350
2615.638290 0.9350 0.9350 0.9350 0.9350 0.9350
2620.751525 0.9350 0.9350 0.9350 0.9350 0.9350
2625.864760 0.9350 0.9350 0.9350 0.9350 0.9350
2630.977994 0.9350 0.9350 0.9350 0.9350 0.9350
2636.091229 0.9350 0.9350 0.9350 0.9350 0.9350
2641.204463 0.9350 0.9350 0.9350 0.9350 0.9353
2646.317698 0.9358 0.9367 0.9377 0.9384 0.9389
2651.430933 0.9390 0.9390 0.9390 0.9390 0.9390
2656.544167 0.9390 0.9390 0.9390 0.9390 0.9390
2661.657402 0.9390 0.9390 0.9390 0.9390 0.9390
2666.770637 0.9390 0.9390 0.9390 0.9390 0.9390
2671.883871 0.9390 0.9390 0.9390 0.9390 0.9390
2676.997106 0.9390 0.9390 0.9390 0.9390 0.9390
2682.110341 0.9385 0.9380 0.9380 0.9380 0.9380
2687.223575 0.9380 0.9369 0.9360 0.9360 0.9360
2692.336810 0.9360 0.9360 0.9360 0.9360 0.9360
2697.450045 0.9360 0.9360 0.9362 0.9372 0.9380
2702.563279 0.9380 0.9380 0.9380 0.9380 0.9380
2707.676514 0.9380 0.9380 0.9380 0.9380 0.9380
2712.789749 0.9380 0.9380 0.9380 0.9382 0.9387
2717.902983 0.9390 0.9390 0.9390 0.9390 0.9390
2723.016218 0.9390 0.9394 0.9404 0.9406 0.9396
2728.129453 0.9390 0.9390 0.9390 0.9390 0.9390
2733.242687 0.9390 0.9390 0.9390 0.9390 0.9390
2738.355922 0.9390 0.9390 0.9390 0.9390 0.9390
2743.469157 0.9390 0.9395 0.9406 0.9410 0.9410
2748.582391 0.9410 0.9410 0.9416 0.9426 0.9430
2753.695626 0.9430 0.9424 0.9413 0.9417 0.9427
2758.808861 0.9423 0.9413 0.9410 0.9410 0.9410
2763.922095 0.9410 0.9410 0.9410 0.9410 0.9410
2769.035330 0.9410 0.9410 0.9410 0.9410 0.9410
2774.148565 0.9410 0.9410 0.9410 0.9410 0.9410
2779.261799 0.9419 0.9429 0.9430 0.9430 0.9430
2784.375034 0.9430 0.9435 0.9440 0.9440 0.9440
2789.488269 0.9440 0.9440 0.9440 0.9440 0.9440
2794.601503 0.9440 0.9435 0.9430 0.9430 0.9430
2799.714738 0.9430 0.9430 0.9435 0.9440 0.9435
2804.827973 0.9430 0.9430 0.9430 0.9430 0.9430
2809.941207 0.9430 0.9430 0.9430 0.9430 0.9430
2815.054442 0.9430 0.9430 0.9430 0.9430 0.9430
2820.167677 0.9430 0.9428 0.9418 0.9410 0.9410
2825.280911 0.9410 0.9410 0.9407 0.9397 0.9390
2830.394146 0.9390 0.9390 0.9390 0.9393 0.9404
2835.507381 0.9410 0.9410 0.9410 0.9410 0.9410
2840.620615 0.9410 0.9414 0.9424 0.9430 0.9430
2845.733850 0.9430 0.9430 0.9425 0.9415 0.9415
2850.847085 0.9425 0.9430 0.9430 0.9430 0.9430
2855.960319 0.9430 0.9430 0.9424 0.9414 0.9410
2861.073554 0.9410 0.9410 0.9410 0.9410 0.9410
2866.186789 0.9410 0.9410 0.9410 0.9410 0.9410
2871.300023 0.9410 0.9403 0.9393 0.9390 0.9390
2876.413258 0.9390 0.9390 0.9390 0.9390 0.9386
2881.526493 0.9381 0.9380 0.9380 0.9380 0.9380
2886.639727 0.9380 0.9380 0.9380 0.9380 0.9380
2891.752962 0.9380 0.9371 0.9361 0.9360 0.9360
2896.866196 0.9360 0.9360 0.9360 0.9360 0.9369
2901.979431 0.9379 0.9370 0.9360 0.9360 0.9360
2907.092666 0.9360 0.9360 0.9360 0.9360 0.9360
2912.205900 0.9360 0.9355 0.9350 0.9350 0.9350
2917.319135 0.9350 0.9350 0.9350 0.9350 0.9350
2922.432370 0.9350 0.9350 0.9350 0.9350 0.9350
2927.545604 0.9350 0.9350 0.9350 0.9351 0.9356
2932.658839 0.9360 0.9360 0.9360 0.9360 0.9360
2937.772074 0.9360 0.9360 0.9360 0.9360 0.9360
2942.885308 0.9358 0.9353 0.9350 0.9350 0.9350
2947.998543 0.9350 0.9350 0.9350 0.9350 0.9350
2953.111778 0.9350 0.9350 0.9346 0.9336 0.9330
2958.225012 0.9330 0.9330 0.9330 0.9330 0.9330
2963.338247 0.9330 0.9330 0.9330 0.9330 0.9330
2968.451482 0.9330 0.9330 0.9330 0.9330 0.9330
2973.564716 0.9336 0.9346 0.9350 0.9350 0.9350
2978.677951 0.9350 0.9353 0.9358 0.9366 0.9377
2983.791186 0.9383 0.9388 0.9397 0.9407 0.9410
2988.904420 0.9410 0.9410 0.9410 0.9410 0.9410
2994.017655 0.9402 0.9392 0.9390 0.9390 0.9390
2999.130890 0.9390 0.9386 0.9381 0.9372 0.9362
3004.244124 0.9360 0.9360 0.9360 0.9360 0.9347
3009.357359 0.9332 0.9308 0.9283 0.9275 0.9270
3014.470594 0.9261 0.9250 0.9236 0.9220 0.9215
3019.583828 0.9210 0.9175 0.9140 0.9100 0.9060
3024.697063 0.9060 0.9059 0.9039 0.9018 0.8978
3029.810298 0.8939 0.8919 0.8899 0.8884 0.8870
3034.923532 0.8870 0.8867 0.8847 0.8796 0.8564
3040.036767 0.8370 0.8370 0.8438 0.8821 0.9133
3045.150002 0.9148 0.9165 0.9190 0.9218 0.9253
3050.263236 0.9285 0.9305 0.9325 0.9346 0.9363
3055.376471 0.9373 0.9382 0.9387 0.9393 0.9403
3060.489706 0.9413 0.9424 0.9432 0.9437 0.9440
3065.602940 0.9440 0.9440 0.9440 0.9440 0.9440
3070.716175 0.9440 0.9440 0.9440 0.9440 0.9440
3075.829410 0.9440 0.9440 0.9440 0.9445 0.9455
3080.942644 0.9460 0.9460 0.9460 0.9460 0.9463
3086.055879 0.9468 0.9470 0.9470 0.9470 0.9470
3091.169114 0.9470 0.9470 0.9470 0.9470 0.9477
3096.282348 0.9487 0.9490 0.9490 0.9490 0.9490
3101.395583 0.9483 0.9473 0.9470 0.9470 0.9470
3106.508818 0.9470 0.9470 0.9470 0.9470 0.9470
3111.622052 0.9470 0.9470 0.9470 0.9470 0.9470
3116.735287 0.9470 0.9470 0.9470 0.9470 0.9470
3121.848522 0.9470 0.9470 0.9470 0.9470 0.9470
3126.961756 0.9470 0.9470 0.9470 0.9470 0.9470
3132.074991 0.9470 0.9470 0.9470 0.9470 0.9480
3137.188226 0.9490 0.9490 0.9490 0.9490 0.9490
3142.301460 0.9490 0.9490 0.9490 0.9490 0.9490
3147.414695 0.9490 0.9490 0.9490 0.9490 0.9490
3152.527929 0.9490 0.9488 0.9478 0.9470 0.9470
3157.641164 0.9470 0.9470 0.9470 0.9470 0.9470
3162.754399 0.9470 0.9470 0.9470 0.9470 0.9470
3167.867633 0.9470 0.9470 0.9470 0.9470 0.9470
3172.980868 0.9470 0.9470 0.9470 0.9470 0.9470
3178.094103 0.9470 0.9470 0.9470 0.9470 0.9470
3183.207337 0.9470 0.9468 0.9463 0.9460 0.9460
3188.320572 0.9460 0.9460 0.9455 0.9445 0.9440
3193.433807 0.9440 0.9440 0.9440 0.9437 0.9432
3198.547041 0.9430 0.9430 0.9430 0.9430 0.9430
3203.660276 0.9430 0.9433 0.9438 0.9437 0.9432
3208.773511 0.9430 0.9430 0.9430 0.9430 0.9430
3213.886745 0.9430 0.9430 0.9430 0.9430 0.9430
3218.999980 0.9430 0.9430 0.9430 0.9430 0.9430
3224.113215 0.9430 0.9430 0.9430 0.9430 0.9430
3229.226449 0.9430 0.9430 0.9430 0.9430 0.9430
3234.339684 0.9430 0.9430 0.9430 0.9430 0.9430
3239.452919 0.9430 0.9430 0.9430 0.9430 0.9430
3244.566153 0.9430 0.9430 0.9430 0.9430 0.9430
3249.679388 0.9430 0.9430 0.9435 0.9440 0.9440
3254.792623 0.9440 0.9440 0.9440 0.9440 0.9440
3259.905857 0.9440 0.9440 0.9440 0.9440 0.9440
3265.019092 0.9440 0.9440 0.9440 0.9440 0.9440
3270.132327 0.9440 0.9440 0.9440 0.9440 0.9440
3275.245561 0.9439 0.9434 0.9427 0.9417 0.9407
3280.358796 0.9397 0.9390 0.9390 0.9390 0.9390
3285.472031 0.9390 0.9390 0.9388 0.9383 0.9380
3290.585265 0.9380 0.9380 0.9380 0.9380 0.9380
3295.698500 0.9380 0.9380 0.9380 0.9380 0.9380
3300.811735 0.9380 0.9380 0.9380 0.9375 0.9365
3305.924969 0.9360 0.9360 0.9360 0.9360 0.9360
3311.038204 0.9360 0.9360 0.9360 0.9360 0.9360
3316.151439 0.9360 0.9360 0.9360 0.9360 0.9360
3321.264673 0.9360 0.9360 0.9360 0.9360 0.9360
3326.377908 0.9360 0.9360 0.9360 0.9360 0.9360
3331.491143 0.9360 0.9360 0.9360 0.9360 0.9360
3336.604377 0.9360 0.9360 0.9360 0.9360 0.9360
3341.717612 0.9360 0.9360 0.9360 0.9360 0.9360
3346.830847 0.9360 0.9360 0.9360 0.9360 0.9369
3351.944081 0.9379 0.9380 0.9380 0.9380 0.9380
3357.057316 0.9380 0.9380 0.9380 0.9380 0.9370
3362.170551 0.9360 0.9360 0.9360 0.9360 0.9359
3367.283785 0.9344 0.9330 0.9330 0.9330 0.9325
3372.397020 0.9320 0.9320 0.9319 0.9309 0.9300
3377.510255 0.9300 0.9298 0.9288 0.9280 0.9280
3382.623489 0.9279 0.9274 0.9270 0.9270 0.9268
3387.736724 0.9258 0.9250 0.9250 0.9250 0.9250
3392.849959 0.9249 0.9244 0.9240 0.9240 0.9240
3397.963193 0.9240 0.9240 0.9240 0.9237 0.9226
3403.076428 0.9220 0.9220 0.9220 0.9220 0.9220
3408.189662 0.9220 0.9220 0.9220 0.9220 0.9220
3413.302897 0.9220 0.9220 0.9220 0.9220 0.9220
3418.416132 0.9220 0.9225 0.9235 0.9240 0.9240
3423.529366 0.9243 0.9248 0.9250 0.9250 0.9250
3428.642601 0.9250 0.9256 0.9266 0.9264 0.9254
3433.755836 0.9250 0.9250 0.9250 0.9250 0.9250
3438.869070 0.9250 0.9257 0.9267 0.9270 0.9270
3443.982305 0.9270 0.9270 0.9274 0.9279 0.9288
3449.095540 0.9298 0.9300 0.9300 0.9292 0.9282
3454.208774 0.9288 0.9298 0.9300 0.9300 0.9300
3459.322009 0.9300 0.9300 0.9300 0.9300 0.9300
3464.435244 0.9300 0.9300 0.9300 0.9300 0.9309
3469.548478 0.9319 0.9320 0.9320 0.9320 0.9320
3474.661713 0.9320 0.9320 0.9320 0.9320 0.9320
3479.774948 0.9320 0.9320 0.9320 0.9320 0.9320
3484.888182 0.9320 0.9320 0.9325 0.9330 0.9330
3490.001417 0.9331 0.9341 0.9350 0.9350 0.9351
3495.114652 0.9356 0.9360 0.9360 0.9362 0.9372
3500.227886 0.9381 0.9386 0.9390 0.9390 0.9390
3505.341121 0.9390 0.9390 0.9390 0.9390 0.9390
3510.454356 0.9390 0.9390 0.9393 0.9403 0.9410
3515.567590 0.9410 0.9410 0.9410 0.9410 0.9410
3520.680825 0.9410 0.9410 0.9410 0.9410 0.9414
3525.794060 0.9424 0.9430 0.9430 0.9430 0.9430
3530.907294 0.9432 0.9437 0.9440 0.9440 0.9440
3536.020529 0.9440 0.9440 0.9440 0.9446 0.9456
3541.133764 0.9460 0.9460 0.9463 0.9468 0.9470
3546.246998 0.9470 0.9476 0.9486 0.9496 0.9507
3551.360233 0.9513 0.9518 0.9520 0.9520 0.9520
3556.473468 0.9520 0.9520 0.9520 0.9527 0.9538
3561.586702 0.9540 0.9540 0.9540 0.9540 0.9540
3566.699937 0.9540 0.9540 0.9540 0.9540 0.9540
3571.813172 0.9540 0.9540 0.9544 0.9549 0.9550
3576.926406 0.9550 0.9559 0.9569 0.9575 0.9580
3582.039641 0.9589 0.9600 0.9600 0.9600 0.9600
3587.152876 0.9600 0.9600 0.9600 0.9600 0.9600
3592.266110 0.9600 0.9600 0.9600 0.9600 0.9600
3597.379345 0.9601 0.9611 0.9620 0.9626 0.9630
3602.492580 0.9630 0.9630 0.9630 0.9631 0.9642
3607.605814 0.9650 0.9650 0.9650 0.9650 0.9650
3612.719049 0.9650 0.9650 0.9650 0.9650 0.9650
3617.832284 0.9648 0.9637 0.9630 0.9630 0.9630
3622.945518 0.9630 0.9633 0.9643 0.9650 0.9650
3628.058753 0.9650 0.9650 0.9650 0.9650 0.9650
3633.171988 0.9650 0.9652 0.9657 0.9660 0.9660
3638.285222 0.9660 0.9660 0.9660 0.9660 0.9665
3643.398457 0.9675 0.9680 0.9680 0.9680 0.9680
3648.511692 0.9680 0.9680 0.9672 0.9657 0.9650
3653.624926 0.9650 0.9650 0.9650 0.9650 0.9650
3658.738161 0.9653 0.9658 0.9660 0.9660 0.9660
3663.851395 0.9660 0.9660 0.9660 0.9667 0.9677
3668.964630 0.9673 0.9663 0.9656 0.9651 0.9650
3674.077865 0.9650 0.9650 0.9650 0.9650 0.9650
3679.191099 0.9650 0.9650 0.9654 0.9659 0.9668
3684.304334 0.9678 0.9680 0.9680 0.9680 0.9680
3689.417569 0.9671 0.9661 0.9660 0.9660 0.9660
3694.530803 0.9660 0.9660 0.9660 0.9660 0.9660
3699.644038 0.9670 0.9680 0.9685 0.9690 0.9690
3704.757273 0.9690 0.9690 0.9690 0.9690 0.9690
3709.870507 0.9690 0.9690 0.9690 0.9690 0.9690
3714.983742 0.9690 0.9690 0.9691 0.9701 0.9709
3720.096977 0.9699 0.9690 0.9690 0.9690 0.9690
3725.210211 0.9690 0.9690 0.9690 0.9690 0.9690
3730.323446 0.9690 0.9690 0.9690 0.9690 0.9690
3735.436681 0.9690 0.9690 0.9690 0.9690 0.9688
3740.549915 0.9683 0.9680 0.9680 0.9680 0.9680
3745.663150 0.9680 0.9680 0.9680 0.9680 0.9680
3750.776385 0.9680 0.9676 0.9666 0.9660 0.9660
3755.889619 0.9658 0.9653 0.9650 0.9650 0.9650
3761.002854 0.9650 0.9650 0.9650 0.9650 0.9650
3766.116089 0.9644 0.9634 0.9630 0.9630 0.9630
3771.229323 0.9630 0.9627 0.9622 0.9620 0.9620
3776.342558 0.9623 0.9628 0.9646 0.9672 0.9683
3781.455793 0.9688 0.9697 0.9707 0.9710 0.9710
3786.569027 0.9717 0.9728 0.9730 0.9730 0.9734
3791.682262 0.9739 0.9740 0.9740 0.9740 0.9740
3796.795497 0.9740 0.9740 0.9740 0.9740
##END=
