##TITLE=Propane, 2-iodo-
##JCAMP-DX=4.24
##DATA TYPE=INFRARED SPECTRUM
##CLASS=COBLENTZ
##ORIGIN=DOW CHEMICAL COMPANY
##OWNER=Copyright (C) 1987 by the Coblentz Society
Collection (C) 2018 copyright by the U.S. Secretary of Commerce
on behalf of the United States of America. All rights reserved.
##DATE=1964
##NAMES=2-iodopropane
##CAS REGISTRY NO=75-30-9
##MOLFORM=C3 H7 I
##SOURCE REFERENCE=COBLENTZ NO. 8842
##$NIST SOURCE=COBLENTZ
##$NIST IMAGE=cob8842
##SPECTROMETER/DATA SYSTEM=DOW KBr FOREPRISM-GRATING
##INSTRUMENT PARAMETERS=GRATING CHANGED AT 5.0, 7.5, 15.0 MICRON
##STATE=GAS (40 mmHg, N2 ADDED, TOTAL PRESSURE 600 mmHg)
##PATH LENGTH=5 CM
$$ SPECTRAL CONTAMINATION DUE TO CS2 AROUND 1543 AND 1527 CM^-^1
##SAMPLING PROCEDURE=TRANSMISSION
##RESOLUTION=2
##DATA PROCESSING=DIGITIZED BY COBLENTZ SOCIETY (BATCH II) FROM HARD COPY
##XUNITS=1/CM
##YUNITS=TRANSMITTANCE
##XFACTOR=1.0
##YFACTOR=1
##FIRSTX=457
##LASTX=3796
##FIRSTY=0.849
##MAXX=3796
##MINX=457
##MAXY=0.8877
##MINY=0.1294
##NPOINTS=3340
##XYDATA=(X++(Y..Y))
457.000000 0.8490 0.8486 0.8489 0.8485 0.8481
462.000000 0.8476 0.8472 0.8468 0.8463 0.8455
467.000000 0.8446 0.8438 0.8429 0.8417 0.8400
472.000000 0.8384 0.8362 0.8338 0.8313 0.8289
477.000000 0.8254 0.8214 0.8175 0.8114 0.8050
482.000000 0.7986 0.7881 0.7776 0.7667 0.7558
487.000000 0.7327 0.7213 0.7105 0.6999 0.6876
492.000000 0.6715 0.6478 0.6351 0.6280 0.6222
497.000000 0.6181 0.6145 0.6112 0.6089 0.6066
502.000000 0.6054 0.6046 0.6047 0.6037 0.6059
507.000000 0.6069 0.6083 0.6101 0.6129 0.6160
512.000000 0.6370 0.6694 0.7019 0.7343 0.7668
517.000000 0.7933 0.8064 0.8141 0.8189 0.8214
522.000000 0.8236 0.8255 0.8270 0.8279 0.8285
527.000000 0.8291 0.8297 0.8303 0.8308 0.8312
532.000000 0.8317 0.8321 0.8325 0.8331 0.8337
537.000000 0.8343 0.8349 0.8355 0.8361 0.8367
542.000000 0.8373 0.8380 0.8386 0.8392 0.8399
547.000000 0.8405 0.8411 0.8417 0.8423 0.8428
552.000000 0.8434 0.8439 0.8445 0.8450 0.8454
557.000000 0.8458 0.8462 0.8466 0.8469 0.8473
562.000000 0.8477 0.8481 0.8485 0.8489 0.8493
567.000000 0.8497 0.8501 0.8505 0.8509 0.8513
572.000000 0.8517 0.8522 0.8526 0.8530 0.8535
577.000000 0.8539 0.8543 0.8548 0.8552 0.8556
582.000000 0.8560 0.8565 0.8568 0.8570 0.8573
587.000000 0.8575 0.8577 0.8580 0.8582 0.8584
592.000000 0.8587 0.8589 0.8592 0.8594 0.8596
597.000000 0.8599 0.8601 0.8604 0.8606 0.8609
602.000000 0.8611 0.8614 0.8616 0.8619 0.8621
607.000000 0.8624 0.8626 0.8629 0.8630 0.8631
612.000000 0.8632 0.8634 0.8635 0.8636 0.8637
617.000000 0.8638 0.8639 0.8640 0.8641 0.8643
622.000000 0.8644 0.8645 0.8646 0.8647 0.8648
627.000000 0.8649 0.8651 0.8652 0.8654 0.8656
632.000000 0.8657 0.8659 0.8660 0.8662 0.8663
637.000000 0.8665 0.8666 0.8668 0.8669 0.8671
642.000000 0.8673 0.8674 0.8674 0.8675 0.8676
647.000000 0.8677 0.8677 0.8678 0.8679 0.8680
652.000000 0.8680 0.8681 0.8682 0.8684 0.8686
657.000000 0.8687 0.8689 0.8691 0.8693 0.8694
662.000000 0.8696 0.8698 0.8698 0.8698 0.8698
667.000000 0.8698 0.8698 0.8698 0.8698 0.8698
672.000000 0.8698 0.8698 0.8698 0.8698 0.8698
677.000000 0.8698 0.8698 0.8698 0.8698 0.8698
682.000000 0.8698 0.8699 0.8699 0.8699 0.8699
687.000000 0.8699 0.8699 0.8699 0.8699 0.8699
692.000000 0.8699 0.8699 0.8699 0.8699 0.8699
697.000000 0.8699 0.8699 0.8698 0.8697 0.8696
702.000000 0.8694 0.8693 0.8691 0.8687 0.8684
707.000000 0.8681 0.8677 0.8672 0.8665 0.8659
712.000000 0.8650 0.8639 0.8630 0.8631 0.8642
717.000000 0.8663 0.8687 0.8714 0.8747 0.8781
722.000000 0.8842 0.8857 0.8849 0.8824 0.8809
727.000000 0.8773 0.8728 0.8707 0.8703 0.8701
732.000000 0.8701 0.8701 0.8701 0.8701 0.8700
737.000000 0.8699 0.8698 0.8697 0.8696 0.8695
742.000000 0.8694 0.8693 0.8692 0.8691 0.8690
747.000000 0.8689 0.8689 0.8688 0.8687 0.8686
752.000000 0.8682 0.8677 0.8672 0.8667 0.8661
757.000000 0.8656 0.8651 0.8646 0.8639 0.8632
762.000000 0.8625 0.8617 0.8610 0.8602 0.8595
767.000000 0.8588 0.8582 0.8576 0.8569 0.8563
772.000000 0.8557 0.8551 0.8549 0.8551 0.8555
777.000000 0.8564 0.8574 0.8583 0.8591 0.8599
782.000000 0.8607 0.8616 0.8623 0.8629 0.8633
787.000000 0.8632 0.8630 0.8622 0.8612 0.8600
792.000000 0.8585 0.8570 0.8561 0.8555 0.8549
797.000000 0.8545 0.8545 0.8557 0.8576 0.8594
802.000000 0.8613 0.8630 0.8643 0.8650 0.8658
807.000000 0.8662 0.8667 0.8671 0.8675 0.8677
812.000000 0.8677 0.8676 0.8676 0.8675 0.8675
817.000000 0.8674 0.8674 0.8673 0.8673 0.8672
822.000000 0.8671 0.8671 0.8669 0.8666 0.8662
827.000000 0.8659 0.8656 0.8652 0.8648 0.8643
832.000000 0.8639 0.8634 0.8630 0.8626 0.8622
837.000000 0.8626 0.8638 0.8659 0.8677 0.8693
842.000000 0.8702 0.8707 0.8712 0.8714 0.8714
847.000000 0.8714 0.8712 0.8708 0.8704 0.8700
852.000000 0.8696 0.8687 0.8677 0.8666 0.8644
857.000000 0.8621 0.8594 0.8557 0.8520 0.8482
862.000000 0.8442 0.8367 0.8261 0.8152 0.8044
867.000000 0.7935 0.7826 0.7718 0.7609 0.7501
872.000000 0.7392 0.7283 0.7181 0.7159 0.7155
877.000000 0.7145 0.7135 0.7116 0.7089 0.7073
882.000000 0.7191 0.7356 0.7340 0.7291 0.7227
887.000000 0.7204 0.7223 0.7201 0.7389 0.7608
892.000000 0.8012 0.8296 0.8394 0.8455 0.8509
897.000000 0.8537 0.8560 0.8577 0.8591 0.8604
902.000000 0.8612 0.8621 0.8630 0.8637 0.8640
907.000000 0.8643 0.8670 0.8643 0.8641 0.8637
912.000000 0.8634 0.8630 0.8624 0.8616 0.8608
917.000000 0.8599 0.8590 0.8580 0.8571 0.8561
922.000000 0.8552 0.8542 0.8533 0.8523 0.8515
927.000000 0.8509 0.8504 0.8501 0.8501 0.8501
932.000000 0.8500 0.8491 0.8482 0.8473 0.8464
937.000000 0.8457 0.8453 0.8449 0.8471 0.8462
942.000000 0.8483 0.8506 0.8532 0.8558 0.8584
947.000000 0.8606 0.8617 0.8628 0.8639 0.8649
952.000000 0.8659 0.8667 0.8672 0.8677 0.8681
957.000000 0.8686 0.8691 0.8696 0.8702 0.8707
962.000000 0.8712 0.8718 0.8723 0.8728 0.8732
967.000000 0.8736 0.8741 0.8745 0.8750 0.8753
972.000000 0.8757 0.8739 0.8763 0.8766 0.8769
977.000000 0.8773 0.8774 0.8773 0.8772 0.8772
982.000000 0.8771 0.8770 0.8769 0.8768 0.8767
987.000000 0.8764 0.8762 0.8759 0.8756 0.8754
992.000000 0.8751 0.8748 0.8746 0.8743 0.8739
997.000000 0.8731 0.8722 0.8713 0.8705 0.8692
1002.000000 0.8677 0.8661 0.8635 0.8609 0.8575
1007.000000 0.8540 0.8485 0.8427 0.8298 0.8159
1012.000000 0.8020 0.7882 0.7743 0.7566 0.7503
1017.000000 0.7484 0.7482 0.7479 0.7488 0.7477
1022.000000 0.7460 0.7441 0.7433 0.7465 0.7535
1027.000000 0.7605 0.7623 0.7566 0.7500 0.7425
1032.000000 0.7463 0.7656 0.7850 0.8043 0.8195
1037.000000 0.8360 0.8444 0.8547 0.8655 0.8722
1042.000000 0.8753 0.8779 0.8791 0.8793 0.8793
1047.000000 0.8790 0.8786 0.8781 0.8777 0.8772
1052.000000 0.8768 0.8764 0.8760 0.8755 0.8752
1057.000000 0.8749 0.8746 0.8743 0.8742 0.8741
1062.000000 0.8740 0.8739 0.8738 0.8737 0.8740
1067.000000 0.8736 0.8736 0.8736 0.8736 0.8736
1072.000000 0.8736 0.8739 0.8741 0.8744 0.8747
1077.000000 0.8750 0.8753 0.8757 0.8761 0.8764
1082.000000 0.8768 0.8772 0.8776 0.8779 0.8783
1087.000000 0.8786 0.8788 0.8788 0.8788 0.8788
1092.000000 0.8782 0.8775 0.8769 0.8763 0.8752
1097.000000 0.8741 0.8725 0.8710 0.8694 0.8678
1102.000000 0.8663 0.8646 0.8622 0.8598 0.8574
1107.000000 0.8550 0.8526 0.8499 0.8467 0.8436
1112.000000 0.8404 0.8373 0.8337 0.8301 0.8265
1117.000000 0.8229 0.8191 0.8141 0.8091 0.8041
1122.000000 0.7986 0.7929 0.7872 0.7811 0.7748
1127.000000 0.7684 0.7615 0.7538 0.7462 0.7370
1132.000000 0.7237 0.7000 0.6405 0.5916 0.5188
1137.000000 0.4641 0.4093 0.3546 0.2998 0.2450
1142.000000 0.1898 0.1767 0.1658 0.1624 0.1627
1147.000000 0.1626 0.1736 0.1896 0.1927 0.1771
1152.000000 0.1619 0.1551 0.1699 0.1848 0.1903
1157.000000 0.1908 0.1681 0.1570 0.1547 0.2310
1162.000000 0.2886 0.3462 0.4039 0.4615 0.5191
1167.000000 0.5767 0.6343 0.6745 0.7070 0.7419
1172.000000 0.7707 0.7760 0.7796 0.7806 0.7813
1177.000000 0.7815 0.7812 0.7804 0.7793 0.7774
1182.000000 0.7731 0.7668 0.7606 0.7554 0.7503
1187.000000 0.7457 0.7412 0.7367 0.7140 0.6311
1192.000000 0.5738 0.5166 0.4593 0.4021 0.3448
1197.000000 0.2875 0.2487 0.2188 0.2076 0.1964
1202.000000 0.1995 0.2024 0.2079 0.2146 0.1910
1207.000000 0.1294 0.1698 0.2519 0.2518 0.2160
1212.000000 0.1647 0.1719 0.1763 0.1862 0.2119
1217.000000 0.2337 0.2869 0.3500 0.4130 0.4761
1222.000000 0.5392 0.6022 0.6653 0.7284 0.7730
1227.000000 0.7856 0.7958 0.8088 0.8413 0.8535
1232.000000 0.8577 0.8610 0.8628 0.8644 0.8656
1237.000000 0.8667 0.8679 0.8682 0.8686 0.8689
1242.000000 0.8693 0.8691 0.8684 0.8678 0.8672
1247.000000 0.8665 0.8660 0.8654 0.8649 0.8644
1252.000000 0.8639 0.8635 0.8630 0.8626 0.8621
1257.000000 0.8616 0.8610 0.8605 0.8599 0.8594
1262.000000 0.8588 0.8583 0.8582 0.8581 0.8580
1267.000000 0.8579 0.8583 0.8584 0.8587 0.8589
1272.000000 0.8592 0.8598 0.8603 0.8608 0.8613
1277.000000 0.8618 0.8623 0.8627 0.8632 0.8636
1282.000000 0.8640 0.8645 0.8646 0.8647 0.8648
1287.000000 0.8649 0.8649 0.8649 0.8645 0.8641
1292.000000 0.8636 0.8632 0.8628 0.8623 0.8617
1297.000000 0.8611 0.8605 0.8598 0.8592 0.8586
1302.000000 0.8580 0.8574 0.8567 0.8560 0.8553
1307.000000 0.8546 0.8538 0.8531 0.8524 0.8516
1312.000000 0.8509 0.8503 0.8497 0.8491 0.8485
1317.000000 0.8479 0.8473 0.8467 0.8461 0.8455
1322.000000 0.8453 0.8451 0.8449 0.8448 0.8446
1327.000000 0.8445 0.8443 0.8441 0.8440 0.8438
1332.000000 0.8436 0.8434 0.8432 0.8430 0.8428
1337.000000 0.8419 0.8410 0.8401 0.8392 0.8378
1342.000000 0.8362 0.8346 0.8327 0.8301 0.8275
1347.000000 0.8232 0.8183 0.8133 0.8082 0.8005
1352.000000 0.7925 0.7810 0.7709 0.7618 0.7539
1357.000000 0.7463 0.7390 0.7311 0.7201 0.6977
1362.000000 0.6752 0.6528 0.6304 0.6080 0.5855
1367.000000 0.5631 0.5407 0.5183 0.4958 0.4860
1372.000000 0.4839 0.4842 0.4850 0.5039 0.5149
1377.000000 0.5260 0.5371 0.5478 0.5490 0.4978
1382.000000 0.4216 0.4210 0.4208 0.4352 0.4463
1387.000000 0.4574 0.4685 0.4796 0.4907 0.4929
1392.000000 0.4417 0.4073 0.4061 0.5236 0.5668
1397.000000 0.5920 0.6044 0.6203 0.6299 0.6394
1402.000000 0.6525 0.6685 0.6957 0.7233 0.7342
1407.000000 0.7450 0.7508 0.7559 0.7610 0.7660
1412.000000 0.7684 0.7708 0.7732 0.7755 0.7779
1417.000000 0.7802 0.7831 0.7864 0.7896 0.7926
1422.000000 0.7943 0.7928 0.7951 0.7943 0.7933
1427.000000 0.7923 0.7906 0.7887 0.7862 0.7819
1432.000000 0.7758 0.7693 0.7625 0.7529 0.7389
1437.000000 0.7273 0.7164 0.7073 0.6982 0.6881
1442.000000 0.6779 0.6525 0.6409 0.6318 0.6231
1447.000000 0.6160 0.6102 0.6044 0.5986 0.5928
1452.000000 0.5872 0.5815 0.5758 0.5720 0.5685
1457.000000 0.5651 0.5570 0.5284 0.4861 0.4675
1462.000000 0.4668 0.4904 0.5273 0.5600 0.5609
1467.000000 0.5622 0.5433 0.5180 0.4926 0.4672
1472.000000 0.4669 0.6291 0.6325 0.6359 0.6387
1477.000000 0.6415 0.6444 0.6477 0.6538 0.6638
1482.000000 0.6784 0.6923 0.7058 0.7172 0.7285
1487.000000 0.7372 0.7455 0.7538 0.7635 0.7734
1492.000000 0.7832 0.7921 0.8011 0.8104 0.8199
1497.000000 0.8305 0.8386 0.8418 0.8450 0.8472
1502.000000 0.8488 0.8496 0.8500 0.8517 0.8505
1507.000000 0.8504 0.8503 0.8501 0.8496 0.8491
1512.000000 0.8485 0.8477 0.8469 0.8460 0.8450
1517.000000 0.8437 0.8424 0.8412 0.8399 0.8382
1522.000000 0.8366 0.8349 0.8332 0.8315 0.8297
1527.000000 0.8274 0.8293 0.8297 0.8306 0.8317
1532.000000 0.8335 0.8352 0.8366 0.8378 0.8385
1537.000000 0.8414 0.8378 0.8357 0.8321 0.8278
1542.000000 0.8259 0.8263 0.8248 0.8308 0.8348
1547.000000 0.8388 0.8428 0.8468 0.8508 0.8548
1552.000000 0.8589 0.8629 0.8633 0.8636 0.8626
1557.000000 0.8623 0.8620 0.8617 0.8616 0.8616
1562.000000 0.8618 0.8619 0.8620 0.8621 0.8621
1567.000000 0.8621 0.8621 0.8621 0.8621 0.8621
1572.000000 0.8621 0.8620 0.8618 0.8615 0.8612
1577.000000 0.8610 0.8609 0.8608 0.8607 0.8606
1582.000000 0.8605 0.8603 0.8602 0.8601 0.8600
1587.000000 0.8599 0.8597 0.8596 0.8594 0.8593
1592.000000 0.8591 0.8590 0.8588 0.8587 0.8586
1597.000000 0.8584 0.8583 0.8581 0.8580 0.8578
1602.000000 0.8575 0.8573 0.8571 0.8569 0.8567
1607.000000 0.8565 0.8563 0.8561 0.8558 0.8556
1612.000000 0.8554 0.8552 0.8551 0.8549 0.8548
1617.000000 0.8546 0.8545 0.8543 0.8542 0.8540
1622.000000 0.8539 0.8537 0.8536 0.8534 0.8534
1627.000000 0.8534 0.8534 0.8533 0.8533 0.8533
1632.000000 0.8533 0.8533 0.8532 0.8532 0.8532
1637.000000 0.8532 0.8532 0.8531 0.8531 0.8531
1642.000000 0.8530 0.8530 0.8530 0.8529 0.8529
1647.000000 0.8529 0.8528 0.8528 0.8528 0.8527
1652.000000 0.8527 0.8527 0.8526 0.8526 0.8526
1657.000000 0.8525 0.8525 0.8525 0.8524 0.8523
1662.000000 0.8521 0.8520 0.8519 0.8517 0.8516
1667.000000 0.8515 0.8513 0.8512 0.8511 0.8509
1672.000000 0.8508 0.8507 0.8505 0.8504 0.8502
1677.000000 0.8500 0.8498 0.8497 0.8495 0.8493
1682.000000 0.8492 0.8490 0.8488 0.8487 0.8485
1687.000000 0.8484 0.8482 0.8480 0.8479 0.8477
1692.000000 0.8475 0.8474 0.8472 0.8470 0.8469
1697.000000 0.8467 0.8466 0.8465 0.8464 0.8462
1702.000000 0.8461 0.8460 0.8459 0.8457 0.8456
1707.000000 0.8455 0.8454 0.8453 0.8454 0.8454
1712.000000 0.8454 0.8455 0.8455 0.8455 0.8456
1717.000000 0.8456 0.8456 0.8457 0.8457 0.8457
1722.000000 0.8458 0.8460 0.8461 0.8463 0.8464
1727.000000 0.8465 0.8467 0.8468 0.8470 0.8471
1732.000000 0.8472 0.8474 0.8475 0.8477 0.8478
1737.000000 0.8480 0.8482 0.8484 0.8486 0.8488
1742.000000 0.8490 0.8492 0.8494 0.8496 0.8498
1747.000000 0.8500 0.8501 0.8503 0.8505 0.8507
1752.000000 0.8509 0.8512 0.8515 0.8518 0.8520
1757.000000 0.8523 0.8526 0.8529 0.8532 0.8534
1762.000000 0.8537 0.8540 0.8543 0.8545 0.8547
1767.000000 0.8548 0.8549 0.8551 0.8552 0.8554
1772.000000 0.8555 0.8556 0.8558 0.8559 0.8561
1777.000000 0.8562 0.8563 0.8564 0.8565 0.8566
1782.000000 0.8567 0.8567 0.8568 0.8569 0.8570
1787.000000 0.8571 0.8572 0.8573 0.8574 0.8575
1792.000000 0.8576 0.8577 0.8578 0.8579 0.8580
1797.000000 0.8581 0.8582 0.8583 0.8584 0.8585
1802.000000 0.8585 0.8586 0.8586 0.8586 0.8586
1807.000000 0.8587 0.8587 0.8587 0.8587 0.8588
1812.000000 0.8588 0.8588 0.8588 0.8588 0.8589
1817.000000 0.8589 0.8589 0.8589 0.8590 0.8590
1822.000000 0.8590 0.8590 0.8589 0.8588 0.8588
1827.000000 0.8587 0.8586 0.8585 0.8584 0.8584
1832.000000 0.8583 0.8582 0.8581 0.8581 0.8580
1837.000000 0.8579 0.8578 0.8577 0.8577 0.8576
1842.000000 0.8575 0.8575 0.8575 0.8575 0.8574
1847.000000 0.8574 0.8574 0.8573 0.8573 0.8573
1852.000000 0.8572 0.8573 0.8574 0.8575 0.8576
1857.000000 0.8577 0.8578 0.8579 0.8580 0.8581
1862.000000 0.8582 0.8583 0.8584 0.8583 0.8581
1867.000000 0.8578 0.8576 0.8574 0.8572 0.8570
1872.000000 0.8568 0.8566 0.8564 0.8562 0.8560
1877.000000 0.8557 0.8552 0.8548 0.8543 0.8538
1882.000000 0.8533 0.8529 0.8524 0.8519 0.8517
1887.000000 0.8515 0.8512 0.8510 0.8507 0.8505
1892.000000 0.8503 0.8501 0.8504 0.8506 0.8508
1897.000000 0.8511 0.8513 0.8516 0.8519 0.8523
1902.000000 0.8526 0.8529 0.8533 0.8537 0.8542
1907.000000 0.8548 0.8553 0.8559 0.8565 0.8571
1912.000000 0.8578 0.8585 0.8592 0.8599 0.8606
1917.000000 0.8611 0.8615 0.8620 0.8623 0.8625
1922.000000 0.8627 0.8629 0.8630 0.8631 0.8632
1927.000000 0.8633 0.8634 0.8635 0.8636 0.8637
1932.000000 0.8638 0.8639 0.8640 0.8640 0.8641
1937.000000 0.8642 0.8642 0.8642 0.8642 0.8642
1942.000000 0.8642 0.8642 0.8643 0.8643 0.8643
1947.000000 0.8643 0.8643 0.8643 0.8643 0.8642
1952.000000 0.8642 0.8641 0.8641 0.8641 0.8640
1957.000000 0.8640 0.8639 0.8639 0.8639 0.8638
1962.000000 0.8638 0.8637 0.8637 0.8637 0.8636
1967.000000 0.8636 0.8637 0.8638 0.8639 0.8640
1972.000000 0.8640 0.8641 0.8642 0.8643 0.8644
1977.000000 0.8645 0.8646 0.8647 0.8648 0.8649
1982.000000 0.8650 0.8651 0.8651 0.8652 0.8653
1987.000000 0.8654 0.8655 0.8656 0.8657 0.8658
1992.000000 0.8659 0.8660 0.8661 0.8662 0.8663
1997.000000 0.8664 0.8665 0.8666 0.8667 0.8667
2002.000000 0.8667 0.8666 0.8665 0.8663 0.8662
2007.000000 0.8661 0.8660 0.8658 0.8657 0.8654
2012.000000 0.8652 0.8649 0.8646 0.8643 0.8641
2017.000000 0.8638 0.8636 0.8633 0.8630 0.8631
2022.000000 0.8633 0.8634 0.8635 0.8636 0.8638
2027.000000 0.8639 0.8641 0.8642 0.8643 0.8643
2032.000000 0.8644 0.8644 0.8645 0.8645 0.8646
2037.000000 0.8647 0.8648 0.8649 0.8650 0.8651
2042.000000 0.8652 0.8653 0.8655 0.8656 0.8657
2047.000000 0.8658 0.8660 0.8661 0.8662 0.8663
2052.000000 0.8665 0.8666 0.8667 0.8668 0.8670
2057.000000 0.8671 0.8672 0.8673 0.8674 0.8673
2062.000000 0.8673 0.8673 0.8673 0.8672 0.8672
2067.000000 0.8672 0.8672 0.8672 0.8672 0.8671
2072.000000 0.8671 0.8671 0.8671 0.8670 0.8670
2077.000000 0.8670 0.8670 0.8670 0.8670 0.8669
2082.000000 0.8669 0.8669 0.8669 0.8668 0.8668
2087.000000 0.8668 0.8668 0.8667 0.8667 0.8667
2092.000000 0.8667 0.8667 0.8667 0.8666 0.8666
2097.000000 0.8666 0.8666 0.8666 0.8666 0.8665
2102.000000 0.8665 0.8665 0.8665 0.8665 0.8665
2107.000000 0.8664 0.8664 0.8664 0.8664 0.8664
2112.000000 0.8664 0.8663 0.8662 0.8661 0.8661
2117.000000 0.8660 0.8659 0.8658 0.8657 0.8656
2122.000000 0.8656 0.8655 0.8654 0.8653 0.8653
2127.000000 0.8652 0.8651 0.8650 0.8649 0.8648
2132.000000 0.8648 0.8647 0.8646 0.8645 0.8644
2137.000000 0.8643 0.8643 0.8642 0.8641 0.8640
2142.000000 0.8639 0.8638 0.8637 0.8636 0.8635
2147.000000 0.8634 0.8634 0.8633 0.8632 0.8631
2152.000000 0.8630 0.8629 0.8628 0.8627 0.8626
2157.000000 0.8624 0.8623 0.8621 0.8620 0.8618
2162.000000 0.8617 0.8615 0.8613 0.8612 0.8611
2167.000000 0.8611 0.8611 0.8611 0.8612 0.8612
2172.000000 0.8612 0.8612 0.8613 0.8613 0.8614
2177.000000 0.8614 0.8614 0.8615 0.8617 0.8620
2182.000000 0.8623 0.8626 0.8629 0.8632 0.8635
2187.000000 0.8637 0.8640 0.8643 0.8646 0.8649
2192.000000 0.8652 0.8654 0.8657 0.8660 0.8663
2197.000000 0.8666 0.8669 0.8667 0.8666 0.8664
2202.000000 0.8663 0.8661 0.8659 0.8657 0.8656
2207.000000 0.8653 0.8650 0.8644 0.8639 0.8634
2212.000000 0.8629 0.8624 0.8619 0.8614 0.8610
2217.000000 0.8605 0.8601 0.8596 0.8592 0.8587
2222.000000 0.8583 0.8579 0.8576 0.8574 0.8573
2227.000000 0.8571 0.8570 0.8569 0.8568 0.8566
2232.000000 0.8565 0.8563 0.8562 0.8563 0.8565
2237.000000 0.8567 0.8569 0.8571 0.8573 0.8575
2242.000000 0.8577 0.8577 0.8578 0.8578 0.8579
2247.000000 0.8579 0.8580 0.8580 0.8581 0.8581
2252.000000 0.8581 0.8580 0.8579 0.8578 0.8577
2257.000000 0.8576 0.8575 0.8573 0.8572 0.8571
2262.000000 0.8571 0.8575 0.8579 0.8583 0.8587
2267.000000 0.8591 0.8596 0.8600 0.8604 0.8608
2272.000000 0.8613 0.8617 0.8621 0.8625 0.8630
2277.000000 0.8635 0.8641 0.8646 0.8652 0.8657
2282.000000 0.8662 0.8665 0.8669 0.8671 0.8673
2287.000000 0.8674 0.8676 0.8678 0.8680 0.8681
2292.000000 0.8683 0.8685 0.8687 0.8687 0.8687
2297.000000 0.8686 0.8686 0.8685 0.8685 0.8684
2302.000000 0.8684 0.8684 0.8684 0.8684 0.8685
2307.000000 0.8686 0.8687 0.8688 0.8690 0.8691
2312.000000 0.8692 0.8693 0.8695 0.8696 0.8697
2317.000000 0.8698 0.8700 0.8701 0.8702 0.8703
2322.000000 0.8705 0.8706 0.8707 0.8708 0.8710
2327.000000 0.8711 0.8713 0.8716 0.8719 0.8722
2332.000000 0.8725 0.8728 0.8731 0.8734 0.8737
2337.000000 0.8740 0.8744 0.8747 0.8751 0.8754
2342.000000 0.8758 0.8761 0.8765 0.8768 0.8772
2347.000000 0.8775 0.8778 0.8778 0.8779 0.8780
2352.000000 0.8781 0.8780 0.8780 0.8779 0.8778
2357.000000 0.8777 0.8776 0.8775 0.8774 0.8773
2362.000000 0.8772 0.8771 0.8770 0.8769 0.8768
2367.000000 0.8766 0.8765 0.8760 0.8756 0.8752
2372.000000 0.8748 0.8743 0.8739 0.8734 0.8730
2377.000000 0.8725 0.8721 0.8716 0.8711 0.8706
2382.000000 0.8701 0.8696 0.8691 0.8686 0.8681
2387.000000 0.8677 0.8673 0.8672 0.8671 0.8670
2392.000000 0.8669 0.8668 0.8667 0.8667 0.8668
2397.000000 0.8669 0.8671 0.8672 0.8674 0.8675
2402.000000 0.8677 0.8678 0.8679 0.8680 0.8681
2407.000000 0.8682 0.8683 0.8684 0.8685 0.8686
2412.000000 0.8687 0.8688 0.8690 0.8691 0.8693
2417.000000 0.8694 0.8695 0.8696 0.8698 0.8700
2422.000000 0.8702 0.8704 0.8706 0.8708 0.8710
2427.000000 0.8711 0.8712 0.8713 0.8714 0.8715
2432.000000 0.8716 0.8717 0.8718 0.8719 0.8721
2437.000000 0.8721 0.8722 0.8722 0.8722 0.8722
2442.000000 0.8722 0.8722 0.8722 0.8722 0.8722
2447.000000 0.8722 0.8722 0.8722 0.8722 0.8722
2452.000000 0.8722 0.8722 0.8722 0.8722 0.8722
2457.000000 0.8722 0.8722 0.8719 0.8717 0.8714
2462.000000 0.8712 0.8709 0.8706 0.8703 0.8700
2467.000000 0.8696 0.8693 0.8690 0.8687 0.8683
2472.000000 0.8680 0.8676 0.8673 0.8670 0.8667
2477.000000 0.8665 0.8663 0.8661 0.8660 0.8658
2482.000000 0.8657 0.8655 0.8654 0.8654 0.8654
2487.000000 0.8655 0.8656 0.8657 0.8658 0.8658
2492.000000 0.8659 0.8660 0.8661 0.8662 0.8663
2497.000000 0.8663 0.8664 0.8665 0.8666 0.8667
2502.000000 0.8668 0.8669 0.8670 0.8671 0.8673
2507.000000 0.8674 0.8676 0.8677 0.8679 0.8680
2512.000000 0.8682 0.8683 0.8685 0.8686 0.8688
2517.000000 0.8689 0.8690 0.8691 0.8693 0.8694
2522.000000 0.8696 0.8697 0.8699 0.8700 0.8701
2527.000000 0.8702 0.8704 0.8705 0.8707 0.8708
2532.000000 0.8709 0.8710 0.8712 0.8714 0.8716
2537.000000 0.8717 0.8719 0.8721 0.8723 0.8724
2542.000000 0.8726 0.8728 0.8730 0.8732 0.8734
2547.000000 0.8735 0.8737 0.8739 0.8741 0.8742
2552.000000 0.8744 0.8746 0.8748 0.8748 0.8748
2557.000000 0.8748 0.8749 0.8749 0.8750 0.8750
2562.000000 0.8751 0.8751 0.8751 0.8750 0.8749
2567.000000 0.8747 0.8745 0.8743 0.8741 0.8739
2572.000000 0.8737 0.8735 0.8733 0.8730 0.8728
2577.000000 0.8726 0.8724 0.8722 0.8720 0.8719
2582.000000 0.8718 0.8716 0.8715 0.8713 0.8712
2587.000000 0.8711 0.8710 0.8708 0.8707 0.8705
2592.000000 0.8704 0.8703 0.8702 0.8700 0.8699
2597.000000 0.8697 0.8696 0.8694 0.8693 0.8692
2602.000000 0.8691 0.8690 0.8689 0.8687 0.8686
2607.000000 0.8685 0.8684 0.8682 0.8681 0.8680
2612.000000 0.8679 0.8677 0.8676 0.8675 0.8674
2617.000000 0.8672 0.8671 0.8670 0.8670 0.8669
2622.000000 0.8668 0.8667 0.8667 0.8666 0.8665
2627.000000 0.8664 0.8664 0.8663 0.8662 0.8661
2632.000000 0.8661 0.8660 0.8659 0.8658 0.8658
2637.000000 0.8657 0.8657 0.8657 0.8658 0.8659
2642.000000 0.8660 0.8660 0.8661 0.8662 0.8663
2647.000000 0.8663 0.8664 0.8665 0.8667 0.8668
2652.000000 0.8670 0.8672 0.8674 0.8675 0.8677
2657.000000 0.8679 0.8681 0.8683 0.8685 0.8687
2662.000000 0.8690 0.8692 0.8694 0.8695 0.8697
2667.000000 0.8697 0.8698 0.8698 0.8699 0.8699
2672.000000 0.8700 0.8700 0.8701 0.8701 0.8702
2677.000000 0.8702 0.8703 0.8703 0.8704 0.8703
2682.000000 0.8703 0.8703 0.8703 0.8702 0.8702
2687.000000 0.8702 0.8702 0.8702 0.8702 0.8701
2692.000000 0.8701 0.8701 0.8701 0.8699 0.8697
2697.000000 0.8694 0.8692 0.8689 0.8687 0.8684
2702.000000 0.8682 0.8679 0.8677 0.8674 0.8672
2707.000000 0.8669 0.8667 0.8661 0.8655 0.8648
2712.000000 0.8642 0.8635 0.8629 0.8622 0.8616
2717.000000 0.8609 0.8603 0.8583 0.8564 0.8540
2722.000000 0.8517 0.8490 0.8463 0.8437 0.8411
2727.000000 0.8394 0.8378 0.8362 0.8346 0.8329
2732.000000 0.8312 0.8294 0.8277 0.8264 0.8248
2737.000000 0.8248 0.8246 0.8247 0.8249 0.8253
2742.000000 0.8257 0.8261 0.8266 0.8281 0.8296
2747.000000 0.8323 0.8351 0.8382 0.8413 0.8445
2752.000000 0.8478 0.8495 0.8512 0.8517 0.8523
2757.000000 0.8525 0.8528 0.8530 0.8532 0.8531
2762.000000 0.8530 0.8529 0.8529 0.8527 0.8525
2767.000000 0.8522 0.8520 0.8517 0.8514 0.8509
2772.000000 0.8505 0.8514 0.8524 0.8543 0.8563
2777.000000 0.8583 0.8604 0.8624 0.8645 0.8652
2782.000000 0.8659 0.8665 0.8671 0.8671 0.8672
2787.000000 0.8672 0.8652 0.8671 0.8670 0.8663
2792.000000 0.8657 0.8651 0.8645 0.8638 0.8632
2797.000000 0.8624 0.8617 0.8608 0.8600 0.8591
2802.000000 0.8583 0.8575 0.8568 0.8560 0.8552
2807.000000 0.8544 0.8537 0.8529 0.8521 0.8512
2812.000000 0.8504 0.8495 0.8486 0.8477 0.8468
2817.000000 0.8459 0.8450 0.8441 0.8432 0.8421
2822.000000 0.8410 0.8399 0.8388 0.8377 0.8367
2827.000000 0.8356 0.8345 0.8333 0.8321 0.8306
2832.000000 0.8292 0.8278 0.8264 0.8249 0.8235
2837.000000 0.8221 0.8207 0.8192 0.8178 0.8164
2842.000000 0.8150 0.8130 0.8111 0.8081 0.8051
2847.000000 0.8017 0.7984 0.7888 0.7792 0.7710
2852.000000 0.7628 0.7525 0.7423 0.7277 0.7132
2857.000000 0.6974 0.6817 0.6659 0.6501 0.6343
2862.000000 0.6185 0.6027 0.5870 0.5712 0.5554
2867.000000 0.5396 0.5239 0.5081 0.4923 0.4783
2872.000000 0.4643 0.4568 0.4494 0.4494 0.4475
2877.000000 0.4496 0.4498 0.4500 0.4503 0.4507
2882.000000 0.4512 0.4519 0.4526 0.4534 0.4542
2887.000000 0.4549 0.4557 0.4570 0.4584 0.4599
2892.000000 0.4614 0.4637 0.4660 0.4684 0.4708
2897.000000 0.4725 0.4743 0.4760 0.4777 0.4790
2902.000000 0.4804 0.4812 0.4820 0.4828 0.4840
2907.000000 0.4838 0.4840 0.4826 0.4812 0.4731
2912.000000 0.4650 0.4443 0.4237 0.4031 0.3825
2917.000000 0.3618 0.3412 0.3206 0.3000 0.2900
2922.000000 0.2800 0.2788 0.2776 0.2777 0.2768
2927.000000 0.2800 0.2822 0.2860 0.2899 0.2949
2932.000000 0.2999 0.3071 0.3144 0.3236 0.3328
2937.000000 0.3459 0.3591 0.3986 0.4382 0.4614
2942.000000 0.4846 0.5078 0.5311 0.5474 0.5637
2947.000000 0.6145 0.6654 0.6704 0.6754 0.6768
2952.000000 0.6758 0.6771 0.6760 0.6737 0.6714
2957.000000 0.6601 0.6489 0.6293 0.6097 0.5896
2962.000000 0.5696 0.5451 0.5207 0.4769 0.4331
2967.000000 0.3893 0.3455 0.3017 0.2580 0.2488
2972.000000 0.2397 0.2681 0.2965 0.3265 0.3565
2977.000000 0.3406 0.3247 0.3029 0.2811 0.2592
2982.000000 0.2208 0.2281 0.2188 0.2340 0.2493
2987.000000 0.2700 0.2907 0.3114 0.3322 0.3444
2992.000000 0.3552 0.2987 0.1867 0.2145 0.1882
2997.000000 0.2200 0.2518 0.2836 0.3154 0.3472
3002.000000 0.3791 0.4109 0.4427 0.4745 0.5063
3007.000000 0.5301 0.5540 0.5761 0.5983 0.6205
3012.000000 0.6427 0.6648 0.6870 0.7092 0.7314
3017.000000 0.7535 0.7757 0.8062 0.8367 0.8425
3022.000000 0.8483 0.8512 0.8542 0.8565 0.8588
3027.000000 0.8601 0.8614 0.8627 0.8641 0.8647
3032.000000 0.8653 0.8658 0.8664 0.8669 0.8675
3037.000000 0.8680 0.8685 0.8689 0.8694 0.8698
3042.000000 0.8702 0.8703 0.8705 0.8706 0.8708
3047.000000 0.8709 0.8711 0.8712 0.8714 0.8715
3052.000000 0.8717 0.8718 0.8720 0.8720 0.8720
3057.000000 0.8720 0.8720 0.8720 0.8698 0.8719
3062.000000 0.8719 0.8719 0.8719 0.8718 0.8718
3067.000000 0.8718 0.8718 0.8718 0.8718 0.8717
3072.000000 0.8717 0.8716 0.8716 0.8715 0.8715
3077.000000 0.8714 0.8714 0.8713 0.8713 0.8712
3082.000000 0.8712 0.8711 0.8711 0.8710 0.8710
3087.000000 0.8709 0.8709 0.8708 0.8708 0.8707
3092.000000 0.8707 0.8706 0.8706 0.8704 0.8702
3097.000000 0.8700 0.8699 0.8697 0.8696 0.8694
3102.000000 0.8693 0.8691 0.8690 0.8688 0.8687
3107.000000 0.8685 0.8684 0.8682 0.8680 0.8678
3112.000000 0.8677 0.8675 0.8674 0.8672 0.8671
3117.000000 0.8669 0.8668 0.8666 0.8665 0.8663
3122.000000 0.8661 0.8659 0.8658 0.8656 0.8655
3127.000000 0.8654 0.8653 0.8651 0.8650 0.8648
3132.000000 0.8647 0.8645 0.8644 0.8643 0.8642
3137.000000 0.8640 0.8639 0.8637 0.8636 0.8634
3142.000000 0.8633 0.8632 0.8631 0.8629 0.8628
3147.000000 0.8626 0.8625 0.8623 0.8622 0.8620
3152.000000 0.8619 0.8618 0.8617 0.8615 0.8614
3157.000000 0.8612 0.8611 0.8609 0.8607 0.8605
3162.000000 0.8604 0.8602 0.8601 0.8599 0.8598
3167.000000 0.8596 0.8595 0.8593 0.8592 0.8590
3172.000000 0.8588 0.8586 0.8585 0.8583 0.8582
3177.000000 0.8580 0.8579 0.8577 0.8576 0.8574
3182.000000 0.8572 0.8569 0.8566 0.8563 0.8560
3187.000000 0.8556 0.8553 0.8550 0.8547 0.8543
3192.000000 0.8540 0.8537 0.8534 0.8531 0.8528
3197.000000 0.8524 0.8521 0.8518 0.8515 0.8514
3202.000000 0.8513 0.8511 0.8510 0.8509 0.8508
3207.000000 0.8507 0.8488 0.8505 0.8504 0.8506
3212.000000 0.8508 0.8510 0.8512 0.8514 0.8517
3217.000000 0.8519 0.8522 0.8526 0.8531 0.8535
3222.000000 0.8539 0.8543 0.8548 0.8552 0.8557
3227.000000 0.8561 0.8565 0.8569 0.8574 0.8578
3232.000000 0.8582 0.8587 0.8592 0.8597 0.8603
3237.000000 0.8608 0.8613 0.8618 0.8623 0.8628
3242.000000 0.8633 0.8638 0.8643 0.8647 0.8652
3247.000000 0.8656 0.8661 0.8665 0.8670 0.8674
3252.000000 0.8679 0.8684 0.8689 0.8693 0.8698
3257.000000 0.8702 0.8707 0.8711 0.8716 0.8720
3262.000000 0.8725 0.8728 0.8732 0.8735 0.8739
3267.000000 0.8742 0.8746 0.8749 0.8753 0.8756
3272.000000 0.8760 0.8763 0.8767 0.8770 0.8774
3277.000000 0.8776 0.8778 0.8779 0.8780 0.8781
3282.000000 0.8782 0.8783 0.8784 0.8785 0.8786
3287.000000 0.8787 0.8788 0.8789 0.8790 0.8791
3292.000000 0.8792 0.8793 0.8794 0.8795 0.8796
3297.000000 0.8797 0.8798 0.8799 0.8800 0.8801
3302.000000 0.8802 0.8803 0.8804 0.8805 0.8806
3307.000000 0.8807 0.8809 0.8810 0.8811 0.8812
3312.000000 0.8814 0.8815 0.8816 0.8817 0.8818
3317.000000 0.8819 0.8821 0.8822 0.8823 0.8824
3322.000000 0.8826 0.8827 0.8828 0.8826 0.8824
3327.000000 0.8822 0.8820 0.8818 0.8817 0.8815
3332.000000 0.8813 0.8811 0.8809 0.8807 0.8805
3337.000000 0.8803 0.8802 0.8800 0.8799 0.8797
3342.000000 0.8796 0.8794 0.8792 0.8790 0.8789
3347.000000 0.8787 0.8786 0.8784 0.8783 0.8781
3352.000000 0.8779 0.8777 0.8776 0.8774 0.8773
3357.000000 0.8771 0.8770 0.8768 0.8766 0.8764
3362.000000 0.8763 0.8761 0.8760 0.8759 0.8758
3367.000000 0.8757 0.8756 0.8755 0.8755 0.8754
3372.000000 0.8753 0.8752 0.8751 0.8750 0.8750
3377.000000 0.8749 0.8748 0.8747 0.8747 0.8746
3382.000000 0.8745 0.8744 0.8744 0.8743 0.8742
3387.000000 0.8741 0.8740 0.8741 0.8743 0.8745
3392.000000 0.8747 0.8748 0.8750 0.8751 0.8753
3397.000000 0.8754 0.8756 0.8757 0.8759 0.8760
3402.000000 0.8762 0.8763 0.8765 0.8766 0.8768
3407.000000 0.8768 0.8769 0.8769 0.8770 0.8771
3412.000000 0.8772 0.8772 0.8773 0.8773 0.8774
3417.000000 0.8774 0.8775 0.8776 0.8777 0.8777
3422.000000 0.8778 0.8778 0.8779 0.8779 0.8780
3427.000000 0.8779 0.8778 0.8777 0.8777 0.8776
3432.000000 0.8776 0.8775 0.8774 0.8773 0.8773
3437.000000 0.8772 0.8771 0.8770 0.8770 0.8769
3442.000000 0.8768 0.8767 0.8767 0.8766 0.8766
3447.000000 0.8765 0.8765 0.8764 0.8764 0.8764
3452.000000 0.8764 0.8763 0.8763 0.8762 0.8762
3457.000000 0.8762 0.8762 0.8762 0.8763 0.8764
3462.000000 0.8766 0.8767 0.8769 0.8770 0.8772
3467.000000 0.8773 0.8775 0.8777 0.8779 0.8780
3472.000000 0.8782 0.8783 0.8785 0.8786 0.8788
3477.000000 0.8789 0.8791 0.8792 0.8793 0.8794
3482.000000 0.8796 0.8797 0.8799 0.8800 0.8801
3487.000000 0.8802 0.8804 0.8805 0.8807 0.8808
3492.000000 0.8809 0.8809 0.8809 0.8809 0.8810
3497.000000 0.8810 0.8810 0.8810 0.8811 0.8811
3502.000000 0.8811 0.8811 0.8812 0.8812 0.8812
3507.000000 0.8812 0.8813 0.8813 0.8813 0.8813
3512.000000 0.8814 0.8814 0.8814 0.8814 0.8815
3517.000000 0.8815 0.8815 0.8815 0.8816 0.8816
3522.000000 0.8816 0.8816 0.8817 0.8817 0.8817
3527.000000 0.8817 0.8817 0.8817 0.8817 0.8817
3532.000000 0.8837 0.8817 0.8817 0.8817 0.8818
3537.000000 0.8818 0.8818 0.8818 0.8818 0.8818
3542.000000 0.8818 0.8818 0.8818 0.8818 0.8818
3547.000000 0.8818 0.8818 0.8818 0.8818 0.8818
3552.000000 0.8818 0.8818 0.8818 0.8818 0.8818
3557.000000 0.8818 0.8818 0.8818 0.8818 0.8817
3562.000000 0.8817 0.8817 0.8817 0.8816 0.8816
3567.000000 0.8815 0.8815 0.8814 0.8814 0.8814
3572.000000 0.8814 0.8813 0.8813 0.8812 0.8812
3577.000000 0.8811 0.8811 0.8811 0.8811 0.8812
3582.000000 0.8813 0.8814 0.8815 0.8816 0.8817
3587.000000 0.8818 0.8819 0.8820 0.8821 0.8822
3592.000000 0.8823 0.8824 0.8825 0.8825 0.8826
3597.000000 0.8826 0.8826 0.8826 0.8826 0.8825
3602.000000 0.8825 0.8825 0.8825 0.8824 0.8824
3607.000000 0.8824 0.8824 0.8823 0.8823 0.8823
3612.000000 0.8823 0.8823 0.8823 0.8822 0.8822
3617.000000 0.8822 0.8822 0.8821 0.8821 0.8821
3622.000000 0.8821 0.8820 0.8820 0.8820 0.8820
3627.000000 0.8820 0.8820 0.8819 0.8819 0.8819
3632.000000 0.8819 0.8819 0.8819 0.8819 0.8819
3637.000000 0.8819 0.8819 0.8818 0.8818 0.8818
3642.000000 0.8818 0.8818 0.8818 0.8818 0.8818
3647.000000 0.8818 0.8818 0.8817 0.8817 0.8817
3652.000000 0.8817 0.8817 0.8817 0.8817 0.8817
3657.000000 0.8816 0.8816 0.8815 0.8815 0.8815
3662.000000 0.8815 0.8814 0.8814 0.8813 0.8813
3667.000000 0.8812 0.8812 0.8811 0.8811 0.8810
3672.000000 0.8810 0.8809 0.8809 0.8810 0.8811
3677.000000 0.8812 0.8813 0.8813 0.8814 0.8815
3682.000000 0.8816 0.8817 0.8818 0.8819 0.8820
3687.000000 0.8821 0.8822 0.8823 0.8824 0.8825
3692.000000 0.8827 0.8829 0.8832 0.8834 0.8837
3697.000000 0.8839 0.8842 0.8844 0.8847 0.8849
3702.000000 0.8852 0.8853 0.8855 0.8856 0.8858
3707.000000 0.8859 0.8861 0.8862 0.8864 0.8865
3712.000000 0.8867 0.8868 0.8869 0.8869 0.8869
3717.000000 0.8869 0.8870 0.8870 0.8871 0.8871
3722.000000 0.8871 0.8871 0.8872 0.8872 0.8873
3727.000000 0.8873 0.8874 0.8874 0.8874 0.8874
3732.000000 0.8875 0.8875 0.8876 0.8876 0.8876
3737.000000 0.8876 0.8877 0.8877 0.8877 0.8877
3742.000000 0.8877 0.8877 0.8877 0.8877 0.8877
3747.000000 0.8877 0.8877 0.8877 0.8877 0.8877
3752.000000 0.8877 0.8877 0.8877 0.8877 0.8877
3757.000000 0.8877 0.8877 0.8877 0.8877 0.8877
3762.000000 0.8877 0.8877 0.8877 0.8877 0.8877
3767.000000 0.8877 0.8877 0.8877 0.8877 0.8877
3772.000000 0.8877 0.8877 0.8877 0.8877 0.8877
3777.000000 0.8877 0.8877 0.8876 0.8876 0.8875
3782.000000 0.8875 0.8875 0.8875 0.8874 0.8874
3787.000000 0.8873 0.8873 0.8872 0.8872 0.8871
3792.000000 0.8871 0.8871 0.8871 0.8870 0.8870
##END=
