##TITLE=Trimethylamine
##JCAMP-DX=4.24
##DATA TYPE=INFRARED SPECTRUM
##CLASS=COBLENTZ
##ORIGIN=DOW CHEMICAL COMPANY
##OWNER=Copyright (C) 1987 by the Coblentz Society
Collection (C) 2018 copyright by the U.S. Secretary of Commerce
on behalf of the United States of America. All rights reserved.
##DATE=1964
##NAMES=N,N,N-trimethylamine
N,N-dimethylmethanamine
METHANAMINE, N,N-DIMETHYL-
##CAS REGISTRY NO=75-50-3
##MOLFORM=C3 H9 N
##SOURCE REFERENCE=COBLENTZ NO. 8817
##$NIST SOURCE=COBLENTZ
##$NIST IMAGE=cob8817
##SPECTROMETER/DATA SYSTEM=DOW KBr FOREPRISM-GRATING
##INSTRUMENT PARAMETERS=GRATING CHANGED AT 5.0, 7.5, 15.0 MICRON
##STATE=GAS (100 mmHg, N2 ADDED, TOTAL PRESSURE 600 mmHg)
##PATH LENGTH=5 CM
$$ SPECTRAL CONTAMINATION DUE TO CHBrF2 AROUND 730 CM^-^1
##SAMPLING PROCEDURE=TRANSMISSION
##RESOLUTION=2
##DATA PROCESSING=DIGITIZED BY COBLENTZ SOCIETY (BATCH II) FROM HARD COPY
##XUNITS=1/CM
##YUNITS=TRANSMITTANCE
##XFACTOR=1.0
##YFACTOR=1
##FIRSTX=462
##LASTX=3786
##FIRSTY=0.8426
##MAXX=3786
##MINX=462
##MAXY=0.8913
##MINY=0
##NPOINTS=3325
##XYDATA=(X++(Y..Y))
462.000000 0.8426 0.8435 0.8442 0.8450 0.8457
467.000000 0.8464 0.8472 0.8479 0.8486 0.8493
472.000000 0.8500 0.8505 0.8511 0.8516 0.8520
477.000000 0.8519 0.8517 0.8515 0.8513 0.8512
482.000000 0.8510 0.8509 0.8509 0.8509 0.8509
487.000000 0.8508 0.8508 0.8509 0.8510 0.8512
492.000000 0.8514 0.8516 0.8516 0.8517 0.8518
497.000000 0.8518 0.8519 0.8519 0.8518 0.8517
502.000000 0.8515 0.8514 0.8513 0.8511 0.8511
507.000000 0.8510 0.8510 0.8509 0.8509 0.8508
512.000000 0.8507 0.8507 0.8509 0.8511 0.8513
517.000000 0.8513 0.8502 0.8485 0.8465 0.8458
522.000000 0.8456 0.8506 0.8491 0.8509 0.8516
527.000000 0.8522 0.8525 0.8523 0.8518 0.8509
532.000000 0.8500 0.8491 0.8482 0.8476 0.8493
537.000000 0.8515 0.8537 0.8560 0.8584 0.8595
542.000000 0.8602 0.8609 0.8616 0.8620 0.8623
547.000000 0.8626 0.8629 0.8633 0.8640 0.8647
552.000000 0.8655 0.8662 0.8670 0.8677 0.8685
557.000000 0.8692 0.8702 0.8711 0.8721 0.8730
562.000000 0.8736 0.8743 0.8750 0.8757 0.8764
567.000000 0.8770 0.8776 0.8780 0.8784 0.8787
572.000000 0.8787 0.8787 0.8788 0.8788 0.8788
577.000000 0.8789 0.8789 0.8789 0.8791 0.8792
582.000000 0.8794 0.8796 0.8797 0.8799 0.8801
587.000000 0.8802 0.8804 0.8806 0.8807 0.8809
592.000000 0.8811 0.8813 0.8814 0.8816 0.8818
597.000000 0.8820 0.8822 0.8824 0.8826 0.8827
602.000000 0.8828 0.8829 0.8830 0.8831 0.8831
607.000000 0.8832 0.8833 0.8834 0.8834 0.8832
612.000000 0.8830 0.8828 0.8826 0.8824 0.8822
617.000000 0.8824 0.8825 0.8826 0.8828 0.8829
622.000000 0.8831 0.8835 0.8838 0.8842 0.8845
627.000000 0.8845 0.8845 0.8843 0.8839 0.8834
632.000000 0.8829 0.8824 0.8816 0.8809 0.8801
637.000000 0.8792 0.8782 0.8771 0.8760 0.8750
642.000000 0.8739 0.8729 0.8718 0.8708 0.8699
647.000000 0.8691 0.8682 0.8674 0.8665 0.8663
652.000000 0.8660 0.8658 0.8658 0.8659 0.8659
657.000000 0.8660 0.8661 0.8668 0.8677 0.8685
662.000000 0.8691 0.8696 0.8696 0.8663 0.8594
667.000000 0.8514 0.8472 0.8468 0.8479 0.8495
672.000000 0.8510 0.8529 0.8538 0.8533 0.8529
677.000000 0.8522 0.8515 0.8508 0.8500 0.8492
682.000000 0.8484 0.8475 0.8467 0.8458 0.8449
687.000000 0.8442 0.8435 0.8427 0.8420 0.8412
692.000000 0.8403 0.8394 0.8384 0.8375 0.8370
697.000000 0.8382 0.8402 0.8407 0.8397 0.8386
702.000000 0.8374 0.8361 0.8347 0.8333 0.8319
707.000000 0.8303 0.8286 0.8270 0.8253 0.8235
712.000000 0.8217 0.8199 0.8181 0.8164 0.8147
717.000000 0.8130 0.8114 0.8097 0.8080 0.8063
722.000000 0.8048 0.8033 0.8017 0.8002 0.7987
727.000000 0.7975 0.7962 0.7965 0.7972 0.8002
732.000000 0.8039 0.8091 0.8143 0.8184 0.8210
737.000000 0.8226 0.8239 0.8244 0.8248 0.8249
742.000000 0.8249 0.8249 0.8251 0.8257 0.8263
747.000000 0.8269 0.8280 0.8292 0.8304 0.8315
752.000000 0.8327 0.8339 0.8350 0.8364 0.8379
757.000000 0.8395 0.8410 0.8426 0.8443 0.8459
762.000000 0.8475 0.8490 0.8499 0.8508 0.8517
767.000000 0.8526 0.8532 0.8537 0.8543 0.8548
772.000000 0.8547 0.8543 0.8540 0.8533 0.8522
777.000000 0.8510 0.8495 0.8474 0.8452 0.8428
782.000000 0.8395 0.8357 0.8315 0.8273 0.8228
787.000000 0.8180 0.8131 0.8060 0.7990 0.7907
792.000000 0.7795 0.7531 0.7414 0.7263 0.7104
797.000000 0.6944 0.6785 0.6625 0.6466 0.6236
802.000000 0.6100 0.5962 0.5818 0.5657 0.5381
807.000000 0.5319 0.5281 0.5268 0.5276 0.5280
812.000000 0.5307 0.5331 0.5346 0.5353 0.5358
817.000000 0.5360 0.5326 0.5335 0.5043 0.4281
822.000000 0.3518 0.2755 0.1992 0.1229 0.0751
827.000000 0.0638 0.0608 0.0636 0.6063 0.6077
832.000000 0.6071 0.6085 0.5925 0.5685 0.5446
837.000000 0.5206 0.4966 0.4726 0.4474 0.4277
842.000000 0.4177 0.4117 0.4081 0.4061 0.4049
847.000000 0.4042 0.4041 0.4067 0.4223 0.4550
852.000000 0.4877 0.5230 0.5333 0.5538 0.6310
857.000000 0.6614 0.6765 0.6916 0.7077 0.7206
862.000000 0.7301 0.7395 0.7491 0.7587 0.7797
867.000000 0.7882 0.7954 0.8024 0.8089 0.8153
872.000000 0.8210 0.8258 0.8306 0.8355 0.8401
877.000000 0.8447 0.8493 0.8535 0.8570 0.8604
882.000000 0.8638 0.8672 0.8695 0.8719 0.8742
887.000000 0.8764 0.8773 0.8782 0.8791 0.8799
892.000000 0.8806 0.8813 0.8820 0.8826 0.8833
897.000000 0.8840 0.8843 0.8846 0.8849 0.8851
902.000000 0.8854 0.8856 0.8857 0.8858 0.8860
907.000000 0.8861 0.8862 0.8863 0.8863 0.8864
912.000000 0.8865 0.8865 0.8866 0.8866 0.8866
917.000000 0.8865 0.8865 0.8864 0.8864 0.8863
922.000000 0.8863 0.8862 0.8862 0.8863 0.8864
927.000000 0.8865 0.8865 0.8885 0.8867 0.8868
932.000000 0.8869 0.8873 0.8876 0.8879 0.8882
937.000000 0.8885 0.8888 0.8891 0.8895 0.8897
942.000000 0.8899 0.8901 0.8903 0.8905 0.8907
947.000000 0.8909 0.8911 0.8911 0.8911 0.8911
952.000000 0.8911 0.8910 0.8910 0.8909 0.8907
957.000000 0.8904 0.8902 0.8900 0.8894 0.8886
962.000000 0.8878 0.8871 0.8868 0.8865 0.8864
967.000000 0.8867 0.8870 0.8879 0.8890 0.8898
972.000000 0.8901 0.8904 0.8903 0.8898 0.8893
977.000000 0.8886 0.8875 0.8864 0.8853 0.8841
982.000000 0.8825 0.8809 0.8793 0.8774 0.8753
987.000000 0.8731 0.8710 0.8680 0.8649 0.8622
992.000000 0.8604 0.8585 0.8566 0.8548 0.8531
997.000000 0.8514 0.8480 0.8444 0.8366 0.8300
1002.000000 0.8244 0.8188 0.8132 0.8069 0.7974
1007.000000 0.7880 0.7730 0.7552 0.7331 0.7019
1012.000000 0.6629 0.6334 0.5915 0.5539 0.5163
1017.000000 0.4787 0.4411 0.4110 0.3666 0.3480
1022.000000 0.3316 0.3078 0.2877 0.2622 0.2077
1027.000000 0.1799 0.1592 0.1495 0.1414 0.1347
1032.000000 0.1294 0.1249 0.1226 0.1205 0.1185
1037.000000 0.1165 0.1134 0.1040 0.0803 0.0799
1042.000000 0.0805 0.0858 0.0950 0.1042 0.1135
1047.000000 0.1227 0.1289 0.1287 0.1205 0.1086
1052.000000 0.0998 0.0983 0.0984 0.0990 0.0971
1057.000000 0.1026 0.1079 0.1211 0.1439 0.1666
1062.000000 0.1894 0.2207 0.2645 0.3007 0.3370
1067.000000 0.3733 0.4096 0.4458 0.4821 0.5184
1072.000000 0.5582 0.5804 0.5886 0.5918 0.5930
1077.000000 0.5931 0.5920 0.5793 0.5616 0.5440
1082.000000 0.5263 0.5087 0.4910 0.4734 0.4557
1087.000000 0.4389 0.4291 0.4254 0.4240 0.4240
1092.000000 0.4245 0.4252 0.4259 0.4263 0.4266
1097.000000 0.4267 0.4225 0.3923 0.3620 0.3499
1102.000000 0.3495 0.3550 0.3658 0.3766 0.3874
1107.000000 0.3924 0.3925 0.3910 0.3898 0.3874
1112.000000 0.3836 0.3839 0.3828 0.3897 0.4146
1117.000000 0.4420 0.4693 0.4967 0.5240 0.5514
1122.000000 0.5787 0.6061 0.6334 0.6607 0.6881
1127.000000 0.7245 0.7390 0.7579 0.7752 0.7827
1132.000000 0.7880 0.7917 0.7942 0.7958 0.7967
1137.000000 0.7973 0.7970 0.7963 0.7955 0.7947
1142.000000 0.7928 0.7904 0.7876 0.7840 0.7791
1147.000000 0.7721 0.7635 0.7506 0.7355 0.7204
1152.000000 0.7052 0.6901 0.6750 0.6599 0.6447
1157.000000 0.6296 0.6145 0.5994 0.5843 0.5691
1162.000000 0.5580 0.5479 0.5383 0.5305 0.5241
1167.000000 0.5209 0.5185 0.5174 0.5164 0.5154
1172.000000 0.5144 0.5130 0.4991 0.4573 0.4154
1177.000000 0.3736 0.3318 0.2899 0.2481 0.2062
1182.000000 0.1644 0.1226 0.0905 0.0948 0.1031
1187.000000 0.2033 0.4274 0.5362 0.5336 0.5170
1192.000000 0.5004 0.4839 0.4673 0.4507 0.4341
1197.000000 0.4184 0.4091 0.4067 0.4064 0.4066
1202.000000 0.4071 0.4122 0.4241 0.4471 0.4701
1207.000000 0.4931 0.5161 0.5350 0.5458 0.5602
1212.000000 0.5822 0.6017 0.6211 0.6392 0.6587
1217.000000 0.6911 0.7080 0.7230 0.7371 0.7485
1222.000000 0.7582 0.7679 0.7765 0.7846 0.7898
1227.000000 0.7937 0.7974 0.7991 0.8008 0.8015
1232.000000 0.8020 0.8029 0.8019 0.8016 0.8005
1237.000000 0.7991 0.7976 0.7954 0.7915 0.7861
1242.000000 0.7786 0.7693 0.7574 0.7340 0.7084
1247.000000 0.6941 0.6815 0.6685 0.6508 0.6247
1252.000000 0.5986 0.5725 0.5464 0.5203 0.4942
1257.000000 0.4681 0.4420 0.4159 0.3898 0.3637
1262.000000 0.3073 0.2494 0.2249 0.2054 0.1942
1267.000000 0.1873 0.1812 0.1782 0.1778 0.1784
1272.000000 0.1795 0.1825 0.1849 0.1864 0.1861
1277.000000 0.1896 0.1784 0.1746 0.1747 0.1733
1282.000000 0.1787 0.1872 0.2106 0.2342 0.2578
1287.000000 0.2814 0.3050 0.3285 0.3521 0.3754
1292.000000 0.3884 0.4250 0.4502 0.4915 0.5107
1297.000000 0.5403 0.5650 0.5847 0.6025 0.6183
1302.000000 0.6336 0.6457 0.6577 0.6709 0.6855
1307.000000 0.6997 0.7124 0.7251 0.7382 0.7535
1312.000000 0.7687 0.7839 0.7961 0.8065 0.8131
1317.000000 0.8193 0.8254 0.8299 0.8343 0.8387
1322.000000 0.8425 0.8459 0.8492 0.8523 0.8542
1327.000000 0.8560 0.8578 0.8597 0.8608 0.8619
1332.000000 0.8630 0.8642 0.8652 0.8660 0.8669
1337.000000 0.8677 0.8685 0.8693 0.8698 0.8699
1342.000000 0.8701 0.8713 0.8696 0.8693 0.8690
1347.000000 0.8688 0.8684 0.8671 0.8659 0.8646
1352.000000 0.8632 0.8618 0.8604 0.8590 0.8576
1357.000000 0.8561 0.8546 0.8532 0.8518 0.8505
1362.000000 0.8493 0.8481 0.8468 0.8456 0.8443
1367.000000 0.8430 0.8418 0.8396 0.8373 0.8350
1372.000000 0.8294 0.8233 0.8163 0.8092 0.8022
1377.000000 0.7949 0.7876 0.7794 0.7653 0.7555
1382.000000 0.7469 0.7396 0.7350 0.7304 0.7257
1387.000000 0.7229 0.7201 0.7177 0.7169 0.7161
1392.000000 0.7153 0.7175 0.7161 0.7181 0.7210
1397.000000 0.7262 0.7312 0.7358 0.7401 0.7434
1402.000000 0.7467 0.7494 0.7517 0.7523 0.7526
1407.000000 0.7531 0.7512 0.7484 0.7401 0.7383
1412.000000 0.7372 0.7360 0.7341 0.7288 0.7198
1417.000000 0.7038 0.6878 0.6719 0.6559 0.6399
1422.000000 0.6239 0.6079 0.5919 0.5759 0.5600
1427.000000 0.5440 0.5226 0.5040 0.4772 0.4595
1432.000000 0.4461 0.4169 0.4052 0.3935 0.3818
1437.000000 0.3701 0.3584 0.3230 0.2482 0.2040
1442.000000 0.1555 0.1070 0.0912 0.1039 0.1511
1447.000000 0.1984 0.2005 0.1816 0.1586 0.1356
1452.000000 0.1125 0.0895 0.0733 0.0719 0.0697
1457.000000 0.0623 0.0536 0.0450 0.0447 0.0579
1462.000000 0.0790 0.0928 0.0951 0.0959 0.0965
1467.000000 0.1153 0.1308 0.1396 0.1479 0.1557
1472.000000 0.1620 0.1682 0.1746 0.1775 0.1806
1477.000000 0.1771 0.1437 0.1072 0.0707 0.0678
1482.000000 0.1225 0.1644 0.2040 0.2126 0.2237
1487.000000 0.2355 0.2478 0.2626 0.2842 0.3021
1492.000000 0.3219 0.3414 0.3603 0.3791 0.3913
1497.000000 0.4034 0.4178 0.4342 0.4523 0.4700
1502.000000 0.4862 0.5028 0.5200 0.5357 0.5506
1507.000000 0.5868 0.6041 0.6469 0.6653 0.6810
1512.000000 0.6943 0.7052 0.7160 0.7258 0.7357
1517.000000 0.7533 0.7647 0.7726 0.7787 0.7837
1522.000000 0.7873 0.7896 0.7917 0.7928 0.7940
1527.000000 0.7951 0.7962 0.7970 0.7976 0.7982
1532.000000 0.7989 0.7996 0.8003 0.8011 0.8019
1537.000000 0.8026 0.8033 0.8039 0.8045 0.8102
1542.000000 0.8164 0.8201 0.8239 0.8266 0.8291
1547.000000 0.8320 0.8350 0.8379 0.8398 0.8413
1552.000000 0.8424 0.8429 0.8430 0.8422 0.8414
1557.000000 0.8405 0.8397 0.8424 0.8477 0.8528
1562.000000 0.8565 0.8597 0.8607 0.8617 0.8628
1567.000000 0.8630 0.8631 0.8632 0.8637 0.8647
1572.000000 0.8649 0.8642 0.8645 0.8658 0.8686
1577.000000 0.8709 0.8728 0.8736 0.8744 0.8750
1582.000000 0.8752 0.8754 0.8756 0.8754 0.8772
1587.000000 0.8750 0.8748 0.8745 0.8743 0.8741
1592.000000 0.8739 0.8737 0.8734 0.8732 0.8728
1597.000000 0.8724 0.8720 0.8716 0.8713 0.8709
1602.000000 0.8705 0.8701 0.8695 0.8688 0.8682
1607.000000 0.8676 0.8669 0.8663 0.8656 0.8646
1612.000000 0.8636 0.8626 0.8616 0.8605 0.8593
1617.000000 0.8581 0.8569 0.8557 0.8553 0.8549
1622.000000 0.8546 0.8543 0.8539 0.8529 0.8518
1627.000000 0.8508 0.8498 0.8487 0.8475 0.8462
1632.000000 0.8449 0.8436 0.8423 0.8416 0.8429
1637.000000 0.8443 0.8455 0.8454 0.8454 0.8449
1642.000000 0.8434 0.8417 0.8394 0.8370 0.8350
1647.000000 0.8337 0.8326 0.8322 0.8319 0.8315
1652.000000 0.8327 0.8362 0.8401 0.8448 0.8496
1657.000000 0.8517 0.8530 0.8521 0.8512 0.8503
1662.000000 0.8492 0.8482 0.8473 0.8465 0.8456
1667.000000 0.8448 0.8439 0.8442 0.8448 0.8461
1672.000000 0.8476 0.8491 0.8496 0.8500 0.8502
1677.000000 0.8500 0.8482 0.8452 0.8428 0.8411
1682.000000 0.8405 0.8405 0.8417 0.8433 0.8456
1687.000000 0.8473 0.8470 0.8466 0.8462 0.8453
1692.000000 0.8430 0.8393 0.8342 0.8290 0.8250
1697.000000 0.8214 0.8181 0.8148 0.8114 0.8080
1702.000000 0.8052 0.8040 0.8040 0.8042 0.8047
1707.000000 0.8062 0.8092 0.8129 0.8118 0.8066
1712.000000 0.7979 0.7912 0.7890 0.7895 0.7892
1717.000000 0.7973 0.7989 0.7979 0.7970 0.7961
1722.000000 0.7953 0.7949 0.7946 0.7994 0.8045
1727.000000 0.8095 0.8146 0.8213 0.8238 0.8261
1732.000000 0.8283 0.8306 0.8328 0.8352 0.8376
1737.000000 0.8400 0.8417 0.8428 0.8440 0.8452
1742.000000 0.8461 0.8469 0.8477 0.8484 0.8487
1747.000000 0.8490 0.8494 0.8497 0.8501 0.8507
1752.000000 0.8516 0.8526 0.8541 0.8556 0.8570
1757.000000 0.8578 0.8587 0.8596 0.8604 0.8613
1762.000000 0.8618 0.8622 0.8627 0.8631 0.8636
1767.000000 0.8634 0.8630 0.8622 0.8611 0.8599
1772.000000 0.8590 0.8596 0.8605 0.8615 0.8624
1777.000000 0.8631 0.8637 0.8640 0.8643 0.8646
1782.000000 0.8648 0.8649 0.8651 0.8651 0.8651
1787.000000 0.8651 0.8709 0.8658 0.8664 0.8669
1792.000000 0.8680 0.8694 0.8708 0.8719 0.8727
1797.000000 0.8733 0.8735 0.8738 0.8740 0.8743
1802.000000 0.8745 0.8746 0.8748 0.8750 0.8751
1807.000000 0.8752 0.8752 0.8753 0.8754 0.8754
1812.000000 0.8755 0.8756 0.8756 0.8757 0.8758
1817.000000 0.8755 0.8753 0.8751 0.8749 0.8746
1822.000000 0.8744 0.8742 0.8739 0.8737 0.8735
1827.000000 0.8731 0.8727 0.8723 0.8719 0.8715
1832.000000 0.8710 0.8697 0.8683 0.8669 0.8655
1837.000000 0.8641 0.8627 0.8614 0.8593 0.8573
1842.000000 0.8552 0.8531 0.8511 0.8490 0.8470
1847.000000 0.8451 0.8437 0.8422 0.8407 0.8392
1852.000000 0.8377 0.8363 0.8348 0.8333 0.8315
1857.000000 0.8295 0.8275 0.8256 0.8236 0.8223
1862.000000 0.8210 0.8197 0.8184 0.8181 0.8181
1867.000000 0.8181 0.8182 0.8185 0.8194 0.8201
1872.000000 0.8212 0.8214 0.8213 0.8211 0.8210
1877.000000 0.8208 0.8208 0.8211 0.8225 0.8241
1882.000000 0.8257 0.8274 0.8293 0.8319 0.8348
1887.000000 0.8382 0.8416 0.8450 0.8482 0.8515
1892.000000 0.8546 0.8572 0.8598 0.8624 0.8638
1897.000000 0.8652 0.8666 0.8673 0.8678 0.8684
1902.000000 0.8690 0.8690 0.8690 0.8690 0.8690
1907.000000 0.8690 0.8690 0.8690 0.8690 0.8690
1912.000000 0.8690 0.8690 0.8690 0.8690 0.8690
1917.000000 0.8690 0.8705 0.8690 0.8692 0.8693
1922.000000 0.8694 0.8695 0.8696 0.8697 0.8696
1927.000000 0.8696 0.8695 0.8695 0.8694 0.8694
1932.000000 0.8693 0.8693 0.8692 0.8690 0.8687
1937.000000 0.8684 0.8681 0.8678 0.8678 0.8679
1942.000000 0.8687 0.8698 0.8709 0.8720 0.8731
1947.000000 0.8742 0.8753 0.8764 0.8773 0.8780
1952.000000 0.8788 0.8796 0.8804 0.8810 0.8816
1957.000000 0.8819 0.8818 0.8817 0.8816 0.8815
1962.000000 0.8814 0.8812 0.8809 0.8807 0.8805
1967.000000 0.8802 0.8800 0.8798 0.8795 0.8790
1972.000000 0.8783 0.8777 0.8771 0.8765 0.8758
1977.000000 0.8752 0.8746 0.8740 0.8734 0.8728
1982.000000 0.8722 0.8716 0.8710 0.8703 0.8695
1987.000000 0.8687 0.8679 0.8671 0.8663 0.8655
1992.000000 0.8647 0.8638 0.8630 0.8622 0.8612
1997.000000 0.8600 0.8587 0.8575 0.8563 0.8550
2002.000000 0.8538 0.8532 0.8526 0.8512 0.8498
2007.000000 0.8484 0.8470 0.8455 0.8440 0.8429
2012.000000 0.8419 0.8418 0.8413 0.8421 0.8425
2017.000000 0.8430 0.8436 0.8468 0.8501 0.8527
2022.000000 0.8553 0.8563 0.8574 0.8577 0.8580
2027.000000 0.8583 0.8586 0.8586 0.8587 0.8589
2032.000000 0.8591 0.8594 0.8597 0.8602 0.8608
2037.000000 0.8620 0.8633 0.8645 0.8657 0.8668
2042.000000 0.8680 0.8691 0.8703 0.8711 0.8720
2047.000000 0.8726 0.8733 0.8740 0.8741 0.8749
2052.000000 0.8752 0.8751 0.8750 0.8747 0.8744
2057.000000 0.8737 0.8730 0.8723 0.8716 0.8708
2062.000000 0.8700 0.8688 0.8676 0.8664 0.8653
2067.000000 0.8637 0.8621 0.8600 0.8580 0.8559
2072.000000 0.8539 0.8518 0.8498 0.8474 0.8451
2077.000000 0.8425 0.8400 0.8374 0.8349 0.8323
2082.000000 0.8298 0.8261 0.8225 0.8184 0.8143
2087.000000 0.8102 0.8061 0.8019 0.7978 0.7945
2092.000000 0.7913 0.7898 0.7884 0.7869 0.7855
2097.000000 0.7840 0.7826 0.7821 0.7817 0.7817
2102.000000 0.7817 0.7817 0.7817 0.7817 0.7817
2107.000000 0.7824 0.7831 0.7840 0.7849 0.7859
2112.000000 0.7869 0.7887 0.7905 0.7935 0.7965
2117.000000 0.8047 0.8130 0.8212 0.8294 0.8344
2122.000000 0.8394 0.8428 0.8463 0.8496 0.8530
2127.000000 0.8558 0.8587 0.8606 0.8625 0.8633
2132.000000 0.8641 0.8649 0.8657 0.8664 0.8672
2137.000000 0.8680 0.8688 0.8695 0.8702 0.8709
2142.000000 0.8716 0.8722 0.8729 0.8734 0.8740
2147.000000 0.8743 0.8747 0.8750 0.8753 0.8756
2152.000000 0.8760 0.8763 0.8766 0.8769 0.8772
2157.000000 0.8775 0.8779 0.8782 0.8785 0.8788
2162.000000 0.8792 0.8794 0.8796 0.8796 0.8797
2167.000000 0.8797 0.8798 0.8798 0.8799 0.8800
2172.000000 0.8801 0.8801 0.8802 0.8802 0.8803
2177.000000 0.8802 0.8838 0.8801 0.8801 0.8800
2182.000000 0.8799 0.8798 0.8797 0.8796 0.8795
2187.000000 0.8794 0.8794 0.8793 0.8792 0.8790
2192.000000 0.8789 0.8787 0.8785 0.8783 0.8781
2197.000000 0.8779 0.8777 0.8774 0.8772 0.8769
2202.000000 0.8767 0.8764 0.8761 0.8758 0.8756
2207.000000 0.8753 0.8750 0.8748 0.8746 0.8743
2212.000000 0.8741 0.8739 0.8737 0.8735 0.8733
2217.000000 0.8730 0.8728 0.8725 0.8723 0.8720
2222.000000 0.8718 0.8715 0.8713 0.8711 0.8709
2227.000000 0.8708 0.8708 0.8708 0.8708 0.8707
2232.000000 0.8707 0.8706 0.8706 0.8706 0.8706
2237.000000 0.8705 0.8705 0.8705 0.8705 0.8704
2242.000000 0.8704 0.8703 0.8703 0.8703 0.8703
2247.000000 0.8702 0.8702 0.8701 0.8701 0.8700
2252.000000 0.8700 0.8700 0.8700 0.8700 0.8700
2257.000000 0.8700 0.8700 0.8700 0.8700 0.8692
2262.000000 0.8684 0.8674 0.8664 0.8654 0.8645
2267.000000 0.8636 0.8628 0.8619 0.8611 0.8603
2272.000000 0.8595 0.8586 0.8577 0.8567 0.8557
2277.000000 0.8547 0.8538 0.8528 0.8518 0.8508
2282.000000 0.8498 0.8486 0.8475 0.8463 0.8451
2287.000000 0.8438 0.8426 0.8414 0.8402 0.8389
2292.000000 0.8377 0.8364 0.8351 0.8335 0.8319
2297.000000 0.8303 0.8287 0.8271 0.8255 0.8238
2302.000000 0.8222 0.8202 0.8183 0.8162 0.8141
2307.000000 0.8120 0.8099 0.8078 0.8058 0.8037
2312.000000 0.8016 0.7996 0.7976 0.7955 0.7935
2317.000000 0.7915 0.7896 0.7877 0.7859 0.7840
2322.000000 0.7822 0.7804 0.7786 0.7767 0.7749
2327.000000 0.7730 0.7712 0.7701 0.7690 0.7690
2332.000000 0.7690 0.7690 0.7717 0.7694 0.7698
2337.000000 0.7703 0.7709 0.7718 0.7727 0.7744
2342.000000 0.7761 0.7774 0.7788 0.7796 0.7805
2347.000000 0.7810 0.7816 0.7821 0.7826 0.7833
2352.000000 0.7840 0.7849 0.7858 0.7867 0.7876
2357.000000 0.7885 0.7894 0.7903 0.7912 0.7926
2362.000000 0.7941 0.7956 0.7972 0.7993 0.8014
2367.000000 0.8036 0.8058 0.8084 0.8110 0.8144
2372.000000 0.8179 0.8215 0.8251 0.8287 0.8324
2377.000000 0.8355 0.8387 0.8415 0.8444 0.8472
2382.000000 0.8501 0.8527 0.8553 0.8578 0.8603
2387.000000 0.8621 0.8640 0.8656 0.8672 0.8681
2392.000000 0.8691 0.8698 0.8706 0.8713 0.8720
2397.000000 0.8722 0.8724 0.8726 0.8728 0.8729
2402.000000 0.8731 0.8732 0.8733 0.8734 0.8735
2407.000000 0.8736 0.8737 0.8738 0.8739 0.8740
2412.000000 0.8757 0.8741 0.8741 0.8739 0.8738
2417.000000 0.8736 0.8735 0.8733 0.8732 0.8729
2422.000000 0.8727 0.8724 0.8721 0.8717 0.8714
2427.000000 0.8708 0.8702 0.8695 0.8689 0.8682
2432.000000 0.8676 0.8669 0.8663 0.8655 0.8647
2437.000000 0.8639 0.8632 0.8624 0.8616 0.8606
2442.000000 0.8596 0.8586 0.8576 0.8565 0.8554
2447.000000 0.8542 0.8531 0.8520 0.8509 0.8497
2452.000000 0.8486 0.8475 0.8464 0.8451 0.8438
2457.000000 0.8424 0.8411 0.8397 0.8384 0.8370
2462.000000 0.8357 0.8343 0.8330 0.8317 0.8304
2467.000000 0.8291 0.8279 0.8266 0.8254 0.8241
2472.000000 0.8229 0.8216 0.8204 0.8191 0.8178
2477.000000 0.8165 0.8153 0.8139 0.8125 0.8108
2482.000000 0.8092 0.8075 0.8058 0.8041 0.8025
2487.000000 0.8008 0.7992 0.7931 0.7871 0.7809
2492.000000 0.7748 0.7686 0.7625 0.7564 0.7503
2497.000000 0.7480 0.7476 0.7469 0.7482 0.7526
2502.000000 0.7571 0.7615 0.7660 0.7682 0.7705
2507.000000 0.7710 0.7715 0.7722 0.7729 0.7735
2512.000000 0.7741 0.7747 0.7754 0.7760 0.7766
2517.000000 0.7781 0.7796 0.7812 0.7828 0.7844
2522.000000 0.7861 0.7879 0.7897 0.7916 0.7936
2527.000000 0.7953 0.7971 0.7983 0.7995 0.8007
2532.000000 0.8020 0.8032 0.8045 0.8057 0.8070
2537.000000 0.8081 0.8092 0.8103 0.8114 0.8125
2542.000000 0.8136 0.8144 0.8152 0.8160 0.8169
2547.000000 0.8177 0.8185 0.8193 0.8202 0.8209
2552.000000 0.8216 0.8222 0.8228 0.8234 0.8241
2557.000000 0.8247 0.8254 0.8260 0.8267 0.8272
2562.000000 0.8278 0.8283 0.8289 0.8294 0.8300
2567.000000 0.8305 0.8311 0.8316 0.8322 0.8328
2572.000000 0.8334 0.8337 0.8340 0.8343 0.8347
2577.000000 0.8350 0.8353 0.8356 0.8360 0.8363
2582.000000 0.8366 0.8369 0.8373 0.8376 0.8380
2587.000000 0.8383 0.8386 0.8389 0.8392 0.8395
2592.000000 0.8398 0.8401 0.8404 0.8407 0.8410
2597.000000 0.8410 0.8410 0.8409 0.8409 0.8408
2602.000000 0.8449 0.8407 0.8407 0.8406 0.8405
2607.000000 0.8404 0.8403 0.8401 0.8400 0.8398
2612.000000 0.8396 0.8391 0.8386 0.8381 0.8376
2617.000000 0.8370 0.8365 0.8357 0.8349 0.8341
2622.000000 0.8334 0.8321 0.8308 0.8294 0.8281
2627.000000 0.8269 0.8257 0.8249 0.8242 0.8234
2632.000000 0.8227 0.8219 0.8212 0.8208 0.8204
2637.000000 0.8204 0.8169 0.8206 0.8208 0.8225
2642.000000 0.8242 0.8264 0.8286 0.8303 0.8321
2647.000000 0.8339 0.8357 0.8374 0.8391 0.8395
2652.000000 0.8399 0.8402 0.8405 0.8405 0.8405
2657.000000 0.8405 0.8405 0.8405 0.8413 0.8404
2662.000000 0.8404 0.8402 0.8401 0.8399 0.8397
2667.000000 0.8394 0.8392 0.8384 0.8376 0.8365
2672.000000 0.8354 0.8343 0.8332 0.8315 0.8299
2677.000000 0.8280 0.8262 0.8242 0.8222 0.8199
2682.000000 0.8176 0.8151 0.8127 0.8095 0.8063
2687.000000 0.8023 0.7983 0.7929 0.7875 0.7761
2692.000000 0.7647 0.7546 0.7445 0.7246 0.7047
2697.000000 0.6860 0.6673 0.6581 0.6490 0.6336
2702.000000 0.6183 0.6029 0.5875 0.5721 0.5567
2707.000000 0.5413 0.5260 0.5106 0.4952 0.4798
2712.000000 0.4644 0.4490 0.4337 0.4183 0.4029
2717.000000 0.3875 0.3721 0.3567 0.3414 0.3291
2722.000000 0.3168 0.3070 0.2972 0.2741 0.2511
2727.000000 0.2405 0.2299 0.2251 0.2204 0.2156
2732.000000 0.2109 0.1691 0.1274 0.1086 0.0899
2737.000000 0.0744 0.0590 0.0593 0.0597 0.0635
2742.000000 0.0673 0.0711 0.0749 0.0756 0.0763
2747.000000 0.0749 0.0736 0.0621 0.0506 0.0270
2752.000000 0.0034 0.0026 0.0018 0.0010 0.0003
2757.000000 0.0001 0.0000 0.0000 0.0000 0.0000
2762.000000 0.0000 0.0000 0.0000 0.0000 0.0000
2767.000000 0.0000 0.0000 0.0000 0.0000 0.0000
2772.000000 0.0000 0.0000 0.0000 0.0000 0.0000
2777.000000 0.0000 0.0000 0.0000 0.0000 0.0000
2782.000000 0.0000 0.0000 0.0000 0.0000 0.0000
2787.000000 0.0005 0.0011 0.0021 0.0031 0.0041
2792.000000 0.0051 0.0063 0.0076 0.0087 0.0098
2797.000000 0.0114 0.0130 0.0146 0.0162 0.0182
2802.000000 0.0202 0.0221 0.0240 0.0261 0.0282
2807.000000 0.0304 0.0326 0.0348 0.0370 0.0392
2812.000000 0.0415 0.0431 0.0448 0.0449 0.0451
2817.000000 0.0413 0.0376 0.0309 0.0242 0.0175
2822.000000 0.0109 0.0084 0.0059 0.0063 0.0067
2827.000000 0.0105 0.0143 0.0224 0.0306 0.0387
2832.000000 0.0469 0.0515 0.0562 0.0527 0.0492
2837.000000 0.0450 0.0408 0.0404 0.0401 0.0407
2842.000000 0.0414 0.0425 0.0437 0.0450 0.0464
2847.000000 0.0478 0.0492 0.0715 0.0938 0.1211
2852.000000 0.1484 0.1641 0.1811 0.1799 0.1799
2857.000000 0.1796 0.1794 0.1788 0.1783 0.1756
2862.000000 0.1729 0.1696 0.1663 0.1608 0.1554
2867.000000 0.1444 0.1334 0.1223 0.1113 0.1003
2872.000000 0.0893 0.0851 0.0810 0.0834 0.0859
2877.000000 0.0972 0.0814 0.1199 0.1313 0.1338
2882.000000 0.1364 0.1359 0.1372 0.1318 0.1283
2887.000000 0.1248 0.1213 0.1177 0.1142 0.1107
2892.000000 0.1072 0.1070 0.1069 0.1080 0.1069
2897.000000 0.1125 0.1159 0.1192 0.1226 0.1256
2902.000000 0.1286 0.1284 0.1301 0.1277 0.1272
2907.000000 0.1261 0.1250 0.1226 0.1203 0.1184
2912.000000 0.1165 0.1143 0.1121 0.1099 0.1078
2917.000000 0.1057 0.1036 0.1011 0.0987 0.0965
2922.000000 0.0944 0.0923 0.0902 0.0843 0.0785
2927.000000 0.0668 0.0552 0.0475 0.0398 0.0342
2932.000000 0.0286 0.0194 0.0103 0.0087 0.0072
2937.000000 0.0062 0.0053 0.0044 0.0036 0.0030
2942.000000 0.0025 0.0019 0.0013 0.0007 0.0001
2947.000000 0.0001 0.0001 0.0001 0.0001 0.0000
2952.000000 0.0000 0.0000 0.0000 0.0000 0.0000
2957.000000 0.0000 0.0000 0.0000 0.0000 0.0000
2962.000000 0.0000 0.0000 0.0001 0.0000 0.0000
2967.000000 0.0000 0.0000 0.0000 0.0001 0.0001
2972.000000 0.0001 0.0001 0.0001 0.0011 0.0022
2977.000000 0.0033 0.0044 0.0054 0.0065 0.0075
2982.000000 0.0086 0.0097 0.0109 0.0120 0.0131
2987.000000 0.0142 0.0154 0.0165 0.0176 0.0187
2992.000000 0.0198 0.0210 0.0222 0.0233 0.0245
2997.000000 0.0325 0.0405 0.0566 0.0727 0.1088
3002.000000 0.1450 0.1907 0.2365 0.3297 0.4230
3007.000000 0.4966 0.5702 0.5757 0.5813 0.5864
3012.000000 0.5916 0.6096 0.6276 0.6414 0.6553
3017.000000 0.6880 0.7207 0.7281 0.7356 0.7408
3022.000000 0.7461 0.7511 0.7562 0.7595 0.7628
3027.000000 0.7655 0.7682 0.7704 0.7727 0.7743
3032.000000 0.7760 0.7777 0.7794 0.7810 0.7827
3037.000000 0.7840 0.7853 0.7864 0.7875 0.7886
3042.000000 0.7898 0.7909 0.7920 0.7931 0.7943
3047.000000 0.7950 0.7958 0.7966 0.7974 0.7981
3052.000000 0.7989 0.7996 0.8004 0.8010 0.8016
3057.000000 0.8020 0.8024 0.8027 0.8031 0.8034
3062.000000 0.8038 0.8039 0.8040 0.8040 0.8040
3067.000000 0.8040 0.8040 0.8037 0.8035 0.8031
3072.000000 0.8027 0.8023 0.8020 0.8016 0.8012
3077.000000 0.8008 0.8005 0.8001 0.7997 0.7993
3082.000000 0.7990 0.7987 0.7985 0.7984 0.7984
3087.000000 0.7983 0.7982 0.7981 0.7981 0.7982
3092.000000 0.7984 0.7985 0.7986 0.7987 0.7988
3097.000000 0.7990 0.7992 0.7994 0.7996 0.7998
3102.000000 0.8000 0.8002 0.8004 0.8006 0.8008
3107.000000 0.8009 0.8011 0.8012 0.8013 0.8014
3112.000000 0.8015 0.8013 0.8011 0.8009 0.8008
3117.000000 0.8006 0.8004 0.8002 0.8000 0.7998
3122.000000 0.7996 0.7997 0.7999 0.8000 0.8002
3127.000000 0.8006 0.8010 0.8014 0.8019 0.8024
3132.000000 0.8030 0.8035 0.8041 0.8047 0.8054
3137.000000 0.8066 0.8079 0.8090 0.8102 0.8112
3142.000000 0.8122 0.8131 0.8141 0.8152 0.8163
3147.000000 0.8174 0.8186 0.8197 0.8209 0.8220
3152.000000 0.8231 0.8241 0.8251 0.8254 0.8258
3157.000000 0.8260 0.8262 0.8264 0.8266 0.8266
3162.000000 0.8266 0.8265 0.8265 0.8260 0.8256
3167.000000 0.8252 0.8248 0.8238 0.8228 0.8217
3172.000000 0.8207 0.8195 0.8183 0.8169 0.8156
3177.000000 0.8142 0.8128 0.8115 0.8102 0.8089
3182.000000 0.8077 0.8064 0.8052 0.8039 0.8026
3187.000000 0.8016 0.8006 0.8000 0.7994 0.7988
3192.000000 0.7983 0.7977 0.7971 0.7965 0.7960
3197.000000 0.7958 0.7956 0.7957 0.7959 0.7960
3202.000000 0.7962 0.7963 0.7965 0.7966 0.7968
3207.000000 0.7970 0.7972 0.7973 0.7975 0.7977
3212.000000 0.7980 0.7984 0.7988 0.7992 0.7997
3217.000000 0.8002 0.8007 0.8017 0.8027 0.8037
3222.000000 0.8048 0.8063 0.8078 0.8093 0.8108
3227.000000 0.8123 0.8138 0.8153 0.8168 0.8183
3232.000000 0.8199 0.8214 0.8230 0.8245 0.8261
3237.000000 0.8276 0.8291 0.8306 0.8321 0.8336
3242.000000 0.8351 0.8365 0.8380 0.8395 0.8410
3247.000000 0.8425 0.8440 0.8454 0.8469 0.8484
3252.000000 0.8499 0.8514 0.8529 0.8544 0.8559
3257.000000 0.8574 0.8589 0.8603 0.8618 0.8626
3262.000000 0.8635 0.8644 0.8653 0.8661 0.8670
3267.000000 0.8678 0.8687 0.8692 0.8697 0.8702
3272.000000 0.8707 0.8712 0.8717 0.8722 0.8727
3277.000000 0.8727 0.8727 0.8727 0.8727 0.8727
3282.000000 0.8727 0.8727 0.8727 0.8728 0.8729
3287.000000 0.8729 0.8730 0.8730 0.8731 0.8731
3292.000000 0.8732 0.8732 0.8733 0.8733 0.8734
3297.000000 0.8734 0.8735 0.8735 0.8735 0.8735
3302.000000 0.8735 0.8735 0.8736 0.8736 0.8736
3307.000000 0.8736 0.8736 0.8736 0.8737 0.8737
3312.000000 0.8737 0.8737 0.8737 0.8737 0.8738
3317.000000 0.8737 0.8737 0.8736 0.8736 0.8735
3322.000000 0.8735 0.8734 0.8733 0.8732 0.8732
3327.000000 0.8731 0.8731 0.8730 0.8729 0.8728
3332.000000 0.8728 0.8727 0.8727 0.8726 0.8725
3337.000000 0.8724 0.8723 0.8721 0.8720 0.8718
3342.000000 0.8717 0.8716 0.8715 0.8713 0.8712
3347.000000 0.8710 0.8709 0.8708 0.8707 0.8705
3352.000000 0.8704 0.8702 0.8701 0.8698 0.8696
3357.000000 0.8693 0.8690 0.8687 0.8685 0.8679
3362.000000 0.8673 0.8663 0.8654 0.8644 0.8635
3367.000000 0.8625 0.8615 0.8609 0.8603 0.8598
3372.000000 0.8593 0.8589 0.8585 0.8581 0.8578
3377.000000 0.8575 0.8572 0.8568 0.8565 0.8562
3382.000000 0.8559 0.8555 0.8551 0.8546 0.8542
3387.000000 0.8538 0.8534 0.8530 0.8526 0.8521
3392.000000 0.8517 0.8513 0.8510 0.8507 0.8504
3397.000000 0.8501 0.8499 0.8507 0.8515 0.8524
3402.000000 0.8533 0.8543 0.8553 0.8565 0.8577
3407.000000 0.8589 0.8602 0.8613 0.8624 0.8632
3412.000000 0.8641 0.8650 0.8659 0.8668 0.8677
3417.000000 0.8687 0.8698 0.8708 0.8719 0.8729
3422.000000 0.8739 0.8745 0.8751 0.8757 0.8763
3427.000000 0.8768 0.8774 0.8779 0.8785 0.8787
3432.000000 0.8790 0.8792 0.8794 0.8796 0.8799
3437.000000 0.8801 0.8803 0.8803 0.8804 0.8804
3442.000000 0.8804 0.8804 0.8804 0.8804 0.8804
3447.000000 0.8804 0.8804 0.8804 0.8805 0.8805
3452.000000 0.8806 0.8807 0.8808 0.8809 0.8810
3457.000000 0.8811 0.8812 0.8813 0.8814 0.8815
3462.000000 0.8816 0.8817 0.8818 0.8819 0.8820
3467.000000 0.8821 0.8822 0.8823 0.8824 0.8825
3472.000000 0.8826 0.8827 0.8829 0.8830 0.8831
3477.000000 0.8832 0.8833 0.8834 0.8835 0.8836
3482.000000 0.8837 0.8838 0.8839 0.8840 0.8842
3487.000000 0.8843 0.8844 0.8845 0.8846 0.8847
3492.000000 0.8848 0.8849 0.8850 0.8851 0.8852
3497.000000 0.8853 0.8855 0.8861 0.8868 0.8871
3502.000000 0.8874 0.8874 0.8875 0.8877 0.8879
3507.000000 0.8881 0.8883 0.8885 0.8887 0.8889
3512.000000 0.8891 0.8893 0.8895 0.8897 0.8899
3517.000000 0.8901 0.8903 0.8905 0.8907 0.8908
3522.000000 0.8910 0.8910 0.8911 0.8911 0.8912
3527.000000 0.8912 0.8912 0.8912 0.8913 0.8912
3532.000000 0.8912 0.8910 0.8909 0.8908 0.8907
3537.000000 0.8905 0.8904 0.8903 0.8902 0.8900
3542.000000 0.8899 0.8897 0.8896 0.8894 0.8893
3547.000000 0.8891 0.8890 0.8888 0.8887 0.8885
3552.000000 0.8883 0.8880 0.8878 0.8875 0.8873
3557.000000 0.8870 0.8867 0.8864 0.8862 0.8859
3562.000000 0.8857 0.8854 0.8851 0.8847 0.8844
3567.000000 0.8840 0.8837 0.8833 0.8830 0.8827
3572.000000 0.8824 0.8820 0.8817 0.8813 0.8835
3577.000000 0.8807 0.8805 0.8802 0.8799 0.8796
3582.000000 0.8794 0.8791 0.8788 0.8785 0.8783
3587.000000 0.8780 0.8777 0.8777 0.8777 0.8777
3592.000000 0.8777 0.8777 0.8778 0.8778 0.8779
3597.000000 0.8779 0.8779 0.8779 0.8779 0.8778
3602.000000 0.8778 0.8777 0.8777 0.8776 0.8775
3607.000000 0.8768 0.8761 0.8752 0.8744 0.8744
3612.000000 0.8744 0.8752 0.8761 0.8776 0.8791
3617.000000 0.8800 0.8809 0.8817 0.8826 0.8826
3622.000000 0.8827 0.8828 0.8829 0.8826 0.8823
3627.000000 0.8818 0.8814 0.8808 0.8802 0.8795
3632.000000 0.8788 0.8781 0.8774 0.8778 0.8783
3637.000000 0.8797 0.8812 0.8825 0.8838 0.8840
3642.000000 0.8843 0.8845 0.8847 0.8845 0.8844
3647.000000 0.8842 0.8841 0.8836 0.8831 0.8824
3652.000000 0.8817 0.8810 0.8803 0.8797 0.8791
3657.000000 0.8784 0.8778 0.8778 0.8778 0.8785
3662.000000 0.8792 0.8802 0.8813 0.8814 0.8816
3667.000000 0.8816 0.8816 0.8813 0.8810 0.8806
3672.000000 0.8803 0.8797 0.8791 0.8785 0.8780
3677.000000 0.8774 0.8768 0.8765 0.8763 0.8761
3682.000000 0.8760 0.8758 0.8757 0.8755 0.8754
3687.000000 0.8758 0.8762 0.8766 0.8771 0.8776
3692.000000 0.8781 0.8788 0.8795 0.8802 0.8809
3697.000000 0.8811 0.8814 0.8813 0.8812 0.8806
3702.000000 0.8801 0.8795 0.8789 0.8784 0.8780
3707.000000 0.8780 0.8780 0.8780 0.8780 0.8780
3712.000000 0.8780 0.8782 0.8784 0.8787 0.8791
3717.000000 0.8796 0.8801 0.8806 0.8811 0.8816
3722.000000 0.8822 0.8825 0.8829 0.8832 0.8835
3727.000000 0.8838 0.8841 0.8843 0.8846 0.8849
3732.000000 0.8852 0.8855 0.8858 0.8860 0.8863
3737.000000 0.8866 0.8869 0.8871 0.8873 0.8873
3742.000000 0.8874 0.8874 0.8875 0.8876 0.8877
3747.000000 0.8877 0.8878 0.8878 0.8879 0.8878
3752.000000 0.8878 0.8875 0.8873 0.8870 0.8868
3757.000000 0.8866 0.8864 0.8861 0.8859 0.8856
3762.000000 0.8853 0.8849 0.8845 0.8841 0.8837
3767.000000 0.8833 0.8829 0.8825 0.8821 0.8816
3772.000000 0.8811 0.8801 0.8792 0.8772 0.8752
3777.000000 0.8733 0.8714 0.8699 0.8684 0.8673
3782.000000 0.8663 0.8653 0.8643 0.8637 0.8631
##END=
