##TITLE=Ethane, 1-chloro-1,1-difluoro-
##JCAMP-DX=4.24
##DATA TYPE=INFRARED SPECTRUM
##CLASS=COBLENTZ
##ORIGIN=DOW CHEMICAL COMPANY
##OWNER=Copyright (C) 1987 by the Coblentz Society
Collection (C) 2018 copyright by the U.S. Secretary of Commerce
on behalf of the United States of America. All rights reserved.
##DATE=1964
##NAMES=1-chloro-1,1-difluoroethane
##CAS REGISTRY NO=75-68-3
##MOLFORM=C2 H3 Cl F2
##SOURCE REFERENCE=COBLENTZ NO. 8836
##$NIST SOURCE=COBLENTZ
##$NIST IMAGE=cob8836
##SPECTROMETER/DATA SYSTEM=DOW KBr FOREPRISM-GRATING
##INSTRUMENT PARAMETERS=GRATING CHANGED AT 5.0, 7.5, 15.0 MICRON
##STATE=GAS (50 mmHg, N2 ADDED, TOTAL PRESSURE 600 mmHg)
##PATH LENGTH=5 CM
##SAMPLING PROCEDURE=TRANSMISSION
##RESOLUTION=2
##DATA PROCESSING=DIGITIZED BY COBLENTZ SOCIETY (BATCH II) FROM HARD COPY
##XUNITS=1/CM
##YUNITS=TRANSMITTANCE
##XFACTOR=1.0
##YFACTOR=1
##FIRSTX=452
##LASTX=3792
##FIRSTY=0.8221
##MAXX=3792
##MINX=452
##MAXY=0.8801
##MINY=0.0439
##NPOINTS=3341
##XYDATA=(X++(Y..Y))
452.000000 0.8221 0.8227 0.8232 0.8236 0.8240
457.000000 0.8245 0.8250 0.8256 0.8261 0.8269
462.000000 0.8277 0.8286 0.8294 0.8302 0.8311
467.000000 0.8321 0.8331 0.8341 0.8352 0.8368
472.000000 0.8387 0.8406 0.8425 0.8444 0.8463
477.000000 0.8480 0.8496 0.8513 0.8530 0.8546
482.000000 0.8563 0.8574 0.8585 0.8596 0.8607
487.000000 0.8618 0.8629 0.8640 0.8648 0.8657
492.000000 0.8665 0.8674 0.8683 0.8691 0.8700
497.000000 0.8708 0.8716 0.8724 0.8727 0.8738
502.000000 0.8743 0.8748 0.8754 0.8759 0.8764
507.000000 0.8767 0.8767 0.8768 0.8768 0.8768
512.000000 0.8765 0.8761 0.8756 0.8752 0.8744
517.000000 0.8731 0.8719 0.8707 0.8684 0.8657
522.000000 0.8629 0.8588 0.8547 0.8506 0.8463
527.000000 0.8419 0.8376 0.8327 0.8276 0.8225
532.000000 0.8170 0.8099 0.8029 0.7974 0.7936
537.000000 0.7929 0.7921 0.7910 0.7899 0.7879
542.000000 0.7825 0.7406 0.7113 0.7109 0.7189
547.000000 0.7303 0.7418 0.7533 0.7648 0.7717
552.000000 0.7731 0.7741 0.7752 0.7778 0.7810
557.000000 0.7844 0.7885 0.7926 0.7975 0.8025
562.000000 0.8085 0.8153 0.8256 0.8366 0.8458
567.000000 0.8521 0.8577 0.8612 0.8638 0.8664
572.000000 0.8684 0.8694 0.8704 0.8714 0.8724
577.000000 0.8732 0.8739 0.8746 0.8752 0.8759
582.000000 0.8765 0.8767 0.8770 0.8773 0.8776
587.000000 0.8778 0.8780 0.8780 0.8779 0.8779
592.000000 0.8778 0.8778 0.8778 0.8777 0.8775
597.000000 0.8801 0.8771 0.8769 0.8767 0.8763
602.000000 0.8758 0.8753 0.8748 0.8743 0.8738
607.000000 0.8733 0.8728 0.8723 0.8718 0.8713
612.000000 0.8708 0.8703 0.8699 0.8700 0.8702
617.000000 0.8703 0.8704 0.8705 0.8706 0.8707
622.000000 0.8708 0.8712 0.8715 0.8719 0.8723
627.000000 0.8726 0.8730 0.8733 0.8737 0.8741
632.000000 0.8746 0.8751 0.8757 0.8762 0.8767
637.000000 0.8773 0.8778 0.8782 0.8786 0.8790
642.000000 0.8795 0.8796 0.8795 0.8794 0.8783
647.000000 0.8768 0.8753 0.8733 0.8710 0.8686
652.000000 0.8649 0.8612 0.8566 0.8508 0.8450
657.000000 0.8382 0.8314 0.8241 0.8165 0.8089
662.000000 0.7952 0.7817 0.7700 0.7448 0.7160
667.000000 0.6871 0.6583 0.6294 0.6072 0.6009
672.000000 0.5980 0.6034 0.6150 0.6287 0.6425
677.000000 0.6562 0.6616 0.5781 0.3534 0.3156
682.000000 0.5213 0.6909 0.7062 0.6946 0.6627
687.000000 0.6308 0.5989 0.5670 0.5669 0.5669
692.000000 0.6030 0.6305 0.6579 0.6854 0.7128
697.000000 0.7403 0.7677 0.7952 0.8111 0.8257
702.000000 0.8407 0.8448 0.8480 0.8502 0.8516
707.000000 0.8522 0.8528 0.8534 0.8538 0.8540
712.000000 0.8542 0.8544 0.8544 0.8544 0.8543
717.000000 0.8543 0.8542 0.8542 0.8536 0.8531
722.000000 0.8526 0.8520 0.8515 0.8510 0.8507
727.000000 0.8503 0.8500 0.8496 0.8492 0.8489
732.000000 0.8485 0.8482 0.8478 0.8475 0.8471
737.000000 0.8467 0.8464 0.8460 0.8457 0.8453
742.000000 0.8449 0.8446 0.8442 0.8439 0.8435
747.000000 0.8432 0.8430 0.8427 0.8425 0.8423
752.000000 0.8420 0.8418 0.8415 0.8413 0.8410
757.000000 0.8408 0.8405 0.8401 0.8398 0.8395
762.000000 0.8392 0.8389 0.8385 0.8382 0.8379
767.000000 0.8376 0.8373 0.8372 0.8372 0.8372
772.000000 0.8372 0.8372 0.8373 0.8369 0.8373
777.000000 0.8373 0.8373 0.8372 0.8372 0.8372
782.000000 0.8371 0.8371 0.8369 0.8365 0.8360
787.000000 0.8355 0.8351 0.8347 0.8344 0.8341
792.000000 0.8338 0.8335 0.8332 0.8329 0.8329
797.000000 0.8328 0.8328 0.8327 0.8327 0.8326
802.000000 0.8326 0.8325 0.8325 0.8324 0.8324
807.000000 0.8324 0.8326 0.8327 0.8329 0.8331
812.000000 0.8332 0.8334 0.8336 0.8337 0.8337
817.000000 0.8338 0.8339 0.8340 0.8340 0.8341
822.000000 0.8340 0.8336 0.8332 0.8328 0.8324
827.000000 0.8320 0.8316 0.8312 0.8308 0.8305
832.000000 0.8301 0.8298 0.8294 0.8291 0.8287
837.000000 0.8284 0.8280 0.8277 0.8273 0.8268
842.000000 0.8264 0.8259 0.8254 0.8250 0.8245
847.000000 0.8241 0.8236 0.8231 0.8227 0.8222
852.000000 0.8218 0.8218 0.8217 0.8216 0.8215
857.000000 0.8214 0.8213 0.8213 0.8211 0.8207
862.000000 0.8202 0.8198 0.8194 0.8190 0.8179
867.000000 0.8169 0.8157 0.8144 0.8131 0.8117
872.000000 0.8104 0.8062 0.8015 0.7951 0.7882
877.000000 0.7806 0.7728 0.7550 0.7377 0.7101
882.000000 0.6748 0.6396 0.6044 0.5691 0.5339
887.000000 0.4986 0.4634 0.4281 0.3929 0.3577
892.000000 0.3488 0.3549 0.3612 0.3720 0.3690
897.000000 0.3069 0.2006 0.0943 0.0644 0.0656
902.000000 0.2915 0.4817 0.4823 0.4603 0.4192
907.000000 0.3780 0.3369 0.2958 0.2682 0.2946
912.000000 0.3425 0.3905 0.4384 0.4864 0.5343
917.000000 0.5823 0.6302 0.6782 0.7261 0.7746
922.000000 0.7941 0.8047 0.8114 0.8163 0.8196
927.000000 0.8228 0.8242 0.8256 0.8262 0.8264
932.000000 0.8262 0.8254 0.8245 0.8227 0.8206
937.000000 0.8161 0.8027 0.7847 0.7686 0.7525
942.000000 0.7364 0.7202 0.7041 0.6880 0.6719
947.000000 0.6558 0.6397 0.6235 0.6074 0.5976
952.000000 0.5921 0.5874 0.5852 0.5831 0.5806
957.000000 0.5781 0.5727 0.5649 0.5439 0.4919
962.000000 0.4601 0.4182 0.3763 0.3635 0.3982
967.000000 0.4567 0.5152 0.5737 0.5852 0.5919
972.000000 0.5952 0.5975 0.5997 0.6020 0.6062
977.000000 0.6111 0.6182 0.6266 0.6520 0.6714
982.000000 0.6910 0.7087 0.7386 0.7562 0.7709
987.000000 0.7837 0.7941 0.8040 0.8104 0.8156
992.000000 0.8197 0.8217 0.8236 0.8250 0.8258
997.000000 0.8265 0.8271 0.8278 0.8284 0.8281
1002.000000 0.8277 0.8274 0.8270 0.8265 0.8260
1007.000000 0.8259 0.8259 0.8259 0.8262 0.8265
1012.000000 0.8271 0.8282 0.8292 0.8303 0.8313
1017.000000 0.8323 0.8330 0.8338 0.8345 0.8352
1022.000000 0.8360 0.8367 0.8374 0.8382 0.8383
1027.000000 0.8388 0.8393 0.8397 0.8402 0.8406
1032.000000 0.8409 0.8413 0.8416 0.8419 0.8423
1037.000000 0.8426 0.8430 0.8430 0.8430 0.8429
1042.000000 0.8429 0.8429 0.8428 0.8428 0.8428
1047.000000 0.8426 0.8423 0.8419 0.8416 0.8413
1052.000000 0.8410 0.8403 0.8394 0.8385 0.8376
1057.000000 0.8366 0.8357 0.8348 0.8339 0.8330
1062.000000 0.8318 0.8306 0.8294 0.8281 0.8269
1067.000000 0.8257 0.8242 0.8222 0.8202 0.8181
1072.000000 0.8151 0.8120 0.8089 0.8058 0.8027
1077.000000 0.7972 0.7909 0.7843 0.7773 0.7702
1082.000000 0.7628 0.7499 0.7378 0.7266 0.7154
1087.000000 0.7056 0.6982 0.6909 0.6835 0.6761
1092.000000 0.6687 0.6600 0.6508 0.6415 0.6323
1097.000000 0.6230 0.6121 0.6008 0.5895 0.5780
1102.000000 0.5660 0.5524 0.5259 0.4684 0.4395
1107.000000 0.4381 0.4946 0.5183 0.5146 0.4864
1112.000000 0.4503 0.4142 0.3992 0.3856 0.3724
1117.000000 0.3580 0.3433 0.3254 0.3069 0.2876
1122.000000 0.2738 0.2681 0.2665 0.2677 0.2666
1127.000000 0.2648 0.2286 0.1923 0.1561 0.1049
1132.000000 0.1049 0.1194 0.1997 0.2938 0.2872
1137.000000 0.2653 0.2433 0.2214 0.1995 0.1776
1142.000000 0.1639 0.1989 0.2582 0.3175 0.3768
1147.000000 0.4361 0.4953 0.5546 0.6111 0.6528
1152.000000 0.7252 0.7375 0.7426 0.7469 0.7491
1157.000000 0.7495 0.7489 0.7493 0.7484 0.7396
1162.000000 0.7277 0.7159 0.7040 0.6922 0.6804
1167.000000 0.6685 0.6567 0.6369 0.5920 0.5470
1172.000000 0.5021 0.4572 0.4123 0.3673 0.3454
1177.000000 0.3305 0.3199 0.3095 0.3029 0.2962
1182.000000 0.2908 0.2854 0.2785 0.2684 0.2564
1187.000000 0.2309 0.1844 0.1333 0.0821 0.0444
1192.000000 0.0439 0.1200 0.1867 0.2375 0.2363
1197.000000 0.2268 0.1945 0.1623 0.1301 0.0983
1202.000000 0.0925 0.1181 0.1500 0.1820 0.2139
1207.000000 0.2458 0.2777 0.2867 0.2935 0.2999
1212.000000 0.3073 0.3163 0.3261 0.3412 0.3586
1217.000000 0.3936 0.4061 0.4097 0.4131 0.4184
1222.000000 0.4248 0.4339 0.4439 0.4540 0.4591
1227.000000 0.4641 0.4667 0.4626 0.4564 0.4506
1232.000000 0.4513 0.4918 0.5041 0.5172 0.5362
1237.000000 0.5588 0.6097 0.6300 0.6413 0.6602
1242.000000 0.6655 0.6708 0.6766 0.6829 0.6943
1247.000000 0.7307 0.7503 0.7641 0.7761 0.7830
1252.000000 0.7891 0.7953 0.8024 0.8095 0.8155
1257.000000 0.8213 0.8268 0.8304 0.8340 0.8375
1262.000000 0.8392 0.8405 0.8418 0.8428 0.8430
1267.000000 0.8432 0.8435 0.8437 0.8439 0.8439
1272.000000 0.8436 0.8434 0.8431 0.8428 0.8425
1277.000000 0.8422 0.8419 0.8416 0.8412 0.8409
1282.000000 0.8405 0.8402 0.8399 0.8395 0.8392
1287.000000 0.8388 0.8384 0.8381 0.8377 0.8373
1292.000000 0.8370 0.8369 0.8368 0.8371 0.8367
1297.000000 0.8366 0.8365 0.8365 0.8364 0.8364
1302.000000 0.8365 0.8365 0.8366 0.8366 0.8367
1307.000000 0.8367 0.8368 0.8369 0.8369 0.8370
1312.000000 0.8371 0.8373 0.8374 0.8375 0.8376
1317.000000 0.8378 0.8376 0.8373 0.8370 0.8366
1322.000000 0.8363 0.8360 0.8357 0.8354 0.8351
1327.000000 0.8348 0.8345 0.8342 0.8339 0.8335
1332.000000 0.8331 0.8328 0.8324 0.8320 0.8381
1337.000000 0.8462 0.8542 0.8494 0.8402 0.8323
1342.000000 0.8320 0.8320 0.8319 0.8318 0.8317
1347.000000 0.8317 0.8317 0.8317 0.8317 0.8318
1352.000000 0.8318 0.8318 0.8318 0.8318 0.8316
1357.000000 0.8312 0.8309 0.8306 0.8299 0.8281
1362.000000 0.8263 0.8241 0.8219 0.8196 0.8116
1367.000000 0.8024 0.7932 0.7841 0.7749 0.7657
1372.000000 0.7565 0.7474 0.7382 0.7290 0.7198
1377.000000 0.7067 0.6947 0.6830 0.6718 0.6659
1382.000000 0.6600 0.6552 0.6519 0.6487 0.6474
1387.000000 0.6466 0.6460 0.6317 0.6117 0.5917
1392.000000 0.5717 0.5517 0.5317 0.5117 0.4917
1397.000000 0.4814 0.5290 0.5921 0.6551 0.6590
1402.000000 0.6609 0.6628 0.6661 0.6701 0.6731
1407.000000 0.6761 0.6804 0.6849 0.6949 0.7664
1412.000000 0.7832 0.7963 0.8062 0.8107 0.8151
1417.000000 0.8190 0.8216 0.8240 0.8259 0.8250
1422.000000 0.8244 0.8237 0.8222 0.8206 0.8190
1427.000000 0.8171 0.8152 0.8134 0.8115 0.8096
1432.000000 0.8080 0.8064 0.8049 0.8033 0.8017
1437.000000 0.8001 0.7986 0.7970 0.7955 0.7939
1442.000000 0.7928 0.7918 0.7909 0.7918 0.7888
1447.000000 0.7961 0.7999 0.8040 0.8080 0.8111
1452.000000 0.8131 0.8137 0.8144 0.8147 0.8149
1457.000000 0.8152 0.8154 0.8158 0.8183 0.8211
1462.000000 0.8231 0.8251 0.8265 0.8276 0.8284
1467.000000 0.8291 0.8297 0.8303 0.8309 0.8311
1472.000000 0.8313 0.8314 0.8314 0.8314 0.8314
1477.000000 0.8315 0.8315 0.8315 0.8315 0.8315
1482.000000 0.8316 0.8318 0.8319 0.8322 0.8328
1487.000000 0.8335 0.8341 0.8347 0.8351 0.8356
1492.000000 0.8359 0.8359 0.8358 0.8358 0.8358
1497.000000 0.8357 0.8357 0.8365 0.8374 0.8385
1502.000000 0.8399 0.8411 0.8403 0.8395 0.8388
1507.000000 0.8380 0.8371 0.8361 0.8352 0.8343
1512.000000 0.8338 0.8336 0.8340 0.8345 0.8350
1517.000000 0.8353 0.8355 0.8357 0.8359 0.8358
1522.000000 0.8351 0.8345 0.8338 0.8335 0.8337
1527.000000 0.8340 0.8342 0.8345 0.8347 0.8350
1532.000000 0.8356 0.8363 0.8369 0.8378 0.8394
1537.000000 0.8410 0.8415 0.8416 0.8408 0.8397
1542.000000 0.8384 0.8370 0.8359 0.8353 0.8347
1547.000000 0.8341 0.8338 0.8339 0.8341 0.8343
1552.000000 0.8346 0.8349 0.8353 0.8357 0.8361
1557.000000 0.8365 0.8349 0.8328 0.8306 0.8281
1562.000000 0.8254 0.8248 0.8249 0.8250 0.8251
1567.000000 0.8253 0.8256 0.8259 0.8259 0.8257
1572.000000 0.8256 0.8254 0.8253 0.8251 0.8248
1577.000000 0.8238 0.8228 0.8218 0.8210 0.8204
1582.000000 0.8197 0.8193 0.8196 0.8199 0.8203
1587.000000 0.8207 0.8211 0.8215 0.8219 0.8223
1592.000000 0.8227 0.8231 0.8236 0.8242 0.8248
1597.000000 0.8254 0.8261 0.8267 0.8273 0.8279
1602.000000 0.8283 0.8287 0.8290 0.8294 0.8298
1607.000000 0.8302 0.8305 0.8309 0.8313 0.8313
1612.000000 0.8314 0.8314 0.8315 0.8315 0.8316
1617.000000 0.8316 0.8317 0.8317 0.8318 0.8318
1622.000000 0.8319 0.8320 0.8321 0.8322 0.8323
1627.000000 0.8324 0.8325 0.8326 0.8327 0.8330
1632.000000 0.8332 0.8335 0.8338 0.8339 0.8339
1637.000000 0.8338 0.8337 0.8337 0.8341 0.8346
1642.000000 0.8351 0.8356 0.8359 0.8360 0.8358
1647.000000 0.8356 0.8355 0.8353 0.8351 0.8350
1652.000000 0.8349 0.8348 0.8347 0.8346 0.8343
1657.000000 0.8340 0.8336 0.8333 0.8332 0.8332
1662.000000 0.8332 0.8333 0.8338 0.8343 0.8349
1667.000000 0.8355 0.8360 0.8366 0.8370 0.8375
1672.000000 0.8379 0.8381 0.8382 0.8383 0.8384
1677.000000 0.8385 0.8389 0.8395 0.8401 0.8407
1682.000000 0.8415 0.8413 0.8405 0.8393 0.8384
1687.000000 0.8377 0.8377 0.8379 0.8383 0.8387
1692.000000 0.8397 0.8409 0.8420 0.8430 0.8434
1697.000000 0.8437 0.8434 0.8427 0.8419 0.8411
1702.000000 0.8403 0.8396 0.8389 0.8390 0.8390
1707.000000 0.8390 0.8395 0.8401 0.8409 0.8423
1712.000000 0.8439 0.8448 0.8447 0.8446 0.8444
1717.000000 0.8431 0.8418 0.8405 0.8394 0.8387
1722.000000 0.8386 0.8385 0.8385 0.8385 0.8384
1727.000000 0.8384 0.8384 0.8384 0.8384 0.8384
1732.000000 0.8384 0.8384 0.8384 0.8384 0.8384
1737.000000 0.8384 0.8384 0.8383 0.8386 0.8387
1742.000000 0.8387 0.8386 0.8385 0.8385 0.8382
1747.000000 0.8380 0.8377 0.8374 0.8371 0.8368
1752.000000 0.8365 0.8362 0.8358 0.8355 0.8352
1757.000000 0.8351 0.8349 0.8348 0.8347 0.8346
1762.000000 0.8345 0.8346 0.8348 0.8350 0.8352
1767.000000 0.8355 0.8359 0.8362 0.8364 0.8361
1772.000000 0.8357 0.8353 0.8347 0.8341 0.8339
1777.000000 0.8340 0.8341 0.8342 0.8343 0.8345
1782.000000 0.8348 0.8351 0.8354 0.8357 0.8360
1787.000000 0.8364 0.8367 0.8370 0.8373 0.8376
1792.000000 0.8375 0.8374 0.8373 0.8371 0.8368
1797.000000 0.8366 0.8364 0.8362 0.8360 0.8358
1802.000000 0.8356 0.8354 0.8351 0.8350 0.8348
1807.000000 0.8347 0.8345 0.8343 0.8342 0.8340
1812.000000 0.8338 0.8337 0.8338 0.8339 0.8339
1817.000000 0.8340 0.8341 0.8341 0.8342 0.8343
1822.000000 0.8345 0.8347 0.8350 0.8352 0.8354
1827.000000 0.8354 0.8353 0.8352 0.8351 0.8351
1832.000000 0.8350 0.8349 0.8348 0.8346 0.8345
1837.000000 0.8343 0.8342 0.8340 0.8339 0.8337
1842.000000 0.8336 0.8334 0.8333 0.8331 0.8329
1847.000000 0.8326 0.8323 0.8321 0.8318 0.8315
1852.000000 0.8312 0.8310 0.8307 0.8303 0.8300
1857.000000 0.8297 0.8294 0.8293 0.8293 0.8292
1862.000000 0.8291 0.8290 0.8290 0.8289 0.8288
1867.000000 0.8288 0.8288 0.8288 0.8289 0.8289
1872.000000 0.8290 0.8291 0.8291 0.8292 0.8293
1877.000000 0.8294 0.8297 0.8299 0.8301 0.8304
1882.000000 0.8306 0.8310 0.8314 0.8318 0.8322
1887.000000 0.8326 0.8331 0.8334 0.8335 0.8336
1892.000000 0.8337 0.8338 0.8339 0.8342 0.8343
1897.000000 0.8344 0.8345 0.8345 0.8346 0.8347
1902.000000 0.8347 0.8347 0.8347 0.8346 0.8346
1907.000000 0.8346 0.8345 0.8345 0.8342 0.8337
1912.000000 0.8332 0.8328 0.8323 0.8318 0.8313
1917.000000 0.8309 0.8304 0.8300 0.8296 0.8292
1922.000000 0.8288 0.8284 0.8280 0.8278 0.8279
1927.000000 0.8279 0.8280 0.8281 0.8282 0.8282
1932.000000 0.8285 0.8288 0.8291 0.8294 0.8299
1937.000000 0.8304 0.8309 0.8314 0.8319 0.8324
1942.000000 0.8330 0.8335 0.8340 0.8346 0.8351
1947.000000 0.8353 0.8355 0.8357 0.8359 0.8361
1952.000000 0.8363 0.8365 0.8367 0.8366 0.8364
1957.000000 0.8362 0.8360 0.8358 0.8355 0.8352
1962.000000 0.8350 0.8347 0.8345 0.8345 0.8345
1967.000000 0.8344 0.8344 0.8344 0.8343 0.8344
1972.000000 0.8346 0.8348 0.8350 0.8351 0.8353
1977.000000 0.8355 0.8357 0.8359 0.8361 0.8362
1982.000000 0.8364 0.8366 0.8367 0.8368 0.8369
1987.000000 0.8370 0.8370 0.8371 0.8371 0.8372
1992.000000 0.8373 0.8373 0.8374 0.8371 0.8369
1997.000000 0.8366 0.8363 0.8360 0.8372 0.8398
2002.000000 0.8425 0.8425 0.8426 0.8417 0.8409
2007.000000 0.8398 0.8387 0.8387 0.8387 0.8385
2012.000000 0.8384 0.8381 0.8379 0.8377 0.8375
2017.000000 0.8373 0.8372 0.8371 0.8371 0.8371
2022.000000 0.8371 0.8370 0.8370 0.8369 0.8369
2027.000000 0.8369 0.8369 0.8369 0.8370 0.8370
2032.000000 0.8370 0.8370 0.8370 0.8370 0.8370
2037.000000 0.8370 0.8370 0.8370 0.8370 0.8370
2042.000000 0.8371 0.8371 0.8371 0.8371 0.8371
2047.000000 0.8371 0.8371 0.8370 0.8369 0.8367
2052.000000 0.8366 0.8364 0.8363 0.8361 0.8359
2057.000000 0.8357 0.8356 0.8354 0.8353 0.8351
2062.000000 0.8350 0.8348 0.8346 0.8344 0.8342
2067.000000 0.8339 0.8337 0.8335 0.8333 0.8330
2072.000000 0.8328 0.8326 0.8324 0.8321 0.8319
2077.000000 0.8317 0.8315 0.8312 0.8310 0.8307
2082.000000 0.8305 0.8300 0.8296 0.8290 0.8285
2087.000000 0.8280 0.8275 0.8269 0.8264 0.8258
2092.000000 0.8253 0.8247 0.8242 0.8237 0.8233
2097.000000 0.8228 0.8224 0.8225 0.8226 0.8227
2102.000000 0.8229 0.8231 0.8233 0.8235 0.8237
2107.000000 0.8239 0.8241 0.8243 0.8245 0.8247
2112.000000 0.8249 0.8251 0.8254 0.8256 0.8259
2117.000000 0.8261 0.8264 0.8266 0.8269 0.8270
2122.000000 0.8272 0.8273 0.8275 0.8276 0.8277
2127.000000 0.8278 0.8280 0.8281 0.8283 0.8284
2132.000000 0.8286 0.8287 0.8289 0.8290 0.8292
2137.000000 0.8293 0.8295 0.8297 0.8299 0.8300
2142.000000 0.8302 0.8304 0.8306 0.8307 0.8309
2147.000000 0.8311 0.8313 0.8314 0.8316 0.8317
2152.000000 0.8319 0.8321 0.8323 0.8324 0.8326
2157.000000 0.8328 0.8330 0.8331 0.8332 0.8333
2162.000000 0.8334 0.8335 0.8336 0.8337 0.8338
2167.000000 0.8339 0.8340 0.8341 0.8342 0.8343
2172.000000 0.8344 0.8345 0.8346 0.8347 0.8348
2177.000000 0.8349 0.8350 0.8351 0.8352 0.8353
2182.000000 0.8354 0.8354 0.8355 0.8356 0.8357
2187.000000 0.8357 0.8358 0.8358 0.8359 0.8359
2192.000000 0.8360 0.8361 0.8362 0.8362 0.8363
2197.000000 0.8363 0.8364 0.8364 0.8365 0.8366
2202.000000 0.8367 0.8367 0.8368 0.8368 0.8369
2207.000000 0.8370 0.8371 0.8371 0.8372 0.8372
2212.000000 0.8373 0.8373 0.8374 0.8375 0.8376
2217.000000 0.8376 0.8377 0.8377 0.8377 0.8377
2222.000000 0.8378 0.8378 0.8379 0.8379 0.8379
2227.000000 0.8379 0.8380 0.8380 0.8380 0.8380
2232.000000 0.8381 0.8381 0.8382 0.8382 0.8382
2237.000000 0.8382 0.8382 0.8381 0.8381 0.8380
2242.000000 0.8380 0.8380 0.8380 0.8379 0.8379
2247.000000 0.8378 0.8378 0.8378 0.8378 0.8377
2252.000000 0.8377 0.8376 0.8376 0.8376 0.8376
2257.000000 0.8375 0.8375 0.8374 0.8374 0.8374
2262.000000 0.8374 0.8373 0.8373 0.8372 0.8372
2267.000000 0.8371 0.8370 0.8369 0.8369 0.8368
2272.000000 0.8367 0.8366 0.8366 0.8365 0.8364
2277.000000 0.8363 0.8363 0.8362 0.8361 0.8360
2282.000000 0.8359 0.8358 0.8358 0.8357 0.8356
2287.000000 0.8355 0.8355 0.8354 0.8354 0.8354
2292.000000 0.8354 0.8353 0.8353 0.8352 0.8352
2297.000000 0.8352 0.8352 0.8351 0.8351 0.8351
2302.000000 0.8351 0.8350 0.8350 0.8349 0.8349
2307.000000 0.8353 0.8357 0.8361 0.8366 0.8371
2312.000000 0.8376 0.8382 0.8388 0.8394 0.8400
2317.000000 0.8406 0.8412 0.8419 0.8426 0.8434
2322.000000 0.8442 0.8450 0.8458 0.8466 0.8475
2327.000000 0.8477 0.8479 0.8479 0.8479 0.8478
2332.000000 0.8477 0.8475 0.8473 0.8471 0.8469
2337.000000 0.8466 0.8464 0.8461 0.8459 0.8457
2342.000000 0.8455 0.8452 0.8449 0.8446 0.8444
2347.000000 0.8441 0.8438 0.8435 0.8433 0.8429
2352.000000 0.8426 0.8423 0.8420 0.8417 0.8414
2357.000000 0.8410 0.8407 0.8404 0.8401 0.8398
2362.000000 0.8395 0.8392 0.8390 0.8387 0.8384
2367.000000 0.8381 0.8379 0.8376 0.8373 0.8370
2372.000000 0.8368 0.8365 0.8362 0.8361 0.8361
2377.000000 0.8360 0.8360 0.8359 0.8359 0.8358
2382.000000 0.8358 0.8357 0.8357 0.8356 0.8356
2387.000000 0.8356 0.8356 0.8357 0.8358 0.8359
2392.000000 0.8360 0.8361 0.8362 0.8362 0.8363
2397.000000 0.8364 0.8365 0.8366 0.8367 0.8367
2402.000000 0.8368 0.8368 0.8369 0.8370 0.8371
2407.000000 0.8371 0.8372 0.8372 0.8373 0.8373
2412.000000 0.8374 0.8374 0.8375 0.8376 0.8377
2417.000000 0.8377 0.8378 0.8378 0.8379 0.8379
2422.000000 0.8380 0.8380 0.8381 0.8381 0.8382
2427.000000 0.8382 0.8383 0.8384 0.8385 0.8385
2432.000000 0.8386 0.8386 0.8387 0.8387 0.8388
2437.000000 0.8388 0.8389 0.8389 0.8390 0.8391
2442.000000 0.8392 0.8392 0.8393 0.8393 0.8394
2447.000000 0.8395 0.8396 0.8396 0.8397 0.8397
2452.000000 0.8398 0.8399 0.8400 0.8400 0.8401
2457.000000 0.8402 0.8403 0.8403 0.8404 0.8404
2462.000000 0.8405 0.8406 0.8407 0.8407 0.8408
2467.000000 0.8408 0.8409 0.8410 0.8411 0.8411
2472.000000 0.8412 0.8412 0.8413 0.8414 0.8415
2477.000000 0.8415 0.8416 0.8416 0.8417 0.8418
2482.000000 0.8419 0.8419 0.8420 0.8420 0.8421
2487.000000 0.8422 0.8423 0.8423 0.8424 0.8424
2492.000000 0.8425 0.8425 0.8426 0.8427 0.8428
2497.000000 0.8428 0.8429 0.8429 0.8430 0.8431
2502.000000 0.8432 0.8432 0.8433 0.8433 0.8434
2507.000000 0.8434 0.8435 0.8435 0.8436 0.8436
2512.000000 0.8437 0.8437 0.8438 0.8439 0.8440
2517.000000 0.8440 0.8441 0.8441 0.8442 0.8442
2522.000000 0.8443 0.8443 0.8444 0.8443 0.8443
2527.000000 0.8442 0.8441 0.8440 0.8440 0.8439
2532.000000 0.8439 0.8438 0.8438 0.8437 0.8437
2537.000000 0.8436 0.8436 0.8435 0.8435 0.8434
2542.000000 0.8434 0.8433 0.8433 0.8432 0.8432
2547.000000 0.8431 0.8431 0.8430 0.8429 0.8428
2552.000000 0.8427 0.8426 0.8425 0.8424 0.8423
2557.000000 0.8422 0.8421 0.8420 0.8419 0.8418
2562.000000 0.8417 0.8416 0.8415 0.8414 0.8413
2567.000000 0.8412 0.8411 0.8410 0.8409 0.8407
2572.000000 0.8406 0.8405 0.8404 0.8403 0.8402
2577.000000 0.8400 0.8399 0.8398 0.8397 0.8396
2582.000000 0.8395 0.8392 0.8390 0.8387 0.8385
2587.000000 0.8383 0.8381 0.8378 0.8376 0.8294
2592.000000 0.8212 0.8127 0.8043 0.8038 0.8033
2597.000000 0.8050 0.8067 0.8129 0.8191 0.8252
2602.000000 0.8314 0.8345 0.8377 0.8377 0.8377
2607.000000 0.8377 0.8378 0.8379 0.8380 0.8381
2612.000000 0.8383 0.8384 0.8385 0.8385 0.8386
2617.000000 0.8386 0.8387 0.8388 0.8389 0.8389
2622.000000 0.8390 0.8389 0.8388 0.8387 0.8387
2627.000000 0.8387 0.8388 0.8389 0.8390 0.8391
2632.000000 0.8392 0.8393 0.8394 0.8395 0.8396
2637.000000 0.8397 0.8398 0.8399 0.8401 0.8402
2642.000000 0.8403 0.8403 0.8404 0.8405 0.8406
2647.000000 0.8406 0.8407 0.8408 0.8409 0.8409
2652.000000 0.8410 0.8411 0.8412 0.8412 0.8412
2657.000000 0.8412 0.8413 0.8413 0.8414 0.8414
2662.000000 0.8415 0.8415 0.8416 0.8416 0.8417
2667.000000 0.8417 0.8418 0.8419 0.8420 0.8421
2672.000000 0.8422 0.8422 0.8423 0.8424 0.8425
2677.000000 0.8425 0.8426 0.8427 0.8428 0.8429
2682.000000 0.8430 0.8430 0.8431 0.8432 0.8433
2687.000000 0.8433 0.8433 0.8433 0.8433 0.8433
2692.000000 0.8433 0.8432 0.8432 0.8432 0.8432
2697.000000 0.8432 0.8432 0.8431 0.8431 0.8431
2702.000000 0.8431 0.8431 0.8432 0.8432 0.8433
2707.000000 0.8433 0.8433 0.8433 0.8434 0.8434
2712.000000 0.8435 0.8435 0.8435 0.8436 0.8437
2717.000000 0.8438 0.8439 0.8440 0.8442 0.8443
2722.000000 0.8445 0.8446 0.8448 0.8449 0.8450
2727.000000 0.8451 0.8453 0.8454 0.8456 0.8456
2732.000000 0.8457 0.8457 0.8457 0.8457 0.8457
2737.000000 0.8457 0.8457 0.8457 0.8457 0.8457
2742.000000 0.8457 0.8455 0.8454 0.8451 0.8448
2747.000000 0.8444 0.8441 0.8437 0.8434 0.8431
2752.000000 0.8428 0.8425 0.8422 0.8419 0.8416
2757.000000 0.8413 0.8411 0.8408 0.8405 0.8404
2762.000000 0.8404 0.8403 0.8403 0.8402 0.8402
2767.000000 0.8401 0.8401 0.8400 0.8400 0.8400
2772.000000 0.8400 0.8399 0.8399 0.8398 0.8398
2777.000000 0.8397 0.8397 0.8396 0.8396 0.8395
2782.000000 0.8395 0.8394 0.8394 0.8393 0.8393
2787.000000 0.8392 0.8392 0.8391 0.8391 0.8391
2792.000000 0.8391 0.8391 0.8391 0.8390 0.8390
2797.000000 0.8390 0.8390 0.8390 0.8390 0.8390
2802.000000 0.8390 0.8389 0.8389 0.8389 0.8389
2807.000000 0.8389 0.8389 0.8389 0.8389 0.8389
2812.000000 0.8389 0.8389 0.8390 0.8390 0.8390
2817.000000 0.8390 0.8390 0.8390 0.8390 0.8390
2822.000000 0.8390 0.8390 0.8390 0.8390 0.8391
2827.000000 0.8391 0.8391 0.8391 0.8392 0.8392
2832.000000 0.8392 0.8392 0.8393 0.8393 0.8394
2837.000000 0.8394 0.8394 0.8394 0.8395 0.8396
2842.000000 0.8397 0.8401 0.8405 0.8409 0.8413
2847.000000 0.8415 0.8417 0.8417 0.8418 0.8419
2852.000000 0.8420 0.8420 0.8420 0.8420 0.8420
2857.000000 0.8420 0.8420 0.8419 0.8419 0.8417
2862.000000 0.8416 0.8414 0.8413 0.8411 0.8410
2867.000000 0.8408 0.8407 0.8405 0.8404 0.8403
2872.000000 0.8402 0.8401 0.8400 0.8399 0.8398
2877.000000 0.8398 0.8398 0.8398 0.8398 0.8397
2882.000000 0.8397 0.8397 0.8397 0.8397 0.8397
2887.000000 0.8396 0.8396 0.8396 0.8396 0.8396
2892.000000 0.8396 0.8396 0.8396 0.8396 0.8396
2897.000000 0.8396 0.8396 0.8396 0.8397 0.8397
2902.000000 0.8397 0.8397 0.8397 0.8397 0.8397
2907.000000 0.8396 0.8396 0.8395 0.8395 0.8394
2912.000000 0.8394 0.8393 0.8393 0.8392 0.8392
2917.000000 0.8391 0.8391 0.8390 0.8390 0.8389
2922.000000 0.8389 0.8388 0.8388 0.8387 0.8387
2927.000000 0.8385 0.8384 0.8382 0.8380 0.8378
2932.000000 0.8376 0.8374 0.8372 0.8370 0.8368
2937.000000 0.8366 0.8364 0.8361 0.8359 0.8353
2942.000000 0.8348 0.8342 0.8337 0.8332 0.8327
2947.000000 0.8321 0.8316 0.8310 0.8305 0.8299
2952.000000 0.8293 0.8285 0.8277 0.8276 0.8275
2957.000000 0.8274 0.8273 0.8272 0.8271 0.8270
2962.000000 0.8270 0.8272 0.8274 0.8276 0.8279
2967.000000 0.8282 0.8286 0.8289 0.8292 0.8295
2972.000000 0.8299 0.8305 0.8312 0.8318 0.8325
2977.000000 0.8331 0.8338 0.8341 0.8345 0.8345
2982.000000 0.8345 0.8345 0.8345 0.8345 0.8345
2987.000000 0.8345 0.8345 0.8345 0.8346 0.8346
2992.000000 0.8346 0.8346 0.8346 0.8341 0.8336
2997.000000 0.8330 0.8325 0.8313 0.8301 0.8288
3002.000000 0.8276 0.8261 0.8246 0.8225 0.8205
3007.000000 0.8183 0.8161 0.8134 0.8108 0.8064
3012.000000 0.8020 0.7980 0.7941 0.7923 0.7905
3017.000000 0.7896 0.7887 0.7887 0.7887 0.7894
3022.000000 0.7891 0.7911 0.7921 0.7933 0.7945
3027.000000 0.7963 0.7981 0.8005 0.8029 0.8053
3032.000000 0.8078 0.8101 0.8125 0.8148 0.8171
3037.000000 0.8193 0.8216 0.8235 0.8255 0.8272
3042.000000 0.8289 0.8304 0.8319 0.8330 0.8342
3047.000000 0.8353 0.8364 0.8371 0.8379 0.8383
3052.000000 0.8388 0.8393 0.8398 0.8400 0.8402
3057.000000 0.8404 0.8407 0.8408 0.8410 0.8411
3062.000000 0.8412 0.8412 0.8413 0.8414 0.8415
3067.000000 0.8416 0.8417 0.8417 0.8418 0.8418
3072.000000 0.8419 0.8420 0.8421 0.8421 0.8422
3077.000000 0.8422 0.8423 0.8423 0.8424 0.8425
3082.000000 0.8426 0.8426 0.8427 0.8428 0.8429
3087.000000 0.8430 0.8431 0.8432 0.8433 0.8434
3092.000000 0.8435 0.8435 0.8436 0.8437 0.8438
3097.000000 0.8439 0.8441 0.8442 0.8443 0.8444
3102.000000 0.8446 0.8447 0.8449 0.8450 0.8451
3107.000000 0.8452 0.8454 0.8455 0.8457 0.8458
3112.000000 0.8460 0.8461 0.8462 0.8463 0.8465
3117.000000 0.8466 0.8468 0.8469 0.8470 0.8471
3122.000000 0.8472 0.8472 0.8473 0.8473 0.8474
3127.000000 0.8474 0.8474 0.8474 0.8475 0.8475
3132.000000 0.8476 0.8476 0.8476 0.8476 0.8477
3137.000000 0.8477 0.8477 0.8478 0.8479 0.8480
3142.000000 0.8481 0.8482 0.8483 0.8484 0.8485
3147.000000 0.8486 0.8487 0.8488 0.8489 0.8490
3152.000000 0.8491 0.8491 0.8492 0.8493 0.8494
3157.000000 0.8494 0.8495 0.8495 0.8496 0.8497
3162.000000 0.8498 0.8498 0.8499 0.8499 0.8499
3167.000000 0.8499 0.8500 0.8500 0.8500 0.8500
3172.000000 0.8501 0.8501 0.8501 0.8501 0.8502
3177.000000 0.8502 0.8502 0.8502 0.8503 0.8503
3182.000000 0.8503 0.8503 0.8504 0.8504 0.8504
3187.000000 0.8504 0.8504 0.8504 0.8504 0.8503
3192.000000 0.8503 0.8502 0.8502 0.8502 0.8502
3197.000000 0.8501 0.8501 0.8500 0.8500 0.8500
3202.000000 0.8500 0.8499 0.8499 0.8498 0.8498
3207.000000 0.8498 0.8498 0.8497 0.8497 0.8496
3212.000000 0.8496 0.8496 0.8496 0.8495 0.8495
3217.000000 0.8495 0.8495 0.8495 0.8495 0.8495
3222.000000 0.8495 0.8495 0.8495 0.8494 0.8494
3227.000000 0.8494 0.8494 0.8494 0.8494 0.8494
3232.000000 0.8494 0.8494 0.8494 0.8494 0.8494
3237.000000 0.8494 0.8494 0.8493 0.8493 0.8493
3242.000000 0.8494 0.8494 0.8495 0.8496 0.8497
3247.000000 0.8497 0.8498 0.8498 0.8498 0.8498
3252.000000 0.8498 0.8498 0.8498 0.8498 0.8499
3257.000000 0.8499 0.8499 0.8499 0.8499 0.8498
3262.000000 0.8497 0.8496 0.8495 0.8494 0.8493
3267.000000 0.8491 0.8490 0.8488 0.8486 0.8484
3272.000000 0.8483 0.8481 0.8479 0.8477 0.8475
3277.000000 0.8473 0.8472 0.8471 0.8470 0.8469
3282.000000 0.8469 0.8468 0.8467 0.8466 0.8465
3287.000000 0.8464 0.8463 0.8462 0.8461 0.8460
3292.000000 0.8459 0.8458 0.8458 0.8457 0.8456
3297.000000 0.8455 0.8454 0.8453 0.8453 0.8452
3302.000000 0.8451 0.8450 0.8449 0.8448 0.8448
3307.000000 0.8447 0.8446 0.8445 0.8445 0.8444
3312.000000 0.8444 0.8444 0.8444 0.8443 0.8443
3317.000000 0.8443 0.8443 0.8443 0.8443 0.8442
3322.000000 0.8442 0.8442 0.8443 0.8443 0.8444
3327.000000 0.8445 0.8446 0.8446 0.8447 0.8447
3332.000000 0.8448 0.8449 0.8450 0.8450 0.8451
3337.000000 0.8452 0.8453 0.8453 0.8454 0.8455
3342.000000 0.8456 0.8456 0.8457 0.8458 0.8459
3347.000000 0.8459 0.8460 0.8461 0.8462 0.8463
3352.000000 0.8464 0.8465 0.8467 0.8468 0.8469
3357.000000 0.8470 0.8471 0.8472 0.8473 0.8474
3362.000000 0.8475 0.8476 0.8477 0.8478 0.8479
3367.000000 0.8480 0.8481 0.8482 0.8483 0.8483
3372.000000 0.8484 0.8485 0.8486 0.8487 0.8488
3377.000000 0.8489 0.8490 0.8490 0.8491 0.8492
3382.000000 0.8493 0.8494 0.8495 0.8495 0.8496
3387.000000 0.8497 0.8498 0.8499 0.8500 0.8501
3392.000000 0.8502 0.8502 0.8502 0.8502 0.8502
3397.000000 0.8502 0.8502 0.8502 0.8502 0.8502
3402.000000 0.8502 0.8502 0.8503 0.8503 0.8503
3407.000000 0.8503 0.8503 0.8503 0.8503 0.8503
3412.000000 0.8503 0.8503 0.8503 0.8503 0.8503
3417.000000 0.8503 0.8503 0.8503 0.8503 0.8503
3422.000000 0.8503 0.8502 0.8502 0.8502 0.8502
3427.000000 0.8502 0.8502 0.8502 0.8502 0.8502
3432.000000 0.8502 0.8502 0.8502 0.8502 0.8502
3437.000000 0.8501 0.8501 0.8502 0.8504 0.8505
3442.000000 0.8506 0.8507 0.8508 0.8509 0.8510
3447.000000 0.8511 0.8512 0.8513 0.8515 0.8516
3452.000000 0.8517 0.8518 0.8519 0.8520 0.8521
3457.000000 0.8523 0.8525 0.8527 0.8529 0.8530
3462.000000 0.8532 0.8534 0.8536 0.8538 0.8540
3467.000000 0.8541 0.8542 0.8542 0.8543 0.8543
3472.000000 0.8543 0.8543 0.8543 0.8543 0.8543
3477.000000 0.8543 0.8543 0.8543 0.8544 0.8544
3482.000000 0.8544 0.8544 0.8545 0.8545 0.8546
3487.000000 0.8546 0.8546 0.8546 0.8547 0.8547
3492.000000 0.8547 0.8547 0.8548 0.8548 0.8549
3497.000000 0.8549 0.8549 0.8549 0.8550 0.8550
3502.000000 0.8550 0.8550 0.8551 0.8551 0.8551
3507.000000 0.8551 0.8551 0.8551 0.8552 0.8552
3512.000000 0.8552 0.8552 0.8553 0.8553 0.8553
3517.000000 0.8553 0.8554 0.8554 0.8554 0.8554
3522.000000 0.8555 0.8555 0.8555 0.8555 0.8555
3527.000000 0.8555 0.8556 0.8556 0.8556 0.8556
3532.000000 0.8557 0.8557 0.8557 0.8557 0.8557
3537.000000 0.8557 0.8558 0.8558 0.8558 0.8558
3542.000000 0.8558 0.8558 0.8559 0.8559 0.8559
3547.000000 0.8559 0.8560 0.8560 0.8560 0.8560
3552.000000 0.8560 0.8560 0.8561 0.8561 0.8561
3557.000000 0.8561 0.8561 0.8561 0.8561 0.8561
3562.000000 0.8561 0.8561 0.8561 0.8561 0.8561
3567.000000 0.8560 0.8560 0.8560 0.8560 0.8560
3572.000000 0.8560 0.8560 0.8560 0.8560 0.8560
3577.000000 0.8560 0.8560 0.8560 0.8560 0.8560
3582.000000 0.8560 0.8560 0.8560 0.8560 0.8560
3587.000000 0.8561 0.8562 0.8562 0.8563 0.8563
3592.000000 0.8572 0.8564 0.8565 0.8565 0.8566
3597.000000 0.8566 0.8567 0.8567 0.8568 0.8569
3602.000000 0.8570 0.8570 0.8571 0.8571 0.8572
3607.000000 0.8573 0.8574 0.8574 0.8575 0.8575
3612.000000 0.8576 0.8577 0.8578 0.8578 0.8579
3617.000000 0.8579 0.8580 0.8581 0.8582 0.8582
3622.000000 0.8583 0.8583 0.8584 0.8584 0.8585
3627.000000 0.8585 0.8585 0.8582 0.8579 0.8575
3632.000000 0.8572 0.8568 0.8565 0.8562 0.8560
3637.000000 0.8560 0.8560 0.8560 0.8560 0.8560
3642.000000 0.8560 0.8562 0.8564 0.8566 0.8568
3647.000000 0.8570 0.8572 0.8575 0.8579 0.8582
3652.000000 0.8585 0.8586 0.8587 0.8585 0.8583
3657.000000 0.8580 0.8578 0.8572 0.8567 0.8561
3662.000000 0.8555 0.8549 0.8544 0.8538 0.8533
3667.000000 0.8529 0.8525 0.8521 0.8517 0.8513
3672.000000 0.8510 0.8508 0.8507 0.8505 0.8504
3677.000000 0.8503 0.8502 0.8504 0.8507 0.8510
3682.000000 0.8514 0.8517 0.8521 0.8524 0.8528
3687.000000 0.8532 0.8536 0.8540 0.8544 0.8547
3692.000000 0.8551 0.8555 0.8560 0.8564 0.8569
3697.000000 0.8573 0.8577 0.8580 0.8584 0.8587
3702.000000 0.8590 0.8593 0.8597 0.8600 0.8603
3707.000000 0.8604 0.8606 0.8607 0.8609 0.8610
3712.000000 0.8611 0.8612 0.8614 0.8615 0.8616
3717.000000 0.8614 0.8613 0.8611 0.8610 0.8608
3722.000000 0.8607 0.8604 0.8601 0.8598 0.8595
3727.000000 0.8591 0.8588 0.8583 0.8579 0.8574
3732.000000 0.8569 0.8564 0.8559 0.8555 0.8551
3737.000000 0.8546 0.8542 0.8538 0.8534 0.8531
3742.000000 0.8528 0.8526 0.8524 0.8522 0.8521
3747.000000 0.8519 0.8518 0.8516 0.8515 0.8515
3752.000000 0.8515 0.8515 0.8515 0.8515 0.8515
3757.000000 0.8515 0.8516 0.8517 0.8518 0.8519
3762.000000 0.8520 0.8521 0.8523 0.8524 0.8525
3767.000000 0.8526 0.8528 0.8529 0.8531 0.8533
3772.000000 0.8535 0.8537 0.8539 0.8540 0.8542
3777.000000 0.8543 0.8545 0.8546 0.8548 0.8549
3782.000000 0.8551 0.8552 0.8553 0.8554 0.8556
3787.000000 0.8557 0.8559 0.8560 0.8562 0.8563
3792.000000 0.8564
##END=
