##TITLE=Methane, fluorotrichloro-
##JCAMP-DX=4.24
##DATA TYPE=INFRARED SPECTRUM
##CLASS=COBLENTZ
##ORIGIN=DOW CHEMICAL COMPANY
##OWNER=Copyright (C) 1987 by the Coblentz Society
Collection (C) 2018 copyright by the U.S. Secretary of Commerce
on behalf of the United States of America. All rights reserved.
##DATE=1964
##NAMES=trichloro(fluoro)methane
FREON-11
##CAS REGISTRY NO=75-69-4
##MOLFORM=C Cl3 F
##SOURCE REFERENCE=COBLENTZ NO. 8854
##$NIST SOURCE=COBLENTZ
##$NIST IMAGE=cob8854
##SPECTROMETER/DATA SYSTEM=DOW KBr FOREPRISM-GRATING
##INSTRUMENT PARAMETERS=GRATING CHANGED AT 5.0, 7.5, 15.0 MICRON
##STATE=GAS (40 mmHg, N2 ADDED, TOTAL PRESSURE 600 mmHg)
##PATH LENGTH=5 CM
$$ SPECTRAL CONTAMINATION DUE TO CO2 AROUND 668 CM^-^1
##SAMPLING PROCEDURE=TRANSMISSION
##RESOLUTION=2
##DATA PROCESSING=DIGITIZED BY COBLENTZ SOCIETY (BATCH II) FROM HARD COPY
##XUNITS=1/CM
##YUNITS=TRANSMITTANCE
##XFACTOR=1.0
##YFACTOR=1
##FIRSTX=453
##LASTX=3786
##FIRSTY=0.8531
##MAXX=3786
##MINX=453
##MAXY=0.9057
##MINY=0.0016
##NPOINTS=3334
##XYDATA=(X++(Y..Y))
453.000000 0.8531 0.8535 0.8540 0.8544 0.8545
458.000000 0.8546 0.8547 0.8549 0.8550 0.8551
463.000000 0.8552 0.8551 0.8551 0.8550 0.8549
468.000000 0.8549 0.8548 0.8547 0.8547 0.8546
473.000000 0.8545 0.8545 0.8543 0.8540 0.8538
478.000000 0.8535 0.8533 0.8530 0.8528 0.8525
483.000000 0.8523 0.8520 0.8518 0.8515 0.8512
488.000000 0.8510 0.8509 0.8507 0.8506 0.8504
493.000000 0.8503 0.8501 0.8500 0.8498 0.8497
498.000000 0.8495 0.8497 0.8501 0.8504 0.8507
503.000000 0.8510 0.8513 0.8515 0.8515 0.8515
508.000000 0.8515 0.8515 0.8515 0.8515 0.8510
513.000000 0.8505 0.8500 0.8494 0.8489 0.8483
518.000000 0.8473 0.8464 0.8455 0.8446 0.8437
523.000000 0.8426 0.8415 0.8404 0.8393 0.8383
528.000000 0.8362 0.8337 0.8313 0.8285 0.8232
533.000000 0.8192 0.8178 0.8173 0.8168 0.8183
538.000000 0.8240 0.8293 0.8331 0.8360 0.8369
543.000000 0.8369 0.8369 0.8369 0.8369 0.8375
548.000000 0.8401 0.8431 0.8462 0.8494 0.8531
553.000000 0.8564 0.8586 0.8608 0.8630 0.8652
558.000000 0.8660 0.8669 0.8677 0.8684 0.8687
563.000000 0.8691 0.8694 0.8697 0.8700 0.8703
568.000000 0.8705 0.8707 0.8709 0.8711 0.8713
573.000000 0.8714 0.8714 0.8714 0.8714 0.8714
578.000000 0.8714 0.8714 0.8714 0.8715 0.8716
583.000000 0.8716 0.8717 0.8717 0.8718 0.8719
588.000000 0.8722 0.8720 0.8721 0.8721 0.8722
593.000000 0.8723 0.8724 0.8726 0.8727 0.8729
598.000000 0.8731 0.8732 0.8734 0.8735 0.8737
603.000000 0.8738 0.8738 0.8738 0.8738 0.8738
608.000000 0.8738 0.8738 0.8738 0.8734 0.8728
613.000000 0.8722 0.8717 0.8712 0.8708 0.8713
618.000000 0.8731 0.8755 0.8777 0.8793 0.8789
623.000000 0.8788 0.8787 0.8786 0.8784 0.8782
628.000000 0.8779 0.8777 0.8771 0.8765 0.8760
633.000000 0.8754 0.8748 0.8742 0.8735 0.8729
638.000000 0.8722 0.8716 0.8709 0.8700 0.8691
643.000000 0.8682 0.8672 0.8663 0.8654 0.8645
648.000000 0.8635 0.8630 0.8625 0.8620 0.8615
653.000000 0.8614 0.8617 0.8619 0.8622 0.8625
658.000000 0.8629 0.8637 0.8645 0.8653 0.8667
663.000000 0.8683 0.8694 0.8702 0.6529 0.6526
668.000000 0.6793 0.6490 0.7820 0.8333 0.8504
673.000000 0.8510 0.8517 0.8519 0.8522 0.8524
678.000000 0.8529 0.8533 0.8537 0.8542 0.8549
683.000000 0.8558 0.8567 0.8577 0.8587 0.8597
688.000000 0.8607 0.8621 0.8635 0.8649 0.8660
693.000000 0.8668 0.8677 0.8685 0.8693 0.8702
698.000000 0.8710 0.8716 0.8722 0.8728 0.8734
703.000000 0.8740 0.8745 0.8751 0.8754 0.8755
708.000000 0.8756 0.8757 0.8755 0.8765 0.8747
713.000000 0.8743 0.8734 0.8718 0.8699 0.8699
718.000000 0.8701 0.8723 0.8749 0.8765 0.8765
723.000000 0.8764 0.8760 0.8753 0.8747 0.8732
728.000000 0.8717 0.8702 0.8680 0.8656 0.8632
733.000000 0.8610 0.8590 0.8571 0.8551 0.8531
738.000000 0.8512 0.8492 0.8484 0.8489 0.8493
743.000000 0.8468 0.8503 0.8511 0.8520 0.8529
748.000000 0.8538 0.8547 0.8556 0.8565 0.8575
753.000000 0.8584 0.8596 0.8608 0.8620 0.8632
758.000000 0.8641 0.8644 0.8648 0.8652 0.8651
763.000000 0.8643 0.8635 0.8612 0.8588 0.8562
768.000000 0.8533 0.8504 0.8476 0.8437 0.8395
773.000000 0.8354 0.8312 0.8259 0.8203 0.8147
778.000000 0.8092 0.8038 0.7984 0.7929 0.7882
783.000000 0.7838 0.7794 0.7750 0.7714 0.7686
788.000000 0.7657 0.7629 0.7601 0.7585 0.7569
793.000000 0.7369 0.7161 0.7020 0.7014 0.6989
798.000000 0.7801 0.7801 0.7809 0.7627 0.7539
803.000000 0.7468 0.7439 0.7413 0.7384 0.7343
808.000000 0.7267 0.7026 0.6785 0.6544 0.6303
813.000000 0.6062 0.5821 0.5580 0.5339 0.5114
818.000000 0.4867 0.4721 0.4557 0.4341 0.4071
823.000000 0.3381 0.2692 0.2002 0.1651 0.1412
828.000000 0.0952 0.0518 0.0284 0.0136 0.0099
833.000000 0.0082 0.0069 0.0058 0.0049 0.0042
838.000000 0.0036 0.0031 0.0030 0.0029 0.0016
843.000000 0.0030 0.0032 0.0035 0.0039 0.0043
848.000000 0.0048 0.0053 0.0061 0.0073 0.0299
853.000000 0.0567 0.0834 0.1093 0.1256 0.1576
858.000000 0.2500 0.3424 0.4347 0.5271 0.5763
863.000000 0.7637 0.7817 0.7966 0.8096 0.8218
868.000000 0.8313 0.8384 0.8444 0.8478 0.8512
873.000000 0.8529 0.8547 0.8565 0.8557 0.8560
878.000000 0.8559 0.8555 0.8546 0.8536 0.8526
883.000000 0.8523 0.8524 0.8530 0.8535 0.8540
888.000000 0.8515 0.8563 0.8575 0.8594 0.8615
893.000000 0.8630 0.8642 0.8654 0.8666 0.8673
898.000000 0.8655 0.8681 0.8672 0.8660 0.8641
903.000000 0.8595 0.8536 0.8431 0.8338 0.8261
908.000000 0.8188 0.8103 0.7961 0.7830 0.7702
913.000000 0.7552 0.7342 0.7179 0.7083 0.6987
918.000000 0.6794 0.6560 0.6253 0.5961 0.5760
923.000000 0.5577 0.5421 0.5231 0.5003 0.4979
928.000000 0.4977 0.4987 0.5130 0.5214 0.5242
933.000000 0.5246 0.5358 0.5494 0.5630 0.5765
938.000000 0.5901 0.6401 0.6613 0.6736 0.7189
943.000000 0.7389 0.7564 0.7765 0.8043 0.8643
948.000000 0.8729 0.8794 0.8829 0.8864 0.8888
953.000000 0.8905 0.8922 0.8936 0.8942 0.8947
958.000000 0.8952 0.8957 0.8960 0.8964 0.8967
963.000000 0.8970 0.8970 0.8970 0.8970 0.8970
968.000000 0.8970 0.8970 0.8970 0.8969 0.8968
973.000000 0.8967 0.8966 0.8965 0.8964 0.8963
978.000000 0.8962 0.8962 0.8961 0.8961 0.8960
983.000000 0.8960 0.8959 0.8961 0.8963 0.8966
988.000000 0.8968 0.8970 0.8979 0.8966 0.8962
993.000000 0.8959 0.8950 0.8941 0.8935 0.8934
998.000000 0.8932 0.8930 0.8929 0.8927 0.8926
1003.000000 0.8924 0.8922 0.8921 0.8920 0.8919
1008.000000 0.8919 0.8918 0.8917 0.8916 0.8915
1013.000000 0.8915 0.8914 0.8914 0.8914 0.8914
1018.000000 0.8914 0.8914 0.8914 0.8914 0.8914
1023.000000 0.8914 0.8913 0.8907 0.8902 0.8896
1028.000000 0.8890 0.8884 0.8870 0.8853 0.8836
1033.000000 0.8818 0.8785 0.8753 0.8721 0.8684
1038.000000 0.8647 0.8608 0.8557 0.8507 0.8457
1043.000000 0.8398 0.8336 0.8270 0.8201 0.8132
1048.000000 0.8029 0.7912 0.7793 0.7674 0.7483
1053.000000 0.7253 0.6714 0.5912 0.5111 0.4310
1058.000000 0.3508 0.2745 0.2512 0.2078 0.1153
1063.000000 0.1023 0.0893 0.0808 0.0722 0.0645
1068.000000 0.0570 0.0518 0.0475 0.0432 0.0388
1073.000000 0.0335 0.0281 0.0229 0.0181 0.0159
1078.000000 0.0133 0.0123 0.0124 0.0129 0.0132
1083.000000 0.0189 0.0369 0.0550 0.0731 0.0912
1088.000000 0.1092 0.1263 0.1287 0.1311 0.1341
1093.000000 0.1389 0.1485 0.1808 0.1995 0.2299
1098.000000 0.2715 0.3130 0.3545 0.3960 0.4375
1103.000000 0.4790 0.5205 0.5621 0.6036 0.6451
1108.000000 0.6866 0.7281 0.7716 0.7952 0.8154
1113.000000 0.8402 0.8486 0.8579 0.8667 0.8724
1118.000000 0.8776 0.8811 0.8840 0.8854 0.8868
1123.000000 0.8873 0.8879 0.8885 0.8890 0.8890
1128.000000 0.8890 0.8890 0.8894 0.8886 0.8881
1133.000000 0.8876 0.8867 0.8857 0.8847 0.8827
1138.000000 0.8803 0.8776 0.8747 0.8719 0.8690
1143.000000 0.8662 0.8633 0.8608 0.8585 0.8587
1148.000000 0.8593 0.8601 0.8610 0.8612 0.8610
1153.000000 0.8604 0.8592 0.8573 0.8495 0.8349
1158.000000 0.8239 0.8199 0.8473 0.8724 0.8733
1163.000000 0.8743 0.8753 0.8755 0.8757 0.8759
1168.000000 0.8761 0.8765 0.8772 0.8786 0.8800
1173.000000 0.8818 0.8839 0.8851 0.8862 0.8872
1178.000000 0.8882 0.8892 0.8902 0.8912 0.8913
1183.000000 0.8915 0.8915 0.8913 0.8912 0.8908
1188.000000 0.8904 0.8900 0.8895 0.8919 0.8903
1193.000000 0.8911 0.8919 0.8927 0.8937 0.8950
1198.000000 0.8963 0.8976 0.8991 0.9006 0.9019
1203.000000 0.9029 0.9038 0.9048 0.9057 0.9055
1208.000000 0.9049 0.9044 0.9039 0.9033 0.9028
1213.000000 0.9022 0.9016 0.9010 0.9004 0.8997
1218.000000 0.8991 0.8984 0.8975 0.8965 0.8955
1223.000000 0.8945 0.8935 0.8926 0.8918 0.8909
1228.000000 0.8901 0.8892 0.8884 0.8874 0.8863
1233.000000 0.8852 0.8840 0.8829 0.8818 0.8806
1238.000000 0.8798 0.8789 0.8781 0.8774 0.8776
1243.000000 0.8778 0.8780 0.8781 0.8783 0.8785
1248.000000 0.8755 0.8794 0.8800 0.8806 0.8812
1253.000000 0.8819 0.8825 0.8832 0.8840 0.8847
1258.000000 0.8854 0.8858 0.8861 0.8864 0.8867
1263.000000 0.8871 0.8874 0.8877 0.8880 0.8883
1268.000000 0.8886 0.8889 0.8890 0.8888 0.8886
1273.000000 0.8883 0.8881 0.8878 0.8876 0.8873
1278.000000 0.8870 0.8867 0.8864 0.8861 0.8858
1283.000000 0.8854 0.8848 0.8842 0.8837 0.8832
1288.000000 0.8827 0.8822 0.8817 0.8813 0.8808
1293.000000 0.8803 0.8795 0.8795 0.8792 0.8788
1298.000000 0.8785 0.8782 0.8778 0.8775 0.8771
1303.000000 0.8768 0.8765 0.8762 0.8760 0.8758
1308.000000 0.8756 0.8754 0.8752 0.8751 0.8750
1313.000000 0.8748 0.8747 0.8746 0.8744 0.8743
1318.000000 0.8742 0.8740 0.8739 0.8738 0.8741
1323.000000 0.8743 0.8745 0.8748 0.8750 0.8752
1328.000000 0.8755 0.8757 0.8759 0.8762 0.8764
1333.000000 0.8766 0.8769 0.8766 0.8761 0.8741
1338.000000 0.8700 0.8744 0.8780 0.8806 0.8810
1343.000000 0.8812 0.8812 0.8812 0.8819 0.8827
1348.000000 0.8834 0.8841 0.8848 0.8855 0.8862
1353.000000 0.8869 0.8876 0.8882 0.8889 0.8895
1358.000000 0.8899 0.8901 0.8880 0.8848 0.8814
1363.000000 0.8775 0.8725 0.8671 0.8615 0.8564
1368.000000 0.8523 0.8482 0.8441 0.8389 0.8337
1373.000000 0.8301 0.8273 0.8246 0.8224 0.8222
1378.000000 0.8227 0.8210 0.8270 0.8298 0.8335
1383.000000 0.8377 0.8420 0.8467 0.8512 0.8551
1388.000000 0.8590 0.8628 0.8653 0.8679 0.8704
1393.000000 0.8721 0.8737 0.8748 0.8747 0.8746
1398.000000 0.8745 0.8744 0.8743 0.8742 0.8741
1403.000000 0.8741 0.8744 0.8747 0.8750 0.8753
1408.000000 0.8756 0.8759 0.8762 0.8765 0.8769
1413.000000 0.8772 0.8776 0.8779 0.8783 0.8787
1418.000000 0.8777 0.8765 0.8752 0.8739 0.8735
1423.000000 0.8734 0.8736 0.8738 0.8740 0.8742
1428.000000 0.8744 0.8746 0.8750 0.8753 0.8756
1433.000000 0.8759 0.8763 0.8766 0.8768 0.8770
1438.000000 0.8772 0.8771 0.8768 0.8765 0.8763
1443.000000 0.8761 0.8759 0.8756 0.8742 0.8755
1448.000000 0.8757 0.8759 0.8761 0.8770 0.8784
1453.000000 0.8798 0.8812 0.8826 0.8842 0.8811
1458.000000 0.8783 0.8766 0.8759 0.8757 0.8757
1463.000000 0.8756 0.8755 0.8755 0.8754 0.8753
1468.000000 0.8751 0.8750 0.8749 0.8747 0.8746
1473.000000 0.8746 0.8745 0.8745 0.8745 0.8744
1478.000000 0.8744 0.8743 0.8745 0.8747 0.8749
1483.000000 0.8751 0.8753 0.8755 0.8759 0.8765
1488.000000 0.8770 0.8768 0.8766 0.8764 0.8761
1493.000000 0.8759 0.8755 0.8751 0.8746 0.8742
1498.000000 0.8738 0.8734 0.8737 0.8748 0.8759
1503.000000 0.8770 0.8783 0.8798 0.8813 0.8811
1508.000000 0.8803 0.8792 0.8782 0.8776 0.8770
1513.000000 0.8763 0.8761 0.8765 0.8769 0.8773
1518.000000 0.8775 0.8775 0.8775 0.8774 0.8771
1523.000000 0.8768 0.8765 0.8762 0.8759 0.8757
1528.000000 0.8755 0.8753 0.8751 0.8749 0.8754
1533.000000 0.8760 0.8765 0.8771 0.8797 0.8828
1538.000000 0.8848 0.8860 0.8854 0.8833 0.8811
1543.000000 0.8789 0.8778 0.8768 0.8758 0.8748
1548.000000 0.8743 0.8741 0.8738 0.8748 0.8760
1553.000000 0.8772 0.8784 0.8805 0.8829 0.8851
1558.000000 0.8869 0.8853 0.8824 0.8779 0.8733
1563.000000 0.8706 0.8697 0.8698 0.8701 0.8703
1568.000000 0.8706 0.8709 0.8712 0.8715 0.8719
1573.000000 0.8722 0.8726 0.8732 0.8737 0.8734
1578.000000 0.8727 0.8721 0.8715 0.8710 0.8706
1583.000000 0.8701 0.8699 0.8697 0.8696 0.8694
1588.000000 0.8693 0.8691 0.8689 0.8686 0.8684
1593.000000 0.8682 0.8680 0.8677 0.8675 0.8673
1598.000000 0.8673 0.8674 0.8674 0.8674 0.8674
1603.000000 0.8674 0.8674 0.8674 0.8674 0.8674
1608.000000 0.8674 0.8674 0.8675 0.8676 0.8677
1613.000000 0.8678 0.8678 0.8679 0.8680 0.8681
1618.000000 0.8682 0.8683 0.8683 0.8684 0.8685
1623.000000 0.8686 0.8687 0.8688 0.8688 0.8689
1628.000000 0.8692 0.8697 0.8702 0.8705 0.8701
1633.000000 0.8698 0.8694 0.8691 0.8689 0.8687
1638.000000 0.8685 0.8684 0.8683 0.8686 0.8689
1643.000000 0.8692 0.8693 0.8691 0.8688 0.8685
1648.000000 0.8679 0.8673 0.8666 0.8659 0.8652
1653.000000 0.8644 0.8637 0.8629 0.8621 0.8612
1658.000000 0.8603 0.8595 0.8586 0.8577 0.8566
1663.000000 0.8555 0.8544 0.8533 0.8522 0.8511
1668.000000 0.8501 0.8493 0.8485 0.8476 0.8468
1673.000000 0.8460 0.8452 0.8444 0.8438 0.8433
1678.000000 0.8429 0.8426 0.8434 0.8442 0.8442
1683.000000 0.8439 0.8436 0.8433 0.8432 0.8431
1688.000000 0.8430 0.8430 0.8432 0.8435 0.8442
1693.000000 0.8450 0.8465 0.8480 0.8495 0.8510
1698.000000 0.8525 0.8540 0.8554 0.8563 0.8572
1703.000000 0.8581 0.8589 0.8593 0.8597 0.8606
1708.000000 0.8623 0.8640 0.8669 0.8700 0.8725
1713.000000 0.8746 0.8745 0.8743 0.8738 0.8731
1718.000000 0.8725 0.8718 0.8718 0.8722 0.8725
1723.000000 0.8728 0.8732 0.8742 0.8753 0.8765
1728.000000 0.8777 0.8790 0.8803 0.8816 0.8810
1733.000000 0.8803 0.8797 0.8790 0.8783 0.8774
1738.000000 0.8765 0.8756 0.8747 0.8739 0.8732
1743.000000 0.8725 0.8720 0.8716 0.8713 0.8709
1748.000000 0.8708 0.8706 0.8705 0.8703 0.8702
1753.000000 0.8700 0.8699 0.8698 0.8697 0.8696
1758.000000 0.8695 0.8694 0.8693 0.8693 0.8692
1763.000000 0.8691 0.8690 0.8690 0.8690 0.8690
1768.000000 0.8690 0.8686 0.8680 0.8674 0.8670
1773.000000 0.8666 0.8662 0.8658 0.8656 0.8656
1778.000000 0.8683 0.8659 0.8664 0.8668 0.8672
1783.000000 0.8676 0.8679 0.8682 0.8686 0.8690
1788.000000 0.8694 0.8695 0.8695 0.8695 0.8695
1793.000000 0.8695 0.8695 0.8695 0.8695 0.8695
1798.000000 0.8695 0.8695 0.8695 0.8695 0.8694
1803.000000 0.8694 0.8694 0.8693 0.8693 0.8692
1808.000000 0.8692 0.8691 0.8690 0.8689 0.8688
1813.000000 0.8687 0.8686 0.8685 0.8684 0.8683
1818.000000 0.8682 0.8681 0.8680 0.8679 0.8678
1823.000000 0.8677 0.8676 0.8676 0.8675 0.8675
1828.000000 0.8674 0.8674 0.8674 0.8673 0.8673
1833.000000 0.8672 0.8672 0.8671 0.8671 0.8670
1838.000000 0.8670 0.8669 0.8669 0.8669 0.8668
1843.000000 0.8668 0.8668 0.8667 0.8667 0.8667
1848.000000 0.8666 0.8666 0.8666 0.8665 0.8665
1853.000000 0.8665 0.8664 0.8664 0.8663 0.8663
1858.000000 0.8663 0.8663 0.8663 0.8664 0.8664
1863.000000 0.8665 0.8665 0.8666 0.8666 0.8667
1868.000000 0.8667 0.8668 0.8668 0.8669 0.8669
1873.000000 0.8670 0.8670 0.8671 0.8671 0.8671
1878.000000 0.8671 0.8672 0.8672 0.8672 0.8672
1883.000000 0.8672 0.8673 0.8673 0.8673 0.8673
1888.000000 0.8673 0.8674 0.8674 0.8674 0.8674
1893.000000 0.8675 0.8675 0.8675 0.8675 0.8675
1898.000000 0.8675 0.8674 0.8674 0.8674 0.8673
1903.000000 0.8673 0.8672 0.8672 0.8672 0.8671
1908.000000 0.8671 0.8670 0.8670 0.8669 0.8669
1913.000000 0.8669 0.8668 0.8668 0.8667 0.8667
1918.000000 0.8666 0.8666 0.8666 0.8665 0.8665
1923.000000 0.8665 0.8665 0.8665 0.8665 0.8665
1928.000000 0.8665 0.8665 0.8665 0.8665 0.8665
1933.000000 0.8665 0.8665 0.8665 0.8665 0.8665
1938.000000 0.8665 0.8665 0.8665 0.8665 0.8665
1943.000000 0.8665 0.8665 0.8665 0.8665 0.8665
1948.000000 0.8665 0.8665 0.8665 0.8665 0.8666
1953.000000 0.8666 0.8666 0.8666 0.8666 0.8666
1958.000000 0.8666 0.8666 0.8666 0.8666 0.8666
1963.000000 0.8666 0.8666 0.8667 0.8668 0.8668
1968.000000 0.8669 0.8670 0.8671 0.8671 0.8672
1973.000000 0.8673 0.8674 0.8674 0.8675 0.8676
1978.000000 0.8677 0.8677 0.8678 0.8679 0.8679
1983.000000 0.8680 0.8681 0.8682 0.8683 0.8684
1988.000000 0.8685 0.8686 0.8688 0.8689 0.8690
1993.000000 0.8692 0.8693 0.8694 0.8695 0.8697
1998.000000 0.8698 0.8697 0.8696 0.8695 0.8695
2003.000000 0.8694 0.8693 0.8690 0.8687 0.8684
2008.000000 0.8681 0.8678 0.8676 0.8672 0.8668
2013.000000 0.8663 0.8659 0.8655 0.8652 0.8650
2018.000000 0.8649 0.8648 0.8647 0.8645 0.8644
2023.000000 0.8642 0.8641 0.8640 0.8640 0.8640
2028.000000 0.8640 0.8640 0.8640 0.8640 0.8641
2033.000000 0.8641 0.8641 0.8641 0.8641 0.8641
2038.000000 0.8641 0.8641 0.8641 0.8641 0.8641
2043.000000 0.8641 0.8641 0.8641 0.8641 0.8641
2048.000000 0.8641 0.8640 0.8640 0.8640 0.8640
2053.000000 0.8639 0.8639 0.8638 0.8638 0.8637
2058.000000 0.8637 0.8637 0.8637 0.8636 0.8636
2063.000000 0.8635 0.8635 0.8635 0.8635 0.8634
2068.000000 0.8634 0.8633 0.8633 0.8633 0.8633
2073.000000 0.8633 0.8633 0.8633 0.8634 0.8634
2078.000000 0.8634 0.8634 0.8634 0.8634 0.8634
2083.000000 0.8634 0.8634 0.8634 0.8634 0.8634
2088.000000 0.8634 0.8634 0.8634 0.8633 0.8633
2093.000000 0.8632 0.8632 0.8632 0.8632 0.8631
2098.000000 0.8631 0.8630 0.8630 0.8629 0.8629
2103.000000 0.8629 0.8629 0.8628 0.8628 0.8627
2108.000000 0.8627 0.8627 0.8627 0.8624 0.8621
2113.000000 0.8616 0.8612 0.8599 0.8587 0.8574
2118.000000 0.8561 0.8543 0.8525 0.8499 0.8473
2123.000000 0.8445 0.8417 0.8388 0.8359 0.8329
2128.000000 0.8300 0.8267 0.8235 0.8201 0.8168
2133.000000 0.8135 0.8102 0.8068 0.8035 0.8009
2138.000000 0.7984 0.7964 0.7944 0.7937 0.7930
2143.000000 0.7925 0.7920 0.7948 0.7954 0.8008
2148.000000 0.8040 0.8071 0.8103 0.8134 0.8166
2153.000000 0.8197 0.8228 0.8259 0.8291 0.8322
2158.000000 0.8354 0.8385 0.8417 0.8448 0.8479
2163.000000 0.8509 0.8539 0.8551 0.8563 0.8574
2168.000000 0.8586 0.8595 0.8605 0.8610 0.8616
2173.000000 0.8621 0.8627 0.8632 0.8637 0.8640
2178.000000 0.8644 0.8647 0.8651 0.8653 0.8656
2183.000000 0.8657 0.8658 0.8659 0.8661 0.8662
2188.000000 0.8664 0.8665 0.8666 0.8666 0.8667
2193.000000 0.8667 0.8668 0.8668 0.8669 0.8669
2198.000000 0.8670 0.8670 0.8671 0.8671 0.8672
2203.000000 0.8672 0.8673 0.8673 0.8673 0.8673
2208.000000 0.8674 0.8673 0.8673 0.8672 0.8672
2213.000000 0.8672 0.8672 0.8671 0.8671 0.8670
2218.000000 0.8670 0.8669 0.8682 0.8668 0.8668
2223.000000 0.8667 0.8667 0.8666 0.8666 0.8666
2228.000000 0.8666 0.8665 0.8665 0.8665 0.8665
2233.000000 0.8664 0.8664 0.8664 0.8664 0.8663
2238.000000 0.8663 0.8662 0.8662 0.8661 0.8661
2243.000000 0.8660 0.8660 0.8659 0.8658 0.8657
2248.000000 0.8657 0.8656 0.8655 0.8654 0.8654
2253.000000 0.8653 0.8653 0.8652 0.8651 0.8649
2258.000000 0.8648 0.8646 0.8645 0.8644 0.8643
2263.000000 0.8641 0.8640 0.8638 0.8637 0.8635
2268.000000 0.8634 0.8633 0.8633 0.8633 0.8633
2273.000000 0.8633 0.8633 0.8633 0.8633 0.8633
2278.000000 0.8633 0.8632 0.8631 0.8629 0.8627
2283.000000 0.8624 0.8622 0.8614 0.8606 0.8596
2288.000000 0.8587 0.8575 0.8563 0.8548 0.8533
2293.000000 0.8518 0.8503 0.8488 0.8473 0.8457
2298.000000 0.8441 0.8424 0.8408 0.8392 0.8376
2303.000000 0.8361 0.8346 0.8332 0.8318 0.8304
2308.000000 0.8291 0.8276 0.8262 0.8246 0.8231
2313.000000 0.8217 0.8203 0.8197 0.8191 0.8187
2318.000000 0.8185 0.8184 0.8184 0.8186 0.8189
2323.000000 0.8193 0.8198 0.8205 0.8213 0.8221
2328.000000 0.8230 0.8244 0.8258 0.8264 0.8270
2333.000000 0.8270 0.8267 0.8264 0.8258 0.8227
2338.000000 0.8197 0.8123 0.8049 0.8018 0.7988
2343.000000 0.7979 0.7984 0.7974 0.7978 0.7985
2348.000000 0.7993 0.8002 0.8012 0.8028 0.8044
2353.000000 0.8062 0.8080 0.8098 0.8117 0.8138
2358.000000 0.8159 0.8183 0.8207 0.8235 0.8264
2363.000000 0.8290 0.8317 0.8333 0.8349 0.8359
2368.000000 0.8370 0.8377 0.8384 0.8391 0.8398
2373.000000 0.8404 0.8411 0.8417 0.8423 0.8430
2378.000000 0.8437 0.8449 0.8461 0.8473 0.8485
2383.000000 0.8519 0.8554 0.8609 0.8665 0.8677
2388.000000 0.8689 0.8697 0.8706 0.8707 0.8709
2393.000000 0.8710 0.8712 0.8713 0.8715 0.8716
2398.000000 0.8718 0.8720 0.8722 0.8723 0.8724
2403.000000 0.8724 0.8724 0.8724 0.8724 0.8724
2408.000000 0.8724 0.8724 0.8724 0.8724 0.8724
2413.000000 0.8724 0.8724 0.8724 0.8724 0.8724
2418.000000 0.8724 0.8724 0.8724 0.8724 0.8724
2423.000000 0.8724 0.8724 0.8724 0.8724 0.8724
2428.000000 0.8724 0.8724 0.8724 0.8724 0.8724
2433.000000 0.8723 0.8723 0.8723 0.8723 0.8723
2438.000000 0.8723 0.8723 0.8723 0.8722 0.8722
2443.000000 0.8722 0.8722 0.8722 0.8722 0.8721
2448.000000 0.8721 0.8721 0.8721 0.8721 0.8721
2453.000000 0.8720 0.8720 0.8719 0.8719 0.8718
2458.000000 0.8718 0.8717 0.8717 0.8717 0.8717
2463.000000 0.8716 0.8716 0.8715 0.8715 0.8714
2468.000000 0.8714 0.8713 0.8713 0.8713 0.8713
2473.000000 0.8712 0.8712 0.8711 0.8711 0.8710
2478.000000 0.8710 0.8709 0.8709 0.8709 0.8709
2483.000000 0.8709 0.8709 0.8709 0.8709 0.8708
2488.000000 0.8708 0.8708 0.8708 0.8708 0.8708
2493.000000 0.8707 0.8707 0.8707 0.8707 0.8707
2498.000000 0.8707 0.8707 0.8707 0.8706 0.8706
2503.000000 0.8706 0.8706 0.8706 0.8707 0.8707
2508.000000 0.8708 0.8708 0.8709 0.8709 0.8709
2513.000000 0.8709 0.8710 0.8710 0.8711 0.8711
2518.000000 0.8712 0.8712 0.8712 0.8712 0.8713
2523.000000 0.8713 0.8714 0.8714 0.8715 0.8715
2528.000000 0.8715 0.8715 0.8716 0.8716 0.8717
2533.000000 0.8717 0.8718 0.8718 0.8718 0.8718
2538.000000 0.8719 0.8719 0.8720 0.8720 0.8721
2543.000000 0.8721 0.8721 0.8721 0.8722 0.8722
2548.000000 0.8723 0.8723 0.8723 0.8723 0.8724
2553.000000 0.8724 0.8724 0.8724 0.8724 0.8724
2558.000000 0.8725 0.8725 0.8725 0.8725 0.8726
2563.000000 0.8726 0.8726 0.8726 0.8727 0.8727
2568.000000 0.8727 0.8727 0.8727 0.8727 0.8728
2573.000000 0.8728 0.8728 0.8728 0.8729 0.8729
2578.000000 0.8729 0.8729 0.8730 0.8730 0.8730
2583.000000 0.8730 0.8730 0.8730 0.8731 0.8731
2588.000000 0.8731 0.8731 0.8731 0.8731 0.8731
2593.000000 0.8731 0.8731 0.8731 0.8731 0.8731
2598.000000 0.8731 0.8731 0.8731 0.8731 0.8731
2603.000000 0.8731 0.8731 0.8731 0.8731 0.8731
2608.000000 0.8731 0.8731 0.8731 0.8731 0.8731
2613.000000 0.8731 0.8731 0.8731 0.8731 0.8731
2618.000000 0.8731 0.8731 0.8731 0.8731 0.8731
2623.000000 0.8731 0.8731 0.8731 0.8731 0.8731
2628.000000 0.8731 0.8731 0.8731 0.8731 0.8731
2633.000000 0.8731 0.8731 0.8731 0.8731 0.8731
2638.000000 0.8731 0.8730 0.8730 0.8730 0.8730
2643.000000 0.8730 0.8730 0.8730 0.8730 0.8730
2648.000000 0.8730 0.8730 0.8730 0.8730 0.8730
2653.000000 0.8730 0.8730 0.8729 0.8729 0.8729
2658.000000 0.8729 0.8729 0.8729 0.8729 0.8729
2663.000000 0.8729 0.8729 0.8729 0.8729 0.8729
2668.000000 0.8729 0.8729 0.8729 0.8729 0.8729
2673.000000 0.8728 0.8728 0.8728 0.8728 0.8728
2678.000000 0.8728 0.8728 0.8728 0.8728 0.8728
2683.000000 0.8727 0.8727 0.8727 0.8727 0.8727
2688.000000 0.8727 0.8727 0.8727 0.8727 0.8727
2693.000000 0.8726 0.8726 0.8726 0.8726 0.8726
2698.000000 0.8726 0.8726 0.8726 0.8725 0.8725
2703.000000 0.8725 0.8725 0.8725 0.8725 0.8725
2708.000000 0.8725 0.8724 0.8724 0.8724 0.8724
2713.000000 0.8724 0.8724 0.8724 0.8724 0.8724
2718.000000 0.8724 0.8723 0.8723 0.8723 0.8723
2723.000000 0.8723 0.8723 0.8723 0.8723 0.8722
2728.000000 0.8722 0.8722 0.8722 0.8722 0.8722
2733.000000 0.8722 0.8722 0.8721 0.8721 0.8721
2738.000000 0.8721 0.8721 0.8721 0.8721 0.8721
2743.000000 0.8721 0.8721 0.8721 0.8721 0.8721
2748.000000 0.8721 0.8721 0.8721 0.8721 0.8721
2753.000000 0.8721 0.8721 0.8720 0.8720 0.8720
2758.000000 0.8720 0.8720 0.8720 0.8720 0.8720
2763.000000 0.8720 0.8720 0.8720 0.8720 0.8720
2768.000000 0.8720 0.8720 0.8720 0.8720 0.8720
2773.000000 0.8720 0.8720 0.8719 0.8719 0.8719
2778.000000 0.8719 0.8719 0.8719 0.8719 0.8719
2783.000000 0.8719 0.8719 0.8719 0.8719 0.8719
2788.000000 0.8719 0.8719 0.8719 0.8719 0.8719
2793.000000 0.8719 0.8719 0.8719 0.8719 0.8719
2798.000000 0.8719 0.8719 0.8719 0.8719 0.8719
2803.000000 0.8719 0.8719 0.8719 0.8719 0.8719
2808.000000 0.8719 0.8719 0.8719 0.8719 0.8719
2813.000000 0.8719 0.8719 0.8719 0.8719 0.8719
2818.000000 0.8719 0.8719 0.8719 0.8719 0.8719
2823.000000 0.8719 0.8719 0.8719 0.8719 0.8719
2828.000000 0.8719 0.8719 0.8719 0.8719 0.8719
2833.000000 0.8719 0.8719 0.8719 0.8719 0.8719
2838.000000 0.8719 0.8719 0.8719 0.8719 0.8719
2843.000000 0.8719 0.8719 0.8719 0.8719 0.8719
2848.000000 0.8719 0.8719 0.8719 0.8719 0.8719
2853.000000 0.8719 0.8719 0.8719 0.8719 0.8719
2858.000000 0.8719 0.8719 0.8720 0.8720 0.8720
2863.000000 0.8720 0.8720 0.8720 0.8720 0.8720
2868.000000 0.8720 0.8720 0.8720 0.8720 0.8720
2873.000000 0.8720 0.8720 0.8720 0.8720 0.8720
2878.000000 0.8720 0.8720 0.8720 0.8720 0.8720
2883.000000 0.8720 0.8720 0.8720 0.8720 0.8720
2888.000000 0.8720 0.8720 0.8720 0.8720 0.8720
2893.000000 0.8720 0.8720 0.8720 0.8720 0.8720
2898.000000 0.8720 0.8720 0.8720 0.8720 0.8720
2903.000000 0.8720 0.8720 0.8720 0.8720 0.8720
2908.000000 0.8720 0.8720 0.8720 0.8720 0.8720
2913.000000 0.8720 0.8720 0.8720 0.8720 0.8720
2918.000000 0.8720 0.8720 0.8720 0.8720 0.8721
2923.000000 0.8721 0.8721 0.8721 0.8721 0.8721
2928.000000 0.8721 0.8721 0.8721 0.8721 0.8722
2933.000000 0.8722 0.8722 0.8722 0.8722 0.8722
2938.000000 0.8722 0.8722 0.8723 0.8723 0.8723
2943.000000 0.8723 0.8723 0.8723 0.8723 0.8723
2948.000000 0.8723 0.8723 0.8724 0.8724 0.8724
2953.000000 0.8724 0.8724 0.8724 0.8724 0.8724
2958.000000 0.8725 0.8725 0.8725 0.8725 0.8725
2963.000000 0.8725 0.8725 0.8724 0.8724 0.8724
2968.000000 0.8724 0.8723 0.8723 0.8723 0.8723
2973.000000 0.8722 0.8722 0.8722 0.8722 0.8721
2978.000000 0.8721 0.8721 0.8721 0.8720 0.8720
2983.000000 0.8720 0.8720 0.8719 0.8719 0.8718
2988.000000 0.8718 0.8718 0.8718 0.8717 0.8717
2993.000000 0.8716 0.8716 0.8715 0.8714 0.8713
2998.000000 0.8713 0.8712 0.8712 0.8711 0.8711
3003.000000 0.8710 0.8709 0.8708 0.8708 0.8707
3008.000000 0.8707 0.8706 0.8706 0.8706 0.8707
3013.000000 0.8707 0.8707 0.8707 0.8707 0.8707
3018.000000 0.8707 0.8707 0.8707 0.8707 0.8707
3023.000000 0.8707 0.8707 0.8707 0.8707 0.8707
3028.000000 0.8707 0.8707 0.8707 0.8707 0.8707
3033.000000 0.8707 0.8707 0.8707 0.8707 0.8707
3038.000000 0.8708 0.8708 0.8708 0.8708 0.8709
3043.000000 0.8709 0.8710 0.8710 0.8711 0.8711
3048.000000 0.8711 0.8711 0.8712 0.8712 0.8713
3053.000000 0.8713 0.8713 0.8713 0.8714 0.8714
3058.000000 0.8715 0.8715 0.8716 0.8716 0.8716
3063.000000 0.8716 0.8717 0.8717 0.8718 0.8718
3068.000000 0.8719 0.8719 0.8719 0.8719 0.8719
3073.000000 0.8718 0.8718 0.8718 0.8718 0.8717
3078.000000 0.8717 0.8717 0.8717 0.8717 0.8717
3083.000000 0.8716 0.8716 0.8716 0.8716 0.8715
3088.000000 0.8715 0.8715 0.8715 0.8715 0.8715
3093.000000 0.8714 0.8714 0.8714 0.8714 0.8713
3098.000000 0.8713 0.8713 0.8713 0.8713 0.8713
3103.000000 0.8712 0.8712 0.8712 0.8712 0.8712
3108.000000 0.8712 0.8711 0.8711 0.8711 0.8711
3113.000000 0.8710 0.8710 0.8710 0.8710 0.8710
3118.000000 0.8710 0.8709 0.8709 0.8709 0.8709
3123.000000 0.8709 0.8709 0.8708 0.8708 0.8708
3128.000000 0.8708 0.8708 0.8708 0.8707 0.8707
3133.000000 0.8707 0.8707 0.8706 0.8706 0.8706
3138.000000 0.8706 0.8706 0.8706 0.8705 0.8705
3143.000000 0.8705 0.8705 0.8705 0.8705 0.8704
3148.000000 0.8704 0.8704 0.8704 0.8704 0.8704
3153.000000 0.8704 0.8704 0.8703 0.8703 0.8703
3158.000000 0.8703 0.8703 0.8703 0.8703 0.8703
3163.000000 0.8702 0.8702 0.8702 0.8702 0.8702
3168.000000 0.8702 0.8702 0.8702 0.8701 0.8701
3173.000000 0.8701 0.8701 0.8701 0.8701 0.8700
3178.000000 0.8700 0.8700 0.8700 0.8700 0.8700
3183.000000 0.8699 0.8699 0.8699 0.8699 0.8698
3188.000000 0.8698 0.8698 0.8698 0.8697 0.8697
3193.000000 0.8696 0.8695 0.8694 0.8693 0.8692
3198.000000 0.8691 0.8690 0.8689 0.8688 0.8687
3203.000000 0.8686 0.8686 0.8686 0.8686 0.8685
3208.000000 0.8685 0.8684 0.8684 0.8684 0.8684
3213.000000 0.8683 0.8683 0.8683 0.8683 0.8683
3218.000000 0.8684 0.8685 0.8686 0.8686 0.8687
3223.000000 0.8687 0.8688 0.8689 0.8690 0.8690
3228.000000 0.8691 0.8692 0.8693 0.8693 0.8694
3233.000000 0.8694 0.8695 0.8695 0.8696 0.8696
3238.000000 0.8697 0.8697 0.8698 0.8698 0.8699
3243.000000 0.8699 0.8700 0.8700 0.8701 0.8701
3248.000000 0.8702 0.8702 0.8703 0.8703 0.8704
3253.000000 0.8704 0.8705 0.8705 0.8706 0.8706
3258.000000 0.8707 0.8707 0.8708 0.8708 0.8709
3263.000000 0.8709 0.8710 0.8710 0.8711 0.8711
3268.000000 0.8712 0.8712 0.8712 0.8712 0.8713
3273.000000 0.8713 0.8714 0.8714 0.8715 0.8715
3278.000000 0.8715 0.8715 0.8715 0.8715 0.8715
3283.000000 0.8715 0.8715 0.8715 0.8715 0.8715
3288.000000 0.8715 0.8715 0.8715 0.8715 0.8715
3293.000000 0.8715 0.8715 0.8715 0.8715 0.8715
3298.000000 0.8715 0.8715 0.8715 0.8715 0.8716
3303.000000 0.8716 0.8716 0.8716 0.8716 0.8716
3308.000000 0.8716 0.8716 0.8716 0.8716 0.8717
3313.000000 0.8717 0.8717 0.8717 0.8717 0.8717
3318.000000 0.8717 0.8717 0.8718 0.8718 0.8718
3323.000000 0.8718 0.8718 0.8718 0.8718 0.8718
3328.000000 0.8719 0.8719 0.8719 0.8719 0.8719
3333.000000 0.8719 0.8719 0.8719 0.8719 0.8719
3338.000000 0.8719 0.8719 0.8720 0.8720 0.8720
3343.000000 0.8720 0.8720 0.8720 0.8720 0.8720
3348.000000 0.8720 0.8720 0.8720 0.8720 0.8720
3353.000000 0.8720 0.8720 0.8720 0.8720 0.8720
3358.000000 0.8720 0.8720 0.8720 0.8720 0.8720
3363.000000 0.8720 0.8720 0.8720 0.8720 0.8720
3368.000000 0.8720 0.8720 0.8720 0.8720 0.8720
3373.000000 0.8720 0.8720 0.8720 0.8720 0.8720
3378.000000 0.8720 0.8720 0.8720 0.8720 0.8720
3383.000000 0.8720 0.8720 0.8720 0.8721 0.8721
3388.000000 0.8721 0.8721 0.8722 0.8722 0.8722
3393.000000 0.8722 0.8723 0.8723 0.8724 0.8724
3398.000000 0.8724 0.8724 0.8725 0.8725 0.8726
3403.000000 0.8726 0.8726 0.8726 0.8727 0.8727
3408.000000 0.8727 0.8727 0.8728 0.8728 0.8729
3413.000000 0.8729 0.8729 0.8729 0.8730 0.8730
3418.000000 0.8731 0.8731 0.8731 0.8731 0.8732
3423.000000 0.8732 0.8732 0.8732 0.8733 0.8733
3428.000000 0.8734 0.8734 0.8734 0.8734 0.8735
3433.000000 0.8735 0.8736 0.8736 0.8736 0.8736
3438.000000 0.8737 0.8737 0.8738 0.8738 0.8738
3443.000000 0.8738 0.8739 0.8739 0.8740 0.8740
3448.000000 0.8741 0.8741 0.8742 0.8742 0.8742
3453.000000 0.8742 0.8743 0.8743 0.8744 0.8744
3458.000000 0.8745 0.8745 0.8745 0.8745 0.8746
3463.000000 0.8746 0.8747 0.8747 0.8748 0.8748
3468.000000 0.8749 0.8749 0.8749 0.8749 0.8750
3473.000000 0.8750 0.8751 0.8751 0.8752 0.8752
3478.000000 0.8753 0.8753 0.8753 0.8753 0.8753
3483.000000 0.8753 0.8754 0.8754 0.8754 0.8754
3488.000000 0.8754 0.8754 0.8754 0.8754 0.8755
3493.000000 0.8755 0.8755 0.8755 0.8755 0.8755
3498.000000 0.8756 0.8756 0.8756 0.8756 0.8756
3503.000000 0.8756 0.8756 0.8756 0.8757 0.8757
3508.000000 0.8757 0.8757 0.8757 0.8756 0.8756
3513.000000 0.8756 0.8756 0.8755 0.8755 0.8755
3518.000000 0.8755 0.8754 0.8754 0.8754 0.8754
3523.000000 0.8754 0.8754 0.8753 0.8753 0.8753
3528.000000 0.8753 0.8752 0.8752 0.8752 0.8752
3533.000000 0.8752 0.8752 0.8751 0.8751 0.8751
3538.000000 0.8751 0.8750 0.8750 0.8750 0.8750
3543.000000 0.8749 0.8749 0.8748 0.8747 0.8746
3548.000000 0.8746 0.8745 0.8744 0.8743 0.8742
3553.000000 0.8741 0.8741 0.8740 0.8739 0.8738
3558.000000 0.8737 0.8736 0.8736 0.8735 0.8734
3563.000000 0.8733 0.8733 0.8732 0.8731 0.8730
3568.000000 0.8729 0.8728 0.8728 0.8727 0.8727
3573.000000 0.8727 0.8727 0.8727 0.8727 0.8727
3578.000000 0.8727 0.8727 0.8727 0.8727 0.8727
3583.000000 0.8727 0.8727 0.8727 0.8727 0.8728
3588.000000 0.8729 0.8730 0.8731 0.8732 0.8733
3593.000000 0.8734 0.8735 0.8736 0.8737 0.8738
3598.000000 0.8739 0.8736 0.8733 0.8730 0.8727
3603.000000 0.8724 0.8721 0.8717 0.8713 0.8709
3608.000000 0.8705 0.8701 0.8697 0.8696 0.8695
3613.000000 0.8696 0.8698 0.8699 0.8701 0.8702
3618.000000 0.8704 0.8706 0.8708 0.8712 0.8717
3623.000000 0.8723 0.8729 0.8735 0.8741 0.8747
3628.000000 0.8754 0.8760 0.8766 0.8773 0.8780
3633.000000 0.8784 0.8788 0.8785 0.8782 0.8779
3638.000000 0.8777 0.8774 0.8771 0.8768 0.8766
3643.000000 0.8765 0.8764 0.8763 0.8762 0.8761
3648.000000 0.8760 0.8761 0.8762 0.8765 0.8768
3653.000000 0.8771 0.8774 0.8777 0.8780 0.8783
3658.000000 0.8786 0.8783 0.8780 0.8776 0.8773
3663.000000 0.8767 0.8761 0.8753 0.8745 0.8737
3668.000000 0.8730 0.8722 0.8714 0.8705 0.8697
3673.000000 0.8687 0.8677 0.8667 0.8657 0.8648
3678.000000 0.8640 0.8634 0.8628 0.8623 0.8618
3683.000000 0.8626 0.8635 0.8641 0.8648 0.8654
3688.000000 0.8661 0.8667 0.8673 0.8680 0.8688
3693.000000 0.8695 0.8703 0.8710 0.8718 0.8721
3698.000000 0.8724 0.8720 0.8717 0.8711 0.8705
3703.000000 0.8699 0.8694 0.8693 0.8692 0.8691
3708.000000 0.8690 0.8689 0.8688 0.8688 0.8689
3713.000000 0.8695 0.8702 0.8708 0.8714 0.8720
3718.000000 0.8727 0.8735 0.8743 0.8751 0.8759
3723.000000 0.8766 0.8774 0.8782 0.8790 0.8801
3728.000000 0.8813 0.8824 0.8836 0.8847 0.8858
3733.000000 0.8862 0.8867 0.8871 0.8875 0.8866
3738.000000 0.8858 0.8841 0.8824 0.8814 0.8805
3743.000000 0.8800 0.8795 0.8792 0.8790 0.8789
3748.000000 0.8788 0.8787 0.8786 0.8785 0.8784
3753.000000 0.8783 0.8782 0.8781 0.8780 0.8780
3758.000000 0.8780 0.8780 0.8780 0.8780 0.8780
3763.000000 0.8780 0.8780 0.8780 0.8781 0.8781
3768.000000 0.8781 0.8781 0.8782 0.8783 0.8784
3773.000000 0.8785 0.8786 0.8787 0.8788 0.8789
3778.000000 0.8790 0.8791 0.8792 0.8793 0.8794
3783.000000 0.8795 0.8796 0.8796 0.8796
##END=
