##TITLE=1-PENTENE, 2-METHYL-
##JCAMP-DX=4.24
##DATA TYPE=INFRARED SPECTRUM
##CLASS=COBLENTZ III
##ORIGIN=DOW CORNING CORP.
##OWNER=COBLENTZ SOCIETY
Collection (C) 2018 copyright by the U.S. Secretary of Commerce
on behalf of the United States of America. All rights reserved.
##DATE=Not specified, most likely prior to 1970
##NAMES=2-methyl-1-pentene
##CAS REGISTRY NO=763-29-1
##MOLFORM=C6 H12
##SOURCE REFERENCE=COBLENTZ NO. 4269
##$NIST SOURCE=COBLENTZ
##$NIST IMAGE=cob4269
##SPECTROMETER/DATA SYSTEM=PERKIN-ELMER 521 (GRATING)
##INSTRUMENT PARAMETERS=FILTERS AT 3150, 2500, 2000, 1150, 700, 410; GRATING CHANGES AT 2000, 630 CM^-^1
##STATE=SOLUTION (10% IN CCl4 FOR 3800-1300, 10% IN CS2 FOR 1300-650, AND 10% IN CCl4 FOR 650-250 CM^-^1) VERSUS SOLVENT
##PATH LENGTH=0.011, 0.011, AND 0.010 CM (CsBr CELL)
##SAMPLING PROCEDURE=TRANSMISSION
##RESOLUTION=4
##DATA PROCESSING=DIGITIZED BY NIST FROM HARD COPY (FROM TWO SEGMENTS)
##XUNITS=1/CM
##YUNITS=TRANSMITTANCE
##XFACTOR=1.000000
##YFACTOR=1
##DELTAX=1.022366
##FIRSTX=247.668
##LASTX=3804.48
##FIRSTY=0.973
##MAXX=3804.48
##MINX=247.668
##MAXY=0.973
##MINY=0.00421299
##NPOINTS=3480
##XYDATA=(X++(Y..Y))
247.668000 0.9730 0.9730 0.9730 0.9730 0.9730
252.779829 0.9720 0.9720 0.9720 0.9720 0.9720
257.891657 0.9710 0.9690 0.9680 0.9660 0.9660
263.003486 0.9660 0.9640 0.9620 0.9620 0.9610
268.115314 0.9600 0.9580 0.9580 0.9580 0.9570
273.227143 0.9570 0.9550 0.9550 0.9550 0.9550
278.338972 0.9550 0.9550 0.9550 0.9550 0.9540
283.450800 0.9540 0.9540 0.9530 0.9530 0.9530
288.562629 0.9530 0.9530 0.9530 0.9510 0.9510
293.674457 0.9500 0.9500 0.9480 0.9460 0.9440
298.786286 0.9440 0.9430 0.9420 0.9420 0.9420
303.898115 0.9420 0.9420 0.9420 0.9420 0.9420
309.009943 0.9400 0.9400 0.9390 0.9370 0.9370
314.121772 0.9360 0.9350 0.9350 0.9330 0.9330
319.233600 0.9320 0.9320 0.9320 0.9320 0.9320
324.345429 0.9330 0.9330 0.9330 0.9330 0.9330
329.457258 0.9330 0.9330 0.9330 0.9320 0.9320
334.569086 0.9320 0.9320 0.9310 0.9310 0.9310
339.680915 0.9290 0.9290 0.9280 0.9280 0.9280
344.792743 0.9260 0.9260 0.9250 0.9250 0.9240
349.904572 0.9220 0.9210 0.9210 0.9200 0.9180
355.016401 0.9180 0.9180 0.9170 0.9170 0.9170
360.128229 0.9150 0.9150 0.9140 0.9140 0.9130
365.240058 0.9130 0.9140 0.9140 0.9140 0.9140
370.351886 0.9140 0.9140 0.9140 0.9140 0.9140
375.463715 0.9140 0.9140 0.9150 0.9170 0.9170
380.575544 0.9180 0.9180 0.9180 0.9180 0.9180
385.687372 0.9170 0.9100 0.9040 0.9030 0.8950
390.799201 0.8910 0.8860 0.8840 0.8730 0.8710
395.911029 0.8700 0.8750 0.8820 0.8910 0.8950
401.022858 0.8950 0.8990 0.9000 0.9000 0.8990
406.134687 0.8990 0.8970 0.8960 0.8950 0.8920
411.246515 0.8910 0.8840 0.8810 0.8730 0.8670
416.358344 0.8590 0.8520 0.8281 0.8240 0.8190
421.470172 0.7940 0.7860 0.7820 0.7770 0.7730
426.582001 0.7660 0.7650 0.7660 0.7799 0.7800
431.693830 0.7910 0.8150 0.8300 0.8380 0.8380
436.805658 0.8260 0.8240 0.8200 0.8150 0.8080
441.917487 0.7930 0.7900 0.7910 0.8080 0.8240
447.029315 0.8420 0.8669 0.8929 0.9040 0.9060
452.141144 0.9070 0.9100 0.9110 0.9110 0.9110
457.252973 0.9130 0.9130 0.9130 0.9140 0.9140
462.364801 0.9140 0.9150 0.9150 0.9150 0.9150
467.476630 0.9150 0.9140 0.9140 0.9130 0.9130
472.588458 0.9110 0.9100 0.9100 0.9100 0.9100
477.700287 0.9110 0.9110 0.9110 0.9110 0.9110
482.812116 0.9110 0.9100 0.9100 0.9080 0.9080
487.923944 0.9060 0.9060 0.9040 0.9040 0.9040
493.035773 0.9040 0.9030 0.9030 0.9030 0.9000
498.147601 0.9000 0.8990 0.8970 0.8960 0.8920
503.259430 0.8890 0.8880 0.8880 0.8860 0.8840
508.371259 0.8800 0.8800 0.8670 0.8660 0.8630
513.483087 0.8570 0.8420 0.8310 0.8150 0.7790
518.594916 0.7421 0.7220 0.6991 0.6920 0.6621
523.706744 0.6590 0.6620 0.6680 0.6910 0.6970
528.818573 0.7429 0.7430 0.7390 0.7310 0.7240
533.930402 0.7210 0.7210 0.7240 0.7330 0.7749
539.042230 0.7930 0.8149 0.8309 0.8370 0.8410
544.154059 0.8510 0.8630 0.8640 0.8670 0.8680
549.265887 0.8700 0.8710 0.8730 0.8730 0.8740
554.377716 0.8750 0.8770 0.8780 0.8780 0.8800
559.489545 0.8800 0.8800 0.8800 0.8800 0.8810
564.601373 0.8810 0.8810 0.8810 0.8810 0.8820
569.713202 0.8820 0.8820 0.8820 0.8820 0.8840
574.825030 0.8840 0.8840 0.8840 0.8840 0.8840
579.936859 0.8840 0.8840 0.8840 0.8840 0.8840
585.048688 0.8840 0.8840 0.8840 0.8840 0.8840
590.160516 0.8840 0.8840 0.8840 0.8840 0.8840
595.272345 0.8840 0.8840 0.8840 0.8840 0.8840
600.384173 0.8820 0.8820 0.8820 0.8820 0.8820
605.496002 0.8820 0.8820 0.8820 0.8810 0.8810
610.607831 0.8810 0.8810 0.8810 0.8800 0.8800
615.719659 0.8800 0.8800 0.8780 0.8780 0.8780
620.831488 0.8780 0.8780 0.8770 0.8770 0.8770
625.943316 0.8770 0.8750 0.8750 0.8750 0.8740
631.055145 0.8740 0.8740 0.8730 0.8730 0.8730
636.166974 0.8710 0.8710 0.8710 0.8710 0.8700
641.278802 0.8700 0.8700 0.8700 0.8680 0.8680
646.390631 0.8670 0.8670 0.8660 0.8660 0.8640
651.502459 0.8640 0.8630 0.8620 0.8570 0.8560
656.614288 0.8550 0.8490 0.8450 0.8400 0.8400
661.726117 0.8410 0.8420 0.8440 0.8440 0.8460
666.837945 0.8480 0.8480 0.8480 0.8460 0.8460
671.949774 0.8460 0.8480 0.8480 0.8480 0.8490
677.061602 0.8490 0.8490 0.8490 0.8490 0.8480
682.173431 0.8460 0.8440 0.8440 0.8420 0.8410
687.285260 0.8380 0.8370 0.8340 0.8330 0.8280
692.397088 0.8270 0.8260 0.8270 0.8280 0.8310
697.508917 0.8340 0.8370 0.8400 0.8420 0.8460
702.620745 0.8480 0.8480 0.8480 0.8490 0.8510
707.732574 0.8510 0.8510 0.8490 0.8460 0.8460
712.844403 0.8450 0.8450 0.8440 0.8420 0.8410
717.956231 0.8350 0.8340 0.8310 0.8280 0.8230
723.068060 0.8170 0.8120 0.8110 0.8010 0.7871
728.179888 0.7800 0.7730 0.7420 0.7310 0.7210
733.291717 0.7150 0.7130 0.7110 0.7100 0.7110
738.403546 0.7150 0.7330 0.7480 0.7510 0.7580
743.515374 0.7610 0.7799 0.7860 0.7900 0.8159
748.627203 0.8220 0.8330 0.8330 0.8350 0.8380
753.739031 0.8400 0.8420 0.8440 0.8460 0.8480
758.850860 0.8480 0.8480 0.8480 0.8480 0.8480
763.962689 0.8460 0.8460 0.8450 0.8440 0.8440
769.074517 0.8420 0.8420 0.8410 0.8400 0.8400
774.186346 0.8400 0.8400 0.8400 0.8400 0.8400
779.298174 0.8380 0.8370 0.8370 0.8370 0.8370
784.410003 0.8370 0.8380 0.8380 0.8400 0.8400
789.521832 0.8400 0.8400 0.8380 0.8380 0.8370
794.633660 0.8370 0.8370 0.8350 0.8340 0.8300
799.745489 0.8280 0.8270 0.8260 0.8240 0.8230
804.857317 0.8200 0.8130 0.7901 0.7840 0.7790
809.969146 0.7750 0.7710 0.7650 0.7610 0.7600
815.080975 0.7600 0.7580 0.7580 0.7550 0.7510
820.192803 0.7430 0.7400 0.7430 0.7570 0.7770
825.304632 0.7800 0.7860 0.7940 0.7970 0.8080
830.416460 0.8120 0.8150 0.8170 0.8190 0.8200
835.528289 0.8220 0.8220 0.8220 0.8200 0.8190
840.640118 0.8170 0.8160 0.8130 0.8090 0.8040
845.751946 0.8020 0.7940 0.7830 0.7760 0.7680
850.863775 0.7510 0.7350 0.7210 0.7080 0.7000
855.975603 0.6890 0.6840 0.6491 0.6311 0.6131
861.087432 0.5789 0.5400 0.5020 0.4770 0.4480
866.199261 0.4190 0.3761 0.3391 0.3201 0.3001
871.311089 0.2930 0.2910 0.2890 0.2640 0.2450
876.422918 0.1861 0.1431 0.1061 0.0851 0.0631
881.534746 0.0240 0.0220 0.0220 0.0230 0.0270
886.646575 0.0380 0.0420 0.0490 0.1137 0.1727
891.758404 0.1761 0.2240 0.2740 0.3720 0.4040
896.870232 0.4409 0.4879 0.5718 0.5860 0.6019
901.982061 0.6270 0.6300 0.6420 0.6560 0.6630
907.093889 0.6740 0.6910 0.7099 0.7170 0.7290
912.205718 0.7400 0.7480 0.7530 0.7610 0.7650
917.317547 0.7680 0.7750 0.7800 0.7820 0.7840
922.429375 0.7860 0.7860 0.7880 0.7900 0.7910
927.541204 0.7940 0.7950 0.7970 0.7980 0.8000
932.653032 0.8000 0.8000 0.8010 0.8010 0.8010
937.764861 0.8000 0.8000 0.7980 0.7970 0.7950
942.876690 0.7940 0.7900 0.7880 0.7860 0.7840
947.988518 0.7820 0.7770 0.7730 0.7680 0.7471
953.100347 0.7390 0.7330 0.7250 0.7030 0.6710
958.212175 0.6620 0.6620 0.6670 0.6750 0.6879
963.324004 0.7020 0.7140 0.7470 0.7530 0.7570
968.435833 0.7600 0.7620 0.7680 0.7710 0.7730
973.547661 0.7750 0.7750 0.7750 0.7730 0.7730
978.659490 0.7720 0.7710 0.7680 0.7660 0.7640
983.771318 0.7610 0.7550 0.7510 0.7510 0.7530
988.883147 0.7550 0.7600 0.7640 0.7680 0.7770
993.994976 0.7790 0.7820 0.7860 0.7870 0.7900
999.106804 0.7910 0.7910 0.7930 0.7940 0.7940
1004.218633 0.7930 0.7910 0.7880 0.7840 0.7830
1009.330461 0.7820 0.7800 0.7790 0.7790 0.7790
1014.442290 0.7770 0.7770 0.7770 0.7790 0.7800
1019.554119 0.7800 0.7820 0.7820 0.7830 0.7830
1024.665947 0.7830 0.7830 0.7830 0.7820 0.7820
1029.777776 0.7820 0.7820 0.7820 0.7820 0.7820
1034.889604 0.7820 0.7820 0.7800 0.7800 0.7800
1040.001433 0.7800 0.7800 0.7820 0.7820 0.7830
1045.113262 0.7830 0.7840 0.7840 0.7840 0.7840
1050.225090 0.7840 0.7840 0.7840 0.7840 0.7840
1055.336919 0.7830 0.7790 0.7760 0.7750 0.7720
1060.448747 0.7710 0.7690 0.7690 0.7690 0.7690
1065.560576 0.7680 0.7660 0.7600 0.7550 0.7530
1070.672405 0.7470 0.7430 0.7320 0.7310 0.7290
1075.784233 0.7290 0.7290 0.7290 0.7280 0.7260
1080.896062 0.7210 0.7080 0.7000 0.6920 0.6751
1086.007890 0.6620 0.6590 0.6600 0.6670 0.6750
1091.119719 0.6810 0.7110 0.7260 0.7330 0.7360
1096.231548 0.7400 0.7480 0.7540 0.7580 0.7760
1101.343376 0.7770 0.7800 0.7800 0.7830 0.7840
1106.455205 0.7870 0.7900 0.7930 0.7950 0.7950
1111.567033 0.8000 0.8010 0.8010 0.8040 0.8050
1116.678862 0.8050 0.8050 0.8060 0.8060 0.8060
1121.790691 0.8080 0.8110 0.8120 0.8150 0.8160
1126.902519 0.8190 0.8220 0.8230 0.8230 0.8230
1132.014348 0.8230 0.8230 0.8230 0.8230 0.8230
1137.126176 0.8230 0.8230 0.8230 0.8230 0.8240
1142.238005 0.8240 0.8240 0.8240 0.8260 0.8260
1147.349834 0.8270 0.8270 0.8270 0.8270 0.8270
1152.461662 0.8270 0.8270 0.8270 0.8270 0.8270
1157.573491 0.8270 0.8270 0.8270 0.8270 0.8270
1162.685319 0.8260 0.8260 0.8260 0.8260 0.8260
1167.797148 0.8260 0.8260 0.8240 0.8240 0.8240
1172.908977 0.8240 0.8230 0.8230 0.8230 0.8230
1178.020805 0.8220 0.8200 0.8190 0.8170 0.8170
1183.132634 0.8160 0.8150 0.8150 0.8130 0.8110
1188.244462 0.8090 0.8080 0.8060 0.8040 0.8020
1193.356291 0.8010 0.7980 0.7970 0.7910 0.7860
1198.468120 0.7820 0.7760 0.7730 0.7690 0.7680
1203.579948 0.7650 0.7640 0.7620 0.7620 0.7600
1208.691777 0.7580 0.7540 0.7500 0.7400 0.7370
1213.803605 0.7280 0.7170 0.7110 0.7100 0.7100
1218.915434 0.7150 0.7240 0.7360 0.7430 0.7550
1224.027263 0.7600 0.7620 0.7640 0.7650 0.7660
1229.139091 0.7680 0.7680 0.7690 0.7690 0.7690
1234.250920 0.7690 0.7690 0.7690 0.7680 0.7660
1239.362748 0.7640 0.7610 0.7580 0.7550 0.7530
1244.474577 0.7500 0.7460 0.7400 0.7330 0.7320
1249.586406 0.7290 0.7280 0.7260 0.7260 0.7250
1254.698234 0.7240 0.7210 0.7200 0.7140 0.7130
1259.810063 0.7130 0.7110 0.7100 0.7100 0.7100
1264.921891 0.7080 0.7080 0.7080 0.7080 0.7100
1270.033720 0.7140 0.7180 0.7220 0.7280 0.7310
1275.145549 0.7330 0.7360 0.7390 0.7400 0.7420
1280.257377 0.7440 0.7470 0.7480 0.7510 0.7540
1285.369206 0.7550 0.7580 0.7610 0.7620 0.7650
1290.481034 0.7680 0.7690 0.7750 0.7760 0.7790
1295.592863 0.7830 0.7840 0.7860 0.7870 0.7880
1300.704692 0.7900 0.7930 0.7940 0.7950 0.7970
1305.816520 0.8000 0.8010 0.8020 0.8040 0.8050
1310.928349 0.8060 0.8060 0.8080 0.8090 0.8090
1316.040177 0.8110 0.8110 0.8110 0.8110 0.8110
1321.152006 0.8110 0.8110 0.8090 0.8050 0.8020
1326.263835 0.7980 0.7950 0.7910 0.7880 0.7860
1331.375663 0.7840 0.7840 0.7860 0.7870 0.7900
1336.487492 0.7940 0.7950 0.7950 0.7970 0.7970
1341.599320 0.7970 0.7950 0.7950 0.7930 0.7880
1346.711149 0.7860 0.7820 0.7750 0.7710 0.7650
1351.822978 0.7510 0.7420 0.7330 0.7140 0.6990
1356.934806 0.6880 0.6800 0.6630 0.6241 0.6130
1362.046635 0.5709 0.5259 0.4530 0.3820 0.3460
1367.158463 0.3100 0.3260 0.3420 0.3430 0.3500
1372.270292 0.3581 0.3881 0.4261 0.4851 0.6020
1377.382121 0.6220 0.6400 0.6450 0.6630 0.6780
1382.493949 0.6920 0.7040 0.7070 0.7080 0.7110
1387.605778 0.7130 0.7180 0.7200 0.7200 0.7210
1392.717606 0.7210 0.7210 0.7180 0.7130 0.7080
1397.829435 0.7070 0.7030 0.6990 0.6960 0.6930
1402.941264 0.6880 0.6810 0.6750 0.6680 0.6530
1408.053092 0.6490 0.6300 0.6150 0.6080 0.5881
1413.164921 0.5770 0.5680 0.5580 0.5480 0.5390
1418.276749 0.5150 0.5040 0.4880 0.4840 0.4740
1423.388578 0.4670 0.4590 0.4510 0.4380 0.4240
1428.500407 0.4050 0.3830 0.3541 0.3361 0.3181
1433.612235 0.3070 0.3020 0.2740 0.2680 0.2460
1438.724064 0.2230 0.2050 0.1800 0.1770 0.1750
1443.835892 0.1710 0.1680 0.1600 0.1500 0.1400
1448.947721 0.1390 0.1400 0.1610 0.1819 0.1979
1454.059550 0.2241 0.2510 0.2550 0.2280 0.2280
1459.171378 0.2620 0.2660 0.2840 0.3568 0.4148
1464.283207 0.4711 0.5101 0.5540 0.5900 0.6110
1469.395035 0.6310 0.6560 0.6700 0.6750 0.6919
1474.506864 0.7060 0.7180 0.7280 0.7370 0.7470
1479.618693 0.7540 0.7620 0.7690 0.7760 0.7770
1484.730521 0.7800 0.7820 0.7880 0.7950 0.8000
1489.842350 0.8080 0.8120 0.8170 0.8220 0.8260
1494.954178 0.8270 0.8310 0.8380 0.8410 0.8420
1500.066007 0.8450 0.8480 0.8490 0.8490 0.8510
1505.177836 0.8510 0.8520 0.8530 0.8570 0.8600
1510.289664 0.8620 0.8630 0.8660 0.8670 0.8670
1515.401493 0.8680 0.8700 0.8710 0.8730 0.8730
1520.513321 0.8750 0.8770 0.8770 0.8780 0.8780
1525.625150 0.8800 0.8800 0.8810 0.8810 0.8810
1530.736979 0.8810 0.8810 0.8810 0.8810 0.8810
1535.848807 0.8810 0.8810 0.8810 0.8810 0.8810
1540.960636 0.8800 0.8800 0.8800 0.8800 0.8800
1546.072464 0.8800 0.8780 0.8780 0.8770 0.8750
1551.184293 0.8740 0.8740 0.8730 0.8730 0.8730
1556.296122 0.8730 0.8730 0.8710 0.8710 0.8700
1561.407950 0.8700 0.8680 0.8670 0.8670 0.8660
1566.519779 0.8640 0.8640 0.8600 0.8570 0.8570
1571.631607 0.8560 0.8550 0.8550 0.8550 0.8550
1576.743436 0.8550 0.8550 0.8560 0.8560 0.8560
1581.855265 0.8560 0.8560 0.8560 0.8550 0.8550
1586.967093 0.8550 0.8530 0.8530 0.8520 0.8520
1592.078922 0.8510 0.8490 0.8480 0.8440 0.8410
1597.190750 0.8400 0.8370 0.8340 0.8300 0.8260
1602.302579 0.8230 0.8200 0.8190 0.8090 0.8010
1607.414408 0.7950 0.7900 0.7860 0.7840 0.7820
1612.526236 0.7800 0.7790 0.7770 0.7720 0.7660
1617.638065 0.7530 0.7440 0.7370 0.7210 0.7140
1622.749893 0.7100 0.6950 0.6860 0.6810 0.6631
1627.861722 0.6589 0.6260 0.6169 0.5620 0.5540
1632.973551 0.5470 0.5400 0.5031 0.4751 0.4351
1638.085379 0.4089 0.3619 0.3220 0.2810 0.2640
1643.197208 0.2120 0.2110 0.2130 0.2399 0.2669
1648.309036 0.3322 0.4491 0.4861 0.6080 0.6490
1653.420865 0.6710 0.6800 0.6930 0.7259 0.7439
1658.532694 0.7540 0.7650 0.7870 0.7950 0.7980
1663.644522 0.8060 0.8120 0.8160 0.8170 0.8220
1668.756351 0.8260 0.8280 0.8330 0.8350 0.8370
1673.868179 0.8370 0.8380 0.8410 0.8440 0.8450
1678.980008 0.8490 0.8510 0.8520 0.8530 0.8550
1684.091837 0.8560 0.8560 0.8560 0.8570 0.8570
1689.203665 0.8570 0.8570 0.8570 0.8590 0.8590
1694.315494 0.8590 0.8600 0.8620 0.8620 0.8630
1699.427322 0.8640 0.8660 0.8670 0.8670 0.8670
1704.539151 0.8680 0.8680 0.8700 0.8700 0.8700
1709.650980 0.8710 0.8710 0.8710 0.8710 0.8710
1714.762808 0.8710 0.8710 0.8710 0.8710 0.8730
1719.874637 0.8730 0.8740 0.8740 0.8740 0.8740
1724.986465 0.8740 0.8740 0.8740 0.8740 0.8740
1730.098294 0.8740 0.8740 0.8730 0.8730 0.8710
1735.210123 0.8710 0.8710 0.8700 0.8680 0.8680
1740.321951 0.8670 0.8670 0.8670 0.8670 0.8660
1745.433780 0.8660 0.8660 0.8660 0.8640 0.8640
1750.545608 0.8640 0.8630 0.8620 0.8600 0.8590
1755.657437 0.8560 0.8530 0.8520 0.8480 0.8450
1760.769266 0.8400 0.8380 0.8380 0.8370 0.8310
1765.881094 0.8240 0.8160 0.8060 0.7950 0.7880
1770.992923 0.7820 0.7770 0.7760 0.7730 0.7720
1776.104751 0.7720 0.7720 0.7760 0.7790 0.7820
1781.216580 0.7840 0.7900 0.7970 0.8120 0.8160
1786.328409 0.8240 0.8300 0.8350 0.8400 0.8490
1791.440237 0.8510 0.8550 0.8570 0.8600 0.8630
1796.552066 0.8660 0.8680 0.8700 0.8730 0.8730
1801.663894 0.8740 0.8740 0.8740 0.8740 0.8740
1806.775723 0.8740 0.8740 0.8750 0.8750 0.8750
1811.887552 0.8750 0.8750 0.8750 0.8750 0.8750
1816.999380 0.8770 0.8770 0.8780 0.8800 0.8810
1822.111209 0.8810 0.8820 0.8820 0.8820 0.8820
1827.223038 0.8820 0.8810 0.8810 0.8810 0.8810
1832.334866 0.8810 0.8810 0.8810 0.8810 0.8810
1837.446695 0.8810 0.8810 0.8810 0.8810 0.8810
1842.558523 0.8810 0.8810 0.8810 0.8820 0.8820
1847.670352 0.8820 0.8820 0.8820 0.8820 0.8820
1852.782181 0.8820 0.8820 0.8820 0.8820 0.8840
1857.894009 0.8840 0.8850 0.8850 0.8850 0.8860
1863.005838 0.8860 0.8860 0.8860 0.8860 0.8860
1868.117666 0.8860 0.8860 0.8860 0.8860 0.8860
1873.229495 0.8860 0.8860 0.8860 0.8860 0.8880
1878.341324 0.8880 0.8880 0.8880 0.8880 0.8890
1883.453152 0.8890 0.8890 0.8910 0.8910 0.8910
1888.564981 0.8910 0.8910 0.8910 0.8910 0.8910
1893.676809 0.8910 0.8890 0.8890 0.8890 0.8880
1898.788638 0.8860 0.8860 0.8860 0.8860 0.8860
1903.900467 0.8860 0.8860 0.8860 0.8860 0.8860
1909.012295 0.8860 0.8860 0.8860 0.8860 0.8860
1914.124124 0.8860 0.8860 0.8860 0.8860 0.8880
1919.235952 0.8890 0.8890 0.8890 0.8890 0.8890
1924.347781 0.8890 0.8910 0.8910 0.8910 0.8910
1929.459610 0.8910 0.8910 0.8910 0.8910 0.8910
1934.571438 0.8910 0.8910 0.8910 0.8910 0.8910
1939.683267 0.8910 0.8910 0.8890 0.8890 0.8890
1944.795095 0.8890 0.8890 0.8890 0.8890 0.8890
1949.906924 0.8890 0.8890 0.8890 0.8890 0.8890
1955.018753 0.8890 0.8890 0.8890 0.8890 0.8890
1960.130581 0.8890 0.8890 0.8890 0.8890 0.8890
1965.242410 0.8890 0.8890 0.8890 0.8890 0.8890
1970.354238 0.8890 0.8890 0.8890 0.8890 0.8910
1975.466067 0.8910 0.8910 0.8910 0.8910 0.8910
1980.577896 0.8910 0.8920 0.8920 0.8920 0.8920
1985.689724 0.8930 0.8930 0.8930 0.8930 0.8930
1990.801553 0.8930 0.8950 0.8950 0.8950 0.8950
1995.913381 0.8950 0.8960 0.8960 0.8970 0.8970
2001.025210 0.8970 0.8970 0.8970 0.8970 0.8970
2006.137039 0.8970 0.8970 0.8970 0.8965 0.8960
2011.248867 0.8955 0.8950 0.8950 0.8950 0.8950
2016.360696 0.8949 0.8939 0.8930 0.8930 0.8929
2021.472524 0.8924 0.8920 0.8920 0.8920 0.8920
2026.584353 0.8919 0.8914 0.8910 0.8910 0.8910
2031.696182 0.8910 0.8910 0.8910 0.8908 0.8898
2036.808010 0.8890 0.8890 0.8889 0.8884 0.8880
2041.919839 0.8880 0.8881 0.8887 0.8890 0.8890
2047.031667 0.8890 0.8890 0.8893 0.8903 0.8910
2052.143496 0.8910 0.8910 0.8910 0.8910 0.8910
2057.255325 0.8910 0.8910 0.8910 0.8910 0.8910
2062.367153 0.8910 0.8910 0.8910 0.8910 0.8910
2067.478982 0.8910 0.8910 0.8910 0.8910 0.8905
2072.590810 0.8895 0.8890 0.8890 0.8890 0.8890
2077.702639 0.8890 0.8890 0.8887 0.8882 0.8880
2082.814468 0.8880 0.8880 0.8880 0.8880 0.8880
2087.926296 0.8874 0.8864 0.8860 0.8860 0.8860
2093.038125 0.8860 0.8857 0.8852 0.8850 0.8850
2098.149953 0.8850 0.8850 0.8847 0.8842 0.8840
2103.261782 0.8840 0.8840 0.8840 0.8840 0.8840
2108.373611 0.8833 0.8823 0.8820 0.8820 0.8820
2113.485439 0.8820 0.8820 0.8820 0.8820 0.8820
2118.597268 0.8820 0.8820 0.8820 0.8820 0.8820
2123.709096 0.8820 0.8820 0.8820 0.8820 0.8820
2128.820925 0.8820 0.8820 0.8820 0.8820 0.8820
2133.932754 0.8820 0.8820 0.8820 0.8820 0.8820
2139.044582 0.8820 0.8820 0.8820 0.8820 0.8820
2144.156411 0.8820 0.8820 0.8820 0.8820 0.8820
2149.268239 0.8820 0.8820 0.8820 0.8820 0.8820
2154.380068 0.8820 0.8820 0.8820 0.8820 0.8820
2159.491897 0.8820 0.8820 0.8820 0.8819 0.8814
2164.603725 0.8810 0.8810 0.8810 0.8810 0.8810
2169.715554 0.8810 0.8809 0.8804 0.8800 0.8800
2174.827382 0.8800 0.8800 0.8800 0.8800 0.8800
2179.939211 0.8800 0.8798 0.8788 0.8780 0.8780
2185.051040 0.8779 0.8774 0.8770 0.8770 0.8770
2190.162868 0.8770 0.8770 0.8770 0.8770 0.8770
2195.274697 0.8770 0.8770 0.8772 0.8777 0.8784
2200.386525 0.8794 0.8802 0.8807 0.8810 0.8810
2205.498354 0.8810 0.8810 0.8810 0.8810 0.8810
2210.610183 0.8810 0.8810 0.8810 0.8810 0.8810
2215.722011 0.8810 0.8810 0.8810 0.8810 0.8810
2220.833840 0.8810 0.8810 0.8810 0.8810 0.8810
2225.945668 0.8810 0.8810 0.8810 0.8810 0.8810
2231.057497 0.8810 0.8810 0.8810 0.8810 0.8810
2236.169326 0.8810 0.8810 0.8810 0.8810 0.8810
2241.281154 0.8810 0.8810 0.8810 0.8810 0.8810
2246.392983 0.8810 0.8810 0.8810 0.8810 0.8810
2251.504811 0.8810 0.8810 0.8810 0.8810 0.8810
2256.616640 0.8810 0.8810 0.8810 0.8810 0.8810
2261.728469 0.8810 0.8810 0.8810 0.8810 0.8810
2266.840297 0.8806 0.8801 0.8800 0.8800 0.8800
2271.952126 0.8800 0.8800 0.8800 0.8800 0.8800
2277.063954 0.8800 0.8800 0.8800 0.8800 0.8800
2282.175783 0.8800 0.8800 0.8800 0.8800 0.8800
2287.287612 0.8800 0.8800 0.8800 0.8800 0.8800
2292.399440 0.8800 0.8800 0.8800 0.8800 0.8800
2297.511269 0.8790 0.8780 0.8775 0.8769 0.8759
2302.623097 0.8750 0.8750 0.8750 0.8744 0.8740
2307.734926 0.8740 0.8740 0.8740 0.8740 0.8740
2312.846755 0.8739 0.8734 0.8730 0.8730 0.8728
2317.958583 0.8718 0.8710 0.8710 0.8710 0.8710
2323.070412 0.8710 0.8710 0.8710 0.8710 0.8710
2328.182240 0.8710 0.8710 0.8710 0.8710 0.8710
2333.294069 0.8710 0.8710 0.8713 0.8723 0.8730
2338.405898 0.8730 0.8730 0.8730 0.8732 0.8737
2343.517726 0.8740 0.8740 0.8742 0.8747 0.8750
2348.629555 0.8750 0.8750 0.8750 0.8750 0.8750
2353.741383 0.8750 0.8750 0.8754 0.8764 0.8770
2358.853212 0.8770 0.8765 0.8755 0.8750 0.8750
2363.965041 0.8750 0.8750 0.8750 0.8750 0.8750
2369.076869 0.8750 0.8750 0.8750 0.8747 0.8742
2374.188698 0.8740 0.8740 0.8740 0.8740 0.8737
2379.300526 0.8732 0.8730 0.8730 0.8730 0.8730
2384.412355 0.8730 0.8730 0.8730 0.8730 0.8730
2389.524184 0.8730 0.8730 0.8730 0.8730 0.8730
2394.636012 0.8730 0.8730 0.8730 0.8730 0.8730
2399.747841 0.8730 0.8730 0.8730 0.8730 0.8730
2404.859669 0.8730 0.8730 0.8730 0.8730 0.8730
2409.971498 0.8730 0.8730 0.8730 0.8730 0.8730
2415.083327 0.8730 0.8730 0.8730 0.8730 0.8730
2420.195155 0.8730 0.8730 0.8730 0.8730 0.8730
2425.306984 0.8730 0.8730 0.8730 0.8730 0.8730
2430.418812 0.8730 0.8735 0.8740 0.8740 0.8740
2435.530641 0.8740 0.8740 0.8740 0.8740 0.8740
2440.642470 0.8740 0.8740 0.8740 0.8740 0.8740
2445.754298 0.8740 0.8740 0.8740 0.8740 0.8740
2450.866127 0.8740 0.8740 0.8740 0.8740 0.8740
2455.977955 0.8740 0.8740 0.8740 0.8740 0.8740
2461.089784 0.8740 0.8740 0.8740 0.8740 0.8740
2466.201613 0.8740 0.8740 0.8740 0.8740 0.8740
2471.313441 0.8740 0.8740 0.8740 0.8740 0.8740
2476.425270 0.8740 0.8740 0.8740 0.8740 0.8740
2481.537098 0.8740 0.8740 0.8740 0.8740 0.8740
2486.648927 0.8740 0.8738 0.8733 0.8730 0.8730
2491.760756 0.8730 0.8730 0.8730 0.8730 0.8730
2496.872584 0.8730 0.8730 0.8730 0.8730 0.8730
2501.984413 0.8730 0.8730 0.8730 0.8730 0.8730
2507.096241 0.8730 0.8730 0.8730 0.8733 0.8738
2512.208070 0.8740 0.8740 0.8740 0.8740 0.8737
2517.319899 0.8732 0.8730 0.8730 0.8724 0.8714
2522.431727 0.8707 0.8702 0.8700 0.8700 0.8700
2527.543556 0.8700 0.8694 0.8684 0.8680 0.8680
2532.655384 0.8680 0.8680 0.8677 0.8672 0.8670
2537.767213 0.8670 0.8670 0.8670 0.8670 0.8670
2542.879042 0.8670 0.8670 0.8670 0.8670 0.8670
2547.990870 0.8670 0.8670 0.8670 0.8670 0.8670
2553.102699 0.8666 0.8661 0.8660 0.8660 0.8660
2558.214527 0.8660 0.8660 0.8660 0.8660 0.8660
2563.326356 0.8660 0.8660 0.8660 0.8660 0.8660
2568.438185 0.8660 0.8660 0.8660 0.8660 0.8660
2573.550013 0.8660 0.8660 0.8650 0.8640 0.8640
2578.661842 0.8640 0.8640 0.8640 0.8640 0.8640
2583.773670 0.8640 0.8640 0.8635 0.8630 0.8630
2588.885499 0.8630 0.8625 0.8620 0.8620 0.8619
2593.997328 0.8609 0.8601 0.8611 0.8620 0.8620
2599.109156 0.8621 0.8626 0.8630 0.8630 0.8630
2604.220985 0.8630 0.8631 0.8636 0.8640 0.8640
2609.332813 0.8640 0.8640 0.8640 0.8640 0.8640
2614.444642 0.8640 0.8639 0.8634 0.8629 0.8624
2619.556471 0.8617 0.8607 0.8600 0.8600 0.8600
2624.668299 0.8600 0.8599 0.8594 0.8590 0.8590
2629.780128 0.8587 0.8577 0.8570 0.8570 0.8568
2634.891956 0.8563 0.8560 0.8560 0.8560 0.8560
2640.003785 0.8558 0.8553 0.8546 0.8536 0.8528
2645.115614 0.8523 0.8514 0.8499 0.8490 0.8490
2650.227442 0.8488 0.8483 0.8475 0.8465 0.8458
2655.339271 0.8452 0.8447 0.8442 0.8435 0.8425
2660.451099 0.8417 0.8412 0.8410 0.8410 0.8410
2665.562928 0.8410 0.8410 0.8410 0.8413 0.8418
2670.674757 0.8420 0.8420 0.8420 0.8420 0.8426
2675.786585 0.8436 0.8440 0.8440 0.8443 0.8448
2680.898414 0.8450 0.8450 0.8450 0.8450 0.8450
2686.010242 0.8450 0.8450 0.8450 0.8446 0.8441
2691.122071 0.8440 0.8440 0.8428 0.8413 0.8410
2696.233900 0.8410 0.8398 0.8383 0.8376 0.8371
2701.345728 0.8354 0.8334 0.8301 0.8266 0.8235
2706.457557 0.8205 0.8187 0.8172 0.8161 0.8151
2711.569385 0.8132 0.8112 0.8078 0.8043 0.7976
2716.681214 0.7905 0.7881 0.7861 0.7832 0.7802
2721.793043 0.7781 0.7761 0.7736 0.7711 0.7681
2726.904871 0.7651 0.7699 0.7750 0.7785 0.7824
2732.016700 0.7944 0.8062 0.8107 0.8151 0.8171
2737.128528 0.8192 0.8217 0.8241 0.8251 0.8260
2742.240357 0.8260 0.8260 0.8260 0.8260 0.8260
2747.352186 0.8260 0.8260 0.8259 0.8248 0.8239
2752.464014 0.8234 0.8229 0.8224 0.8215 0.8190
2757.575843 0.8168 0.8158 0.8148 0.8138 0.8129
2762.687671 0.8124 0.8119 0.8114 0.8107 0.8097
2767.799500 0.8089 0.8084 0.8070 0.8035 0.8004
2772.911329 0.7984 0.7967 0.7957 0.7948 0.7943
2778.023157 0.7928 0.7893 0.7861 0.7836 0.7809
2783.134986 0.7779 0.7758 0.7753 0.7746 0.7736
2788.246814 0.7722 0.7702 0.7682 0.7661 0.7641
2793.358643 0.7621 0.7596 0.7566 0.7533 0.7498
2798.470472 0.7458 0.7413 0.7363 0.7307 0.7226
2803.582300 0.7121 0.7044 0.6994 0.6930 0.6855
2808.694129 0.6817 0.6812 0.6771 0.6699 0.6614
2813.805957 0.6518 0.6362 0.6166 0.6025 0.5920
2818.917786 0.5811 0.5700 0.5590 0.5479 0.5281
2824.029615 0.5034 0.4871 0.4750 0.4707 0.4702
2829.141443 0.4679 0.4649 0.4538 0.4390 0.4226
2834.253272 0.4055 0.3865 0.3669 0.3476 0.3285
2839.365100 0.3217 0.3187 0.3168 0.3153 0.3146
2844.476929 0.3141 0.3136 0.3131 0.3110 0.3084
2849.588758 0.3072 0.3062 0.3018 0.2967 0.2912
2854.700586 0.2857 0.2523 0.2151 0.1989 0.1853
2859.812415 0.1704 0.1553 0.1402 0.1251 0.1166
2864.924243 0.1085 0.1009 0.0934 0.0801 0.0665
2870.036072 0.0660 0.0660 0.0739 0.0821 0.0977
2875.147901 0.1131 0.1191 0.1251 0.1291 0.1331
2880.259729 0.1361 0.1391 0.1411 0.1430 0.1435
2885.371558 0.1440 0.1440 0.1440 0.1440 0.1438
2890.483386 0.1418 0.1396 0.1360 0.1323 0.1278
2895.595215 0.1232 0.1182 0.1131 0.1081 0.1038
2900.707044 0.1028 0.1015 0.0990 0.0965 0.0940
2905.818872 0.0897 0.0792 0.0707 0.0691 0.0679
2910.930701 0.0674 0.0664 0.0638 0.0607 0.0562
2916.042529 0.0518 0.0478 0.0438 0.0397 0.0349
2921.154358 0.0284 0.0220 0.0160 0.0118 0.0113
2926.266187 0.0114 0.0124 0.0141 0.0171 0.0192
2931.378015 0.0197 0.0212 0.0242 0.0271 0.0296
2936.489844 0.0323 0.0353 0.0381 0.0406 0.0452
2941.601672 0.0523 0.0560 0.0560 0.0523 0.0448
2946.713501 0.0395 0.0365 0.0327 0.0282 0.0213
2951.825330 0.0122 0.0072 0.0057 0.0047 0.0042
2956.937158 0.0043 0.0048 0.0059 0.0074 0.0092
2962.048987 0.0112 0.0129 0.0144 0.0175 0.0215
2967.160815 0.0262 0.0312 0.0359 0.0405 0.0453
2972.272644 0.0503 0.0728 0.1038 0.1183 0.1259
2977.384473 0.1363 0.1479 0.1627 0.1788 0.1927
2982.496301 0.2058 0.2268 0.2504 0.2840 0.3208
2987.608130 0.3399 0.3540 0.3618 0.3678 0.3819
2992.719958 0.3979 0.4076 0.4157 0.4285 0.4420
2997.831787 0.4612 0.4813 0.4910 0.4990 0.5203
3002.943616 0.5435 0.5550 0.5650 0.5801 0.5957
3008.055444 0.6007 0.6047 0.6083 0.6118 0.6134
3013.167273 0.6149 0.6155 0.6160 0.6190 0.6220
3018.279101 0.6245 0.6270 0.6300 0.6331 0.6371
3023.390930 0.6413 0.6493 0.6574 0.6659 0.6744
3028.502759 0.6814 0.6884 0.6944 0.7002 0.7033
3033.614587 0.7060 0.7066 0.7071 0.7076 0.7080
3038.726416 0.7080 0.7081 0.7092 0.7100 0.7100
3043.838244 0.7098 0.7088 0.7079 0.7074 0.7058
3048.950073 0.6998 0.6943 0.6908 0.6869 0.6819
3054.061902 0.6767 0.6711 0.6650 0.6575 0.6469
3059.173730 0.6283 0.6108 0.5962 0.5817 0.5671
3064.285559 0.5525 0.5379 0.5177 0.4855 0.4536
3069.397387 0.4224 0.3912 0.3601 0.3400 0.3400
3074.509216 0.3454 0.3602 0.3747 0.3888 0.4026
3079.621045 0.4162 0.4300 0.4441 0.4641 0.4918
3084.732873 0.5086 0.5121 0.5323 0.5721 0.6001
3089.844702 0.6152 0.6337 0.6559 0.6742 0.6888
3094.956530 0.6999 0.7075 0.7129 0.7164 0.7358
3100.068359 0.7680 0.7885 0.8001 0.8053 0.8058
3105.180188 0.8078 0.8108 0.8135 0.8160 0.8179
3110.292016 0.8194 0.8219 0.8249 0.8266 0.8276
3115.403845 0.8280 0.8280 0.8287 0.8297 0.8303
3120.515673 0.8309 0.8317 0.8327 0.8348 0.8373
3125.627502 0.8391 0.8406 0.8414 0.8419 0.8428
3130.739331 0.8438 0.8444 0.8449 0.8454 0.8459
3135.851159 0.8460 0.8460 0.8460 0.8460 0.8460
3140.962988 0.8460 0.8468 0.8479 0.8480 0.8480
3146.074816 0.8480 0.8480 0.8480 0.8480 0.8484
3151.186645 0.8490 0.8490 0.8490 0.8504 0.8519
3156.298474 0.8525 0.8530 0.8540 0.8550 0.8555
3161.410302 0.8560 0.8565 0.8570 0.8580 0.8590
3166.522131 0.8595 0.8600 0.8610 0.8620 0.8625
3171.633959 0.8630 0.8630 0.8630 0.8630 0.8630
3176.745788 0.8635 0.8640 0.8640 0.8641 0.8651
3181.857617 0.8660 0.8660 0.8661 0.8666 0.8670
3186.969445 0.8670 0.8670 0.8670 0.8671 0.8676
3192.081274 0.8680 0.8680 0.8682 0.8692 0.8700
3197.193102 0.8700 0.8701 0.8706 0.8713 0.8723
3202.304931 0.8730 0.8730 0.8730 0.8730 0.8731
3207.416760 0.8736 0.8740 0.8740 0.8742 0.8747
3212.528588 0.8750 0.8750 0.8750 0.8750 0.8754
3217.640417 0.8764 0.8772 0.8777 0.8780 0.8780
3222.752245 0.8784 0.8794 0.8800 0.8800 0.8800
3227.864074 0.8800 0.8802 0.8807 0.8812 0.8817
3232.975903 0.8820 0.8820 0.8825 0.8835 0.8840
3238.087731 0.8840 0.8840 0.8840 0.8840 0.8840
3243.199560 0.8840 0.8840 0.8840 0.8840 0.8840
3248.311388 0.8840 0.8840 0.8840 0.8840 0.8840
3253.423217 0.8840 0.8840 0.8840 0.8840 0.8840
3258.535046 0.8840 0.8833 0.8823 0.8820 0.8820
3263.646874 0.8817 0.8812 0.8810 0.8810 0.8810
3268.758703 0.8810 0.8806 0.8801 0.8800 0.8800
3273.870531 0.8800 0.8800 0.8800 0.8800 0.8800
3278.982360 0.8800 0.8792 0.8782 0.8780 0.8780
3284.094189 0.8780 0.8780 0.8780 0.8780 0.8780
3289.206017 0.8780 0.8789 0.8799 0.8800 0.8800
3294.317846 0.8800 0.8800 0.8800 0.8800 0.8800
3299.429674 0.8800 0.8800 0.8800 0.8800 0.8800
3304.541503 0.8800 0.8800 0.8800 0.8800 0.8800
3309.653332 0.8800 0.8805 0.8810 0.8810 0.8810
3314.765160 0.8810 0.8810 0.8805 0.8800 0.8800
3319.876989 0.8800 0.8800 0.8800 0.8800 0.8800
3324.988817 0.8800 0.8800 0.8800 0.8800 0.8800
3330.100646 0.8800 0.8800 0.8800 0.8800 0.8800
3335.212475 0.8800 0.8800 0.8800 0.8800 0.8800
3340.324303 0.8800 0.8800 0.8800 0.8800 0.8800
3345.436132 0.8800 0.8800 0.8800 0.8800 0.8800
3350.547960 0.8800 0.8800 0.8800 0.8800 0.8800
3355.659789 0.8800 0.8800 0.8800 0.8800 0.8800
3360.771618 0.8800 0.8800 0.8800 0.8800 0.8800
3365.883446 0.8800 0.8800 0.8800 0.8802 0.8807
3370.995275 0.8810 0.8810 0.8810 0.8810 0.8810
3376.107103 0.8810 0.8810 0.8810 0.8810 0.8810
3381.218932 0.8810 0.8810 0.8813 0.8818 0.8820
3386.330761 0.8820 0.8820 0.8820 0.8820 0.8820
3391.442589 0.8820 0.8820 0.8820 0.8820 0.8820
3396.554418 0.8820 0.8820 0.8820 0.8820 0.8820
3401.666246 0.8820 0.8820 0.8820 0.8820 0.8820
3406.778075 0.8820 0.8820 0.8820 0.8820 0.8820
3411.889904 0.8820 0.8820 0.8820 0.8820 0.8820
3417.001732 0.8820 0.8827 0.8837 0.8840 0.8840
3422.113561 0.8844 0.8849 0.8850 0.8850 0.8846
3427.225389 0.8841 0.8840 0.8840 0.8840 0.8840
3432.337218 0.8840 0.8840 0.8840 0.8840 0.8831
3437.449047 0.8821 0.8820 0.8820 0.8820 0.8820
3442.560875 0.8829 0.8839 0.8840 0.8840 0.8845
3447.672704 0.8850 0.8850 0.8850 0.8850 0.8850
3452.784532 0.8835 0.8820 0.8820 0.8820 0.8815
3457.896361 0.8810 0.8810 0.8810 0.8815 0.8820
3463.008190 0.8820 0.8821 0.8831 0.8840 0.8845
3468.120018 0.8850 0.8855 0.8860 0.8860 0.8861
3473.231847 0.8871 0.8880 0.8880 0.8880 0.8880
3478.343675 0.8880 0.8880 0.8878 0.8868 0.8860
3483.455504 0.8860 0.8859 0.8854 0.8850 0.8850
3488.567333 0.8850 0.8850 0.8850 0.8850 0.8851
3493.679161 0.8856 0.8863 0.8873 0.8880 0.8880
3498.790990 0.8880 0.8880 0.8880 0.8880 0.8882
3503.902818 0.8887 0.8890 0.8890 0.8890 0.8890
3509.014647 0.8890 0.8890 0.8890 0.8890 0.8890
3514.126476 0.8890 0.8890 0.8890 0.8890 0.8890
3519.238304 0.8890 0.8890 0.8890 0.8890 0.8890
3524.350133 0.8890 0.8890 0.8890 0.8890 0.8890
3529.461961 0.8890 0.8890 0.8890 0.8890 0.8890
3534.573790 0.8890 0.8890 0.8890 0.8890 0.8890
3539.685619 0.8890 0.8890 0.8890 0.8890 0.8890
3544.797447 0.8890 0.8890 0.8890 0.8890 0.8890
3549.909276 0.8897 0.8907 0.8910 0.8910 0.8910
3555.021104 0.8910 0.8910 0.8910 0.8910 0.8910
3560.132933 0.8914 0.8919 0.8920 0.8920 0.8924
3565.244762 0.8929 0.8930 0.8930 0.8930 0.8930
3570.356590 0.8938 0.8948 0.8950 0.8950 0.8950
3575.468419 0.8950 0.8950 0.8950 0.8942 0.8932
3580.580247 0.8930 0.8930 0.8926 0.8921 0.8916
3585.692076 0.8910 0.8901 0.8891 0.8890 0.8890
3590.803905 0.8890 0.8890 0.8885 0.8880 0.8885
3595.915733 0.8890 0.8890 0.8890 0.8890 0.8890
3601.027562 0.8890 0.8890 0.8890 0.8890 0.8890
3606.139390 0.8890 0.8890 0.8890 0.8890 0.8890
3611.251219 0.8890 0.8890 0.8890 0.8890 0.8890
3616.363048 0.8890 0.8890 0.8890 0.8890 0.8890
3621.474876 0.8890 0.8890 0.8890 0.8890 0.8890
3626.586705 0.8890 0.8890 0.8890 0.8890 0.8890
3631.698533 0.8890 0.8890 0.8890 0.8889 0.8884
3636.810362 0.8880 0.8880 0.8880 0.8880 0.8880
3641.922191 0.8880 0.8880 0.8880 0.8880 0.8880
3647.034019 0.8880 0.8880 0.8880 0.8880 0.8880
3652.145848 0.8880 0.8880 0.8880 0.8880 0.8880
3657.257676 0.8880 0.8880 0.8880 0.8880 0.8880
3662.369505 0.8880 0.8880 0.8880 0.8880 0.8880
3667.481334 0.8880 0.8880 0.8880 0.8880 0.8880
3672.593162 0.8880 0.8880 0.8880 0.8880 0.8880
3677.704991 0.8880 0.8880 0.8880 0.8880 0.8880
3682.816819 0.8880 0.8880 0.8880 0.8880 0.8880
3687.928648 0.8883 0.8888 0.8890 0.8890 0.8890
3693.040477 0.8890 0.8890 0.8890 0.8890 0.8890
3698.152305 0.8890 0.8890 0.8890 0.8890 0.8890
3703.264134 0.8890 0.8890 0.8890 0.8890 0.8890
3708.375962 0.8890 0.8890 0.8890 0.8890 0.8890
3713.487791 0.8890 0.8890 0.8890 0.8890 0.8890
3718.599620 0.8890 0.8890 0.8890 0.8890 0.8890
3723.711448 0.8890 0.8890 0.8890 0.8886 0.8881
3728.823277 0.8880 0.8880 0.8880 0.8880 0.8871
3733.935105 0.8861 0.8860 0.8860 0.8860 0.8860
3739.046934 0.8860 0.8860 0.8855 0.8850 0.8845
3744.158763 0.8840 0.8840 0.8840 0.8830 0.8820
3749.270591 0.8820 0.8820 0.8820 0.8820 0.8815
3754.382420 0.8810 0.8810 0.8810 0.8810 0.8810
3759.494248 0.8815 0.8821 0.8831 0.8841 0.8846
3764.606077 0.8851 0.8856 0.8862 0.8872 0.8880
3769.717906 0.8880 0.8881 0.8886 0.8890 0.8890
3774.829734 0.8892 0.8902 0.8910 0.8910 0.8910
3779.941563 0.8910 0.8910 0.8910 0.8910 0.8910
3785.053391 0.8910 0.8910 0.8910 0.8910 0.8910
3790.165220 0.8910 0.8910 0.8910 0.8910 0.8910
3795.277049 0.8910 0.8910 0.8910 0.8910 0.8910
3800.388877 0.8910 0.8910 0.8910 0.8910 0.8910
##END=
