##TITLE=1-Bromo-2-methylpropane
##JCAMP-DX=4.24
$$ By DXEDIT 1.05 (RS McDonald)
##DATA TYPE=INFRARED SPECTRUM
##CLASS=COBLENTZ III
##ORIGIN=DOW CHEMICAL COMPANY
##OWNER=COPYRIGHT (C) 1988 by COBLENTZ SOCIETY INC.
Collection (C) 2018 copyright by the U.S. Secretary of Commerce
on behalf of the United States of America. All rights reserved.
##DATE=1960/01/10
##CAS REGISTRY NO=78-77-3
##MOLFORM=C4 H9 Br
##SOURCE REFERENCE=COBLENTZ NO. 5684
##$NIST SOURCE=COBLENTZ
##$NIST IMAGE=cob5684
##SPECTROMETER/DATA SYSTEM=DOW KBr FOREPRISM-GRATING
$$SPECTRAL CONTAMINATION DUE TO CCl4 AROUND 1550 CM^-^1 HAS BEEN SUBTRACTED
##INSTRUMENT PARAMETERS=BLAZED AT 3.5, 12.0, 20.0 MICRON AND CHANGED AT 5.0, 7.5, 14.9 MICRON
##STATE=SOLUTION (10% CCl4 FOR 3800-1340, 10% CS2 FOR 1340-430)
##PATH LENGTH=0.0116 CM, 0.0112 CM
##SAMPLING PROCEDURE=TRANSMISSION
##RESOLUTION=2
##DATA PROCESSING=DIGITIZED BY COBLENTZ SOCIETY (BATCH I) FROM HARD COPY
##XUNITS=1/CM
##YUNITS=TRANSMITTANCE
##XFACTOR=1
##YFACTOR=1
##DELTAX=1
##FIRSTX=3770
##LASTX=422
##FIRSTY=0.7752
##MAXX=3770
##MINX=422
##MAXY=0.9981
##MINY=0.0278
##NPOINTS=3349
##XYDATA=(X++(Y..Y))
3770.000000 0.7752 0.7905 0.8057 0.8525 0.8994
3765.000000 0.9110 0.9229 0.9236 0.9244 0.9247
3760.000000 0.9259 0.9257 0.9249 0.9248 0.9247
3755.000000 0.9246 0.9245 0.9244 0.9243 0.9242
3750.000000 0.9241 0.9234 0.9228 0.9219 0.9212
3745.000000 0.9206 0.9199 0.9192 0.9186 0.9178
3740.000000 0.9170 0.9174 0.9186 0.9190 0.9193
3735.000000 0.9196 0.9193 0.9188 0.9199 0.9213
3730.000000 0.9220 0.9228 0.9238 0.9247 0.9256
3725.000000 0.9264 0.9273 0.9269 0.9264 0.9260
3720.000000 0.9256 0.9236 0.9233 0.9243 0.9240
3715.000000 0.9237 0.9234 0.9230 0.9231 0.9234
3710.000000 0.9226 0.9234 0.9232 0.9236 0.9240
3705.000000 0.9243 0.9248 0.9253 0.9257 0.9261
3700.000000 0.9266 0.9270 0.9275 0.9283 0.9278
3695.000000 0.9285 0.9294 0.9300 0.9299 0.9299
3690.000000 0.9290 0.9283 0.9276 0.9266 0.9246
3685.000000 0.9238 0.9231 0.9224 0.9217 0.9213
3680.000000 0.9209 0.9204 0.9200 0.9195 0.9191
3675.000000 0.9186 0.9182 0.9177 0.9173 0.9168
3670.000000 0.9177 0.9160 0.9155 0.9150 0.9146
3665.000000 0.9142 0.9142 0.9142 0.9145 0.9147
3660.000000 0.9150 0.9153 0.9156 0.9158 0.9161
3655.000000 0.9163 0.9166 0.9169 0.9173 0.9179
3650.000000 0.9185 0.9195 0.9205 0.9216 0.9226
3645.000000 0.9236 0.9246 0.9244 0.9243 0.9233
3640.000000 0.9221 0.9210 0.9201 0.9196 0.9192
3635.000000 0.9189 0.9187 0.9188 0.9200 0.9198
3630.000000 0.9191 0.9178 0.9183 0.9190 0.9189
3625.000000 0.9189 0.9190 0.9190 0.9191 0.9191
3620.000000 0.9191 0.9191 0.9192 0.9192 0.9193
3615.000000 0.9193 0.9194 0.9194 0.9194 0.9194
3610.000000 0.9195 0.9194 0.9182 0.9198 0.9201
3605.000000 0.9203 0.9205 0.9202 0.9198 0.9210
3600.000000 0.9206 0.9198 0.9208 0.9218 0.9220
3595.000000 0.9221 0.9224 0.9226 0.9228 0.9229
3590.000000 0.9232 0.9233 0.9235 0.9236 0.9239
3585.000000 0.9240 0.9242 0.9244 0.9246 0.9248
3580.000000 0.9250 0.9252 0.9254 0.9255 0.9252
3575.000000 0.9248 0.9261 0.9261 0.9255 0.9246
3570.000000 0.9246 0.9245 0.9245 0.9245 0.9245
3565.000000 0.9245 0.9245 0.9244 0.9244 0.9244
3560.000000 0.9244 0.9244 0.9244 0.9243 0.9243
3555.000000 0.9258 0.9243 0.9245 0.9259 0.9258
3550.000000 0.9254 0.9246 0.9258 0.9258 0.9258
3545.000000 0.9250 0.9248 0.9256 0.9256 0.9255
3540.000000 0.9246 0.9249 0.9243 0.9249 0.9253
3535.000000 0.9252 0.9252 0.9251 0.9251 0.9250
3530.000000 0.9250 0.9233 0.9233 0.9233 0.9233
3525.000000 0.9232 0.9232 0.9231 0.9231 0.9230
3520.000000 0.9230 0.9229 0.9229 0.9228 0.9228
3515.000000 0.9226 0.9226 0.9225 0.9225 0.9224
3510.000000 0.9224 0.9223 0.9223 0.9222 0.9222
3505.000000 0.9221 0.9221 0.9219 0.9219 0.9219
3500.000000 0.9219 0.9218 0.9218 0.9218 0.9219
3495.000000 0.9219 0.9219 0.9219 0.9221 0.9221
3490.000000 0.9222 0.9222 0.9222 0.9222 0.9223
3485.000000 0.9223 0.9224 0.9224 0.9225 0.9225
3480.000000 0.9226 0.9226 0.9227 0.9227 0.9228
3475.000000 0.9228 0.9228 0.9228 0.9229 0.9229
3470.000000 0.9230 0.9230 0.9231 0.9231 0.9232
3465.000000 0.9232 0.9233 0.9233 0.9234 0.9234
3460.000000 0.9234 0.9234 0.9235 0.9235 0.9235
3455.000000 0.9235 0.9235 0.9235 0.9235 0.9235
3450.000000 0.9236 0.9236 0.9236 0.9236 0.9236
3445.000000 0.9236 0.9236 0.9236 0.9236 0.9236
3440.000000 0.9237 0.9237 0.9237 0.9236 0.9236
3435.000000 0.9235 0.9234 0.9233 0.9232 0.9230
3430.000000 0.9230 0.9229 0.9228 0.9227 0.9226
3425.000000 0.9212 0.9222 0.9223 0.9222 0.9221
3420.000000 0.9221 0.9218 0.9218 0.9215 0.9215
3415.000000 0.9213 0.9212 0.9210 0.9209 0.9207
3410.000000 0.9207 0.9205 0.9204 0.9211 0.9209
3405.000000 0.9200 0.9199 0.9196 0.9195 0.9194
3400.000000 0.9193 0.9191 0.9190 0.9189 0.9188
3395.000000 0.9186 0.9185 0.9184 0.9183 0.9181
3390.000000 0.9179 0.9177 0.9176 0.9175 0.9175
3385.000000 0.9175 0.9175 0.9175 0.9175 0.9175
3380.000000 0.9175 0.9175 0.9175 0.9175 0.9175
3375.000000 0.9175 0.9175 0.9175 0.9175 0.9175
3370.000000 0.9189 0.9176 0.9175 0.9174 0.9174
3365.000000 0.9174 0.9174 0.9174 0.9174 0.9174
3360.000000 0.9174 0.9174 0.9174 0.9174 0.9174
3355.000000 0.9174 0.9174 0.9174 0.9174 0.9174
3350.000000 0.9174 0.9173 0.9173 0.9173 0.9174
3345.000000 0.9186 0.9190 0.9177 0.9189 0.9175
3340.000000 0.9176 0.9176 0.9192 0.9192 0.9191
3335.000000 0.9178 0.9179 0.9179 0.9180 0.9180
3330.000000 0.9181 0.9181 0.9182 0.9182 0.9183
3325.000000 0.9183 0.9184 0.9184 0.9185 0.9185
3320.000000 0.9186 0.9186 0.9187 0.9187 0.9188
3315.000000 0.9188 0.9189 0.9189 0.9206 0.9206
3310.000000 0.9207 0.9207 0.9205 0.9195 0.9209
3305.000000 0.9209 0.9205 0.9194 0.9195 0.9195
3300.000000 0.9196 0.9196 0.9197 0.9197 0.9197
3295.000000 0.9197 0.9198 0.9198 0.9198 0.9198
3290.000000 0.9198 0.9198 0.9199 0.9199 0.9199
3285.000000 0.9199 0.9201 0.9216 0.9214 0.9200
3280.000000 0.9203 0.9216 0.9212 0.9201 0.9206
3275.000000 0.9217 0.9218 0.9218 0.9218 0.9218
3270.000000 0.9219 0.9219 0.9220 0.9221 0.9221
3265.000000 0.9221 0.9223 0.9224 0.9224 0.9224
3260.000000 0.9226 0.9227 0.9228 0.9227 0.9213
3255.000000 0.9228 0.9228 0.9228 0.9230 0.9230
3250.000000 0.9230 0.9230 0.9231 0.9231 0.9231
3245.000000 0.9218 0.9213 0.9215 0.9210 0.9205
3240.000000 0.9199 0.9194 0.9189 0.9183 0.9178
3235.000000 0.9173 0.9168 0.9162 0.9157 0.9152
3230.000000 0.9147 0.9142 0.9139 0.9135 0.9119
3225.000000 0.9121 0.9131 0.9128 0.9125 0.9122
3220.000000 0.9121 0.9118 0.9117 0.9115 0.9113
3215.000000 0.9111 0.9108 0.9105 0.9103 0.9101
3210.000000 0.9099 0.9097 0.9082 0.9077 0.9075
3205.000000 0.9075 0.9075 0.9074 0.9074 0.9074
3200.000000 0.9076 0.9087 0.9077 0.9084 0.9077
3195.000000 0.9088 0.9088 0.9087 0.9087 0.9087
3190.000000 0.9079 0.9080 0.9087 0.9086 0.9076
3185.000000 0.9070 0.9070 0.9070 0.9070 0.9069
3180.000000 0.9069 0.9070 0.9072 0.9073 0.9076
3175.000000 0.9078 0.9080 0.9082 0.9084 0.9086
3170.000000 0.9088 0.9090 0.9092 0.9093 0.9095
3165.000000 0.9097 0.9106 0.9117 0.9111 0.9115
3160.000000 0.9123 0.9124 0.9117 0.9124 0.9119
3155.000000 0.9116 0.9131 0.9135 0.9136 0.9137
3150.000000 0.9138 0.9138 0.9123 0.9124 0.9125
3145.000000 0.9127 0.9128 0.9129 0.9130 0.9135
3140.000000 0.9146 0.9147 0.9148 0.9149 0.9150
3135.000000 0.9151 0.9153 0.9152 0.9154 0.9155
3130.000000 0.9156 0.9157 0.9157 0.9157 0.9157
3125.000000 0.9156 0.9154 0.9153 0.9153 0.9152
3120.000000 0.9151 0.9150 0.9150 0.9149 0.9149
3115.000000 0.9148 0.9147 0.9146 0.9146 0.9144
3110.000000 0.9143 0.9141 0.9138 0.9145 0.9151
3105.000000 0.9149 0.9148 0.9146 0.9145 0.9142
3100.000000 0.9152 0.9154 0.9152 0.9165 0.9179
3095.000000 0.9192 0.9190 0.9188 0.9184 0.9168
3090.000000 0.9163 0.9145 0.9131 0.9133 0.9137
3085.000000 0.9117 0.9105 0.9103 0.9101 0.9098
3080.000000 0.9096 0.9094 0.9101 0.9114 0.9117
3075.000000 0.9114 0.9125 0.9126 0.9109 0.9105
3070.000000 0.9103 0.9084 0.9131 0.9076 0.9073
3065.000000 0.9069 0.9063 0.9046 0.9042 0.9038
3060.000000 0.9038 0.9046 0.9041 0.9032 0.9020
3055.000000 0.9023 0.9019 0.9002 0.8992 0.8992
3050.000000 0.8989 0.8978 0.8969 0.8959 0.8962
3045.000000 0.8954 0.8957 0.8963 0.8968 0.8973
3040.000000 0.8978 0.8959 0.8941 0.8915 0.8876
3035.000000 0.8840 0.8813 0.8773 0.8738 0.8702
3030.000000 0.8663 0.8619 0.8584 0.8541 0.8499
3025.000000 0.8450 0.8404 0.8355 0.8308 0.8186
3020.000000 0.8064 0.7840 0.7609 0.7514 0.7408
3015.000000 0.7305 0.7204 0.7102 0.7000 0.6913
3010.000000 0.6826 0.6756 0.6683 0.6618 0.6565
3005.000000 0.6526 0.6480 0.6435 0.6388 0.6293
3000.000000 0.6202 0.5992 0.5778 0.5679 0.5581
2995.000000 0.5479 0.5378 0.5229 0.5073 0.4657
2990.000000 0.4238 0.3820 0.3403 0.2985 0.2567
2985.000000 0.2147 0.1731 0.1313 0.0895 0.0610
2980.000000 0.0324 0.0319 0.0315 0.0312 0.0311
2975.000000 0.0307 0.0278 0.0304 0.0304 0.0360
2970.000000 0.0417 0.0587 0.0758 0.0927 0.1098
2965.000000 0.1266 0.1437 0.1608 0.1777 0.1947
2960.000000 0.2118 0.2291 0.2461 0.2627 0.2797
2955.000000 0.2968 0.3139 0.3313 0.3484 0.3638
2950.000000 0.3809 0.3794 0.3794 0.3791 0.3787
2945.000000 0.3661 0.3538 0.3408 0.3283 0.3212
2940.000000 0.3145 0.3149 0.3175 0.3175 0.3175
2935.000000 0.3309 0.3448 0.3588 0.3727 0.3867
2930.000000 0.4007 0.4146 0.4286 0.4426 0.4565
2925.000000 0.4705 0.4845 0.4985 0.5121 0.5246
2920.000000 0.5378 0.5375 0.5373 0.5370 0.5368
2915.000000 0.5365 0.5363 0.5359 0.5357 0.5354
2910.000000 0.5352 0.5348 0.5353 0.5349 0.5337
2905.000000 0.5333 0.5330 0.5340 0.5351 0.5442
2900.000000 0.5533 0.5622 0.5713 0.5803 0.5894
2895.000000 0.5984 0.6074 0.6164 0.6255 0.6261
2890.000000 0.6269 0.6269 0.6269 0.6268 0.6268
2885.000000 0.6138 0.6276 0.5508 0.5006 0.4504
2880.000000 0.4003 0.3583 0.3114 0.3157 0.3160
2875.000000 0.3179 0.3199 0.3503 0.3807 0.4111
2870.000000 0.4416 0.4720 0.5024 0.5328 0.5634
2865.000000 0.5938 0.6242 0.6546 0.6851 0.7028
2860.000000 0.7205 0.7241 0.7276 0.7311 0.7346
2855.000000 0.7403 0.7449 0.7522 0.7597 0.7777
2850.000000 0.7959 0.8008 0.8058 0.8109 0.8172
2845.000000 0.8220 0.8265 0.8294 0.8340 0.8372
2840.000000 0.8403 0.8434 0.8477 0.8489 0.8492
2835.000000 0.8497 0.8509 0.8521 0.8533 0.8542
2830.000000 0.8554 0.8575 0.8573 0.8593 0.8605
2825.000000 0.8599 0.8606 0.8628 0.8625 0.8648
2820.000000 0.8657 0.8663 0.8659 0.8668 0.8676
2815.000000 0.8691 0.8705 0.8718 0.8733 0.8748
2810.000000 0.8763 0.8777 0.8801 0.8821 0.8836
2805.000000 0.8849 0.8865 0.8880 0.8895 0.8908
2800.000000 0.8923 0.8932 0.8941 0.8947 0.8957
2795.000000 0.8964 0.8972 0.8978 0.8982 0.8975
2790.000000 0.8988 0.8980 0.8984 0.8987 0.8991
2785.000000 0.9001 0.9014 0.9009 0.9006 0.9018
2780.000000 0.9029 0.9032 0.9036 0.9039 0.9043
2775.000000 0.9046 0.9050 0.9053 0.9057 0.9060
2770.000000 0.9064 0.9067 0.9071 0.9074 0.9040
2765.000000 0.9080 0.9084 0.9086 0.9090 0.9092
2760.000000 0.9094 0.9096 0.9098 0.9099 0.9101
2755.000000 0.9102 0.9105 0.9107 0.9109 0.9109
2750.000000 0.9109 0.9105 0.9102 0.9087 0.9071
2745.000000 0.9051 0.9032 0.9013 0.8994 0.8973
2740.000000 0.8953 0.8942 0.8932 0.8938 0.8946
2735.000000 0.8951 0.8959 0.8966 0.8973 0.8978
2730.000000 0.8983 0.8987 0.8991 0.8994 0.8998
2725.000000 0.9001 0.9006 0.9009 0.9013 0.9017
2720.000000 0.9021 0.9031 0.9040 0.9059 0.9081
2715.000000 0.9098 0.9115 0.9118 0.9122 0.9125
2710.000000 0.9128 0.9131 0.9134 0.9137 0.9140
2705.000000 0.9144 0.9147 0.9150 0.9153 0.9154
2700.000000 0.9154 0.9154 0.9154 0.9153 0.9153
2695.000000 0.9153 0.9153 0.9152 0.9152 0.9151
2690.000000 0.9151 0.9151 0.9151 0.9148 0.9145
2685.000000 0.9141 0.9138 0.9135 0.9132 0.9127
2680.000000 0.9124 0.9121 0.9118 0.9115 0.9112
2675.000000 0.9107 0.9104 0.9101 0.9098 0.9095
2670.000000 0.9091 0.9088 0.9085 0.9082 0.9080
2665.000000 0.9077 0.9073 0.9070 0.9069 0.9068
2660.000000 0.9069 0.9074 0.9082 0.9104 0.9112
2655.000000 0.9119 0.9127 0.9136 0.9145 0.9147
2650.000000 0.9145 0.9150 0.9164 0.9174 0.9176
2645.000000 0.9170 0.9166 0.9168 0.9182 0.9178
2640.000000 0.9175 0.9177 0.9181 0.9183 0.9185
2635.000000 0.9187 0.9205 0.9205 0.9204 0.9188
2630.000000 0.9188 0.9198 0.9195 0.9192 0.9189
2625.000000 0.9184 0.9178 0.9167 0.9155 0.9143
2620.000000 0.9132 0.9119 0.9108 0.9102 0.9096
2615.000000 0.9092 0.9090 0.9087 0.9085 0.9082
2610.000000 0.9080 0.9076 0.9073 0.9072 0.9072
2605.000000 0.9072 0.9073 0.9073 0.9073 0.9073
2600.000000 0.9073 0.9075 0.9077 0.9084 0.9090
2595.000000 0.9096 0.9103 0.9109 0.9115 0.9122
2590.000000 0.9128 0.9134 0.9141 0.9147 0.9153
2585.000000 0.9160 0.9166 0.9171 0.9179 0.9184
2580.000000 0.9190 0.9191 0.9193 0.9195 0.9198
2575.000000 0.9199 0.9201 0.9203 0.9205 0.9207
2570.000000 0.9209 0.9210 0.9212 0.9214 0.9216
2565.000000 0.9218 0.9220 0.9221 0.9224 0.9224
2560.000000 0.9227 0.9228 0.9231 0.9233 0.9235
2555.000000 0.9236 0.9239 0.9241 0.9243 0.9244
2550.000000 0.9246 0.9248 0.9250 0.9252 0.9254
2545.000000 0.9255 0.9257 0.9259 0.9262 0.9263
2540.000000 0.9264 0.9264 0.9264 0.9264 0.9265
2535.000000 0.9265 0.9266 0.9266 0.9266 0.9266
2530.000000 0.9267 0.9267 0.9267 0.9267 0.9268
2525.000000 0.9268 0.9268 0.9268 0.9269 0.9269
2520.000000 0.9270 0.9270 0.9270 0.9270 0.9271
2515.000000 0.9271 0.9271 0.9271 0.9272 0.9272
2510.000000 0.9272 0.9272 0.9273 0.9273 0.9273
2505.000000 0.9273 0.9273 0.9273 0.9275 0.9275
2500.000000 0.9275 0.9275 0.9276 0.9276 0.9276
2495.000000 0.9276 0.9276 0.9276 0.9276 0.9276
2490.000000 0.9278 0.9278 0.9279 0.9279 0.9279
2485.000000 0.9278 0.9278 0.9278 0.9278 0.9285
2480.000000 0.9291 0.9291 0.9291 0.9291 0.9291
2475.000000 0.9291 0.9291 0.9290 0.9290 0.9290
2470.000000 0.9290 0.9288 0.9288 0.9288 0.9288
2465.000000 0.9288 0.9288 0.9288 0.9288 0.9287
2460.000000 0.9287 0.9287 0.9279 0.9278 0.9277
2455.000000 0.9269 0.9269 0.9279 0.9285 0.9284
2450.000000 0.9271 0.9280 0.9283 0.9282 0.9282
2445.000000 0.9282 0.9282 0.9281 0.9281 0.9281
2440.000000 0.9281 0.9280 0.9280 0.9280 0.9280
2435.000000 0.9279 0.9279 0.9278 0.9278 0.9277
2430.000000 0.9276 0.9275 0.9274 0.9273 0.9271
2425.000000 0.9270 0.9269 0.9268 0.9267 0.9266
2420.000000 0.9265 0.9264 0.9263 0.9262 0.9261
2415.000000 0.9260 0.9259 0.9258 0.9256 0.9255
2410.000000 0.9254 0.9258 0.9263 0.9257 0.9266
2405.000000 0.9265 0.9265 0.9264 0.9263 0.9260
2400.000000 0.9260 0.9260 0.9259 0.9257 0.9257
2395.000000 0.9257 0.9257 0.9256 0.9255 0.9253
2390.000000 0.9253 0.9269 0.9268 0.9266 0.9266
2385.000000 0.9268 0.9281 0.9285 0.9293 0.9308
2380.000000 0.9314 0.9325 0.9339 0.9350 0.9365
2375.000000 0.9369 0.9382 0.9394 0.9399 0.9404
2370.000000 0.9410 0.9405 0.9407 0.9414 0.9421
2365.000000 0.9428 0.9434 0.9439 0.9447 0.9455
2360.000000 0.9477 0.9485 0.9507 0.9513 0.9534
2355.000000 0.9550 0.9553 0.9555 0.9558 0.9555
2350.000000 0.9548 0.9551 0.9563 0.9579 0.9585
2345.000000 0.9584 0.9571 0.9566 0.9564 0.9562
2340.000000 0.9562 0.9547 0.9558 0.9551 0.9528
2335.000000 0.9512 0.9515 0.9501 0.9489 0.9478
2330.000000 0.9479 0.9466 0.9453 0.9445 0.9444
2325.000000 0.9437 0.9434 0.9421 0.9408 0.9395
2320.000000 0.9382 0.9368 0.9355 0.9341 0.9328
2315.000000 0.9314 0.9300 0.9285 0.9272 0.9261
2310.000000 0.9249 0.9239 0.9228 0.9219 0.9210
2305.000000 0.9200 0.9190 0.9180 0.9170 0.9170
2300.000000 0.9173 0.9178 0.9190 0.9189 0.9189
2295.000000 0.9189 0.9189 0.9192 0.9193 0.9193
2290.000000 0.9194 0.9194 0.9182 0.9181 0.9186
2285.000000 0.9192 0.9198 0.9189 0.9193 0.9199
2280.000000 0.9204 0.9207 0.9200 0.9205 0.9208
2275.000000 0.9200 0.9206 0.9211 0.9212 0.9207
2270.000000 0.9213 0.9211 0.9209 0.9215 0.9221
2265.000000 0.9217 0.9217 0.9222 0.9229 0.9224
2260.000000 0.9226 0.9231 0.9224 0.9227 0.9233
2255.000000 0.9239 0.9228 0.9231 0.9236 0.9237
2250.000000 0.9226 0.9229 0.9234 0.9237 0.9242
2245.000000 0.9240 0.9234 0.9237 0.9241 0.9244
2240.000000 0.9247 0.9251 0.9255 0.9258 0.9262
2235.000000 0.9255 0.9254 0.9255 0.9258 0.9262
2230.000000 0.9265 0.9267 0.9271 0.9273 0.9276
2225.000000 0.9278 0.9281 0.9284 0.9285 0.9274
2220.000000 0.9277 0.9279 0.9282 0.9284 0.9287
2215.000000 0.9289 0.9292 0.9292 0.9294 0.9294
2210.000000 0.9294 0.9294 0.9294 0.9294 0.9294
2205.000000 0.9294 0.9294 0.9294 0.9293 0.9293
2200.000000 0.9293 0.9291 0.9291 0.9291 0.9289
2195.000000 0.9277 0.9289 0.9283 0.9271 0.9271
2190.000000 0.9270 0.9268 0.9268 0.9268 0.9267
2185.000000 0.9266 0.9275 0.9271 0.9264 0.9262
2180.000000 0.9262 0.9261 0.9273 0.9276 0.9277
2175.000000 0.9277 0.9278 0.9278 0.9279 0.9279
2170.000000 0.9280 0.9278 0.9265 0.9265 0.9266
2165.000000 0.9266 0.9267 0.9267 0.9267 0.9267
2160.000000 0.9270 0.9270 0.9271 0.9271 0.9271
2155.000000 0.9271 0.9271 0.9270 0.9273 0.9273
2150.000000 0.9274 0.9274 0.9275 0.9275 0.9275
2145.000000 0.9275 0.9277 0.9277 0.9278 0.9278
2140.000000 0.9278 0.9278 0.9280 0.9280 0.9281
2135.000000 0.9282 0.9283 0.9283 0.9284 0.9285
2130.000000 0.9286 0.9286 0.9287 0.9288 0.9289
2125.000000 0.9289 0.9290 0.9291 0.9279 0.9290
2120.000000 0.9293 0.9294 0.9295 0.9295 0.9296
2115.000000 0.9297 0.9298 0.9298 0.9299 0.9301
2110.000000 0.9302 0.9303 0.9304 0.9305 0.9306
2105.000000 0.9307 0.9308 0.9309 0.9310 0.9311
2100.000000 0.9313 0.9314 0.9303 0.9300 0.9314
2095.000000 0.9318 0.9305 0.9318 0.9322 0.9322
2090.000000 0.9325 0.9326 0.9327 0.9327 0.9329
2085.000000 0.9330 0.9330 0.9330 0.9330 0.9330
2080.000000 0.9330 0.9330 0.9330 0.9330 0.9330
2075.000000 0.9330 0.9330 0.9330 0.9330 0.9329
2070.000000 0.9329 0.9329 0.9329 0.9329 0.9329
2065.000000 0.9328 0.9328 0.9326 0.9326 0.9324
2060.000000 0.9322 0.9322 0.9321 0.9323 0.9334
2055.000000 0.9333 0.9331 0.9329 0.9322 0.9319
2050.000000 0.9326 0.9315 0.9307 0.9306 0.9305
2045.000000 0.9302 0.9299 0.9297 0.9295 0.9292
2040.000000 0.9290 0.9288 0.9286 0.9282 0.9280
2035.000000 0.9278 0.9276 0.9273 0.9271 0.9269
2030.000000 0.9265 0.9263 0.9266 0.9269 0.9257
2025.000000 0.9260 0.9267 0.9264 0.9262 0.9259
2020.000000 0.9257 0.9254 0.9252 0.9248 0.9245
2015.000000 0.9243 0.9241 0.9239 0.9238 0.9236
2010.000000 0.9234 0.9231 0.9231 0.9230 0.9228
2005.000000 0.9227 0.9226 0.9224 0.9223 0.9220
2000.000000 0.9217 0.9214 0.9205 0.9192 0.9190
1995.000000 0.9190 0.9191 0.9192 0.9192 0.9193
1990.000000 0.9194 0.9195 0.9195 0.9196 0.9183
1985.000000 0.9180 0.9180 0.9181 0.9181 0.9181
1980.000000 0.9181 0.9180 0.9166 0.9167 0.9167
1975.000000 0.9167 0.9168 0.9168 0.9169 0.9169
1970.000000 0.9170 0.9170 0.9168 0.9167 0.9175
1965.000000 0.9170 0.9163 0.9173 0.9177 0.9177
1960.000000 0.9177 0.9177 0.9178 0.9178 0.9178
1955.000000 0.9178 0.9162 0.9162 0.9163 0.9163
1950.000000 0.9160 0.9147 0.9148 0.9150 0.9151
1945.000000 0.9152 0.9154 0.9155 0.9156 0.9157
1940.000000 0.9158 0.9159 0.9161 0.9161 0.9159
1935.000000 0.9157 0.9154 0.9151 0.9149 0.9148
1930.000000 0.9147 0.9147 0.9146 0.9145 0.9144
1925.000000 0.9143 0.9142 0.9141 0.9141 0.9140
1920.000000 0.9139 0.9138 0.9136 0.9135 0.9134
1915.000000 0.9134 0.9133 0.9132 0.9131 0.9130
1910.000000 0.9129 0.9128 0.9128 0.9139 0.9142
1905.000000 0.9142 0.9143 0.9143 0.9143 0.9143
1900.000000 0.9143 0.9143 0.9143 0.9143 0.9144
1895.000000 0.9144 0.9144 0.9144 0.9144 0.9139
1890.000000 0.9128 0.9128 0.9127 0.9127 0.9125
1885.000000 0.9125 0.9135 0.9140 0.9140 0.9139
1880.000000 0.9137 0.9137 0.9136 0.9134 0.9133
1875.000000 0.9146 0.9145 0.9144 0.9142 0.9142
1870.000000 0.9141 0.9140 0.9138 0.9136 0.9135
1865.000000 0.9134 0.9133 0.9131 0.9130 0.9129
1860.000000 0.9128 0.9127 0.9127 0.9136 0.9133
1855.000000 0.9130 0.9131 0.9133 0.9135 0.9136
1850.000000 0.9138 0.9139 0.9141 0.9141 0.9145
1845.000000 0.9145 0.9148 0.9149 0.9151 0.9152
1840.000000 0.9154 0.9154 0.9154 0.9154 0.9148
1835.000000 0.9139 0.9139 0.9139 0.9139 0.9139
1830.000000 0.9139 0.9140 0.9140 0.9140 0.9140
1825.000000 0.9140 0.9141 0.9141 0.9141 0.9141
1820.000000 0.9141 0.9158 0.9158 0.9158 0.9158
1815.000000 0.9158 0.9159 0.9159 0.9159 0.9159
1810.000000 0.9160 0.9154 0.9144 0.9144 0.9144
1805.000000 0.9145 0.9136 0.9130 0.9130 0.9131
1800.000000 0.9131 0.9131 0.9131 0.9130 0.9132
1795.000000 0.9132 0.9131 0.9131 0.9131 0.9133
1790.000000 0.9132 0.9132 0.9132 0.9132 0.9132
1785.000000 0.9133 0.9133 0.9133 0.9133 0.9133
1780.000000 0.9133 0.9134 0.9134 0.9134 0.9125
1775.000000 0.9119 0.9119 0.9120 0.9120 0.9120
1770.000000 0.9120 0.9120 0.9120 0.9121 0.9121
1765.000000 0.9121 0.9122 0.9122 0.9123 0.9123
1760.000000 0.9124 0.9127 0.9139 0.9140 0.9140
1755.000000 0.9141 0.9141 0.9141 0.9142 0.9142
1750.000000 0.9143 0.9143 0.9143 0.9144 0.9144
1745.000000 0.9147 0.9148 0.9150 0.9151 0.9154
1740.000000 0.9155 0.9157 0.9158 0.9161 0.9162
1735.000000 0.9164 0.9165 0.9166 0.9169 0.9170
1730.000000 0.9173 0.9175 0.9179 0.9183 0.9185
1725.000000 0.9189 0.9192 0.9196 0.9198 0.9202
1720.000000 0.9205 0.9206 0.9205 0.9205 0.9204
1715.000000 0.9202 0.9194 0.9185 0.9175 0.9167
1710.000000 0.9158 0.9150 0.9148 0.9148 0.9148
1705.000000 0.9147 0.9148 0.9147 0.9148 0.9147
1700.000000 0.9147 0.9148 0.9147 0.9145 0.9144
1695.000000 0.9142 0.9140 0.9138 0.9137 0.9134
1690.000000 0.9135 0.9132 0.9131 0.9130 0.9128
1685.000000 0.9127 0.9127 0.9126 0.9126 0.9126
1680.000000 0.9125 0.9124 0.9124 0.9123 0.9123
1675.000000 0.9122 0.9121 0.9127 0.9136 0.9135
1670.000000 0.9134 0.9134 0.9133 0.9132 0.9132
1665.000000 0.9131 0.9130 0.9131 0.9131 0.9132
1660.000000 0.9146 0.9134 0.9133 0.9149 0.9150
1655.000000 0.9150 0.9150 0.9151 0.9142 0.9158
1650.000000 0.9160 0.9163 0.9163 0.9165 0.9170
1645.000000 0.9176 0.9176 0.9175 0.9184 0.9191
1640.000000 0.9190 0.9190 0.9197 0.9197 0.9204
1635.000000 0.9204 0.9196 0.9202 0.9196 0.9202
1630.000000 0.9194 0.9198 0.9186 0.9190 0.9173
1625.000000 0.9153 0.9164 0.9167 0.9183 0.9183
1620.000000 0.9175 0.9176 0.9166 0.9158 0.9166
1615.000000 0.9176 0.9185 0.9191 0.9203 0.9224
1610.000000 0.9215 0.9213 0.9204 0.9183 0.9192
1605.000000 0.9171 0.9164 0.9060 0.8981 0.8870
1600.000000 0.8816 0.8750 0.8692 0.8631 0.8555
1595.000000 0.8486 0.8433 0.8389 0.8380 0.8398
1590.000000 0.8391 0.8407 0.8409 0.8430 0.8454
1585.000000 0.8468 0.8500 0.8549 0.8552 0.8566
1580.000000 0.8569 0.8567 0.8532 0.8518 0.8489
1575.000000 0.8463 0.8448 0.8416 0.8372 0.8356
1570.000000 0.8310 0.8283 0.8245 0.8235 0.8224
1565.000000 0.8234 0.8090 0.7891 0.7897 0.7970
1560.000000 0.8099 0.8236 0.8126 0.7848 0.7707
1555.000000 0.7767 0.7803 0.7846 0.7905 0.7956
1550.000000 0.7985 0.7967 0.7948 0.7919 0.7887
1545.000000 0.7853 0.7873 0.7882 0.7875 0.7864
1540.000000 0.7931 0.7980 0.8033 0.8091 0.8197
1535.000000 0.8317 0.8393 0.8465 0.8518 0.8560
1530.000000 0.8610 0.8646 0.8671 0.8696 0.8720
1525.000000 0.8723 0.8740 0.8744 0.8763 0.8765
1520.000000 0.8782 0.8789 0.8782 0.8791 0.8796
1515.000000 0.8790 0.8792 0.8787 0.8787 0.8774
1510.000000 0.8768 0.8766 0.8755 0.8742 0.8734
1505.000000 0.8729 0.8733 0.8735 0.8727 0.8714
1500.000000 0.8705 0.8696 0.8674 0.8658 0.8635
1495.000000 0.8625 0.8589 0.8557 0.8527 0.8504
1490.000000 0.8453 0.8409 0.8360 0.8269 0.8191
1485.000000 0.8113 0.8024 0.7950 0.7887 0.7815
1480.000000 0.7715 0.7580 0.7439 0.7299 0.6731
1475.000000 0.6506 0.6344 0.6221 0.6096 0.4557
1470.000000 0.2830 0.2813 0.2850 0.2908 0.2961
1465.000000 0.3019 0.3072 0.3191 0.3360 0.3565
1460.000000 0.3968 0.4366 0.4762 0.5162 0.5460
1455.000000 0.5493 0.5517 0.5533 0.5557 0.5586
1450.000000 0.5869 0.6167 0.6468 0.6762 0.7060
1445.000000 0.7361 0.7565 0.7619 0.7659 0.7678
1440.000000 0.7675 0.7677 0.7678 0.7043 0.6191
1435.000000 0.5339 0.5038 0.5115 0.5698 0.6287
1430.000000 0.6868 0.7369 0.7624 0.7751 0.7881
1425.000000 0.7957 0.8028 0.8098 0.8175 0.8248
1420.000000 0.8301 0.8359 0.8419 0.8480 0.8541
1415.000000 0.8604 0.8622 0.8638 0.8657 0.8685
1410.000000 0.8712 0.8730 0.8746 0.8759 0.8771
1405.000000 0.8772 0.8773 0.8773 0.8767 0.8761
1400.000000 0.8752 0.8723 0.8701 0.8679 0.8654
1395.000000 0.8621 0.8560 0.8212 0.8047 0.7940
1390.000000 0.7833 0.5302 0.3281 0.3319 0.3648
1385.000000 0.4096 0.4529 0.4946 0.5359 0.5770
1380.000000 0.6188 0.6608 0.7036 0.7465 0.7518
1375.000000 0.7119 0.6536 0.5953 0.5369 0.4786
1370.000000 0.4411 0.4662 0.5361 0.6061 0.6760
1365.000000 0.7376 0.7593 0.7815 0.7982 0.8093
1360.000000 0.8206 0.8288 0.8371 0.8453 0.8542
1355.000000 0.8608 0.8666 0.8725 0.8768 0.8789
1350.000000 0.8809 0.8810 0.8810 0.8805 0.8786
1345.000000 0.8767 0.8747 0.8727 0.8700 0.8681
1340.000000 0.8660 0.8648 0.8641 0.8641 0.8640
1335.000000 0.8699 0.8668 0.8686 0.8698 0.8710
1330.000000 0.8715 0.8689 0.8617 0.8540 0.8421
1325.000000 0.8290 0.8075 0.7830 0.7431 0.6950
1320.000000 0.6469 0.5989 0.5311 0.5332 0.5345
1315.000000 0.5546 0.5949 0.6351 0.6725 0.6919
1310.000000 0.7076 0.7256 0.7506 0.7708 0.7847
1305.000000 0.7988 0.8115 0.8292 0.8469 0.8582
1300.000000 0.8695 0.8797 0.8860 0.8921 0.8952
1295.000000 0.8991 0.9018 0.9046 0.9073 0.9087
1290.000000 0.9100 0.9120 0.9141 0.9162 0.9179
1285.000000 0.9198 0.9215 0.9232 0.9250 0.9258
1280.000000 0.9260 0.9263 0.9264 0.9266 0.9282
1275.000000 0.9285 0.9285 0.9287 0.9288 0.9289
1270.000000 0.9282 0.9274 0.9266 0.9264 0.9266
1265.000000 0.9259 0.9254 0.9247 0.9231 0.9216
1260.000000 0.9201 0.9185 0.9165 0.9134 0.9102
1255.000000 0.9073 0.9042 0.8973 0.8902 0.8819
1250.000000 0.8619 0.8355 0.8019 0.7363 0.6961
1245.000000 0.5983 0.5798 0.5613 0.5019 0.4851
1240.000000 0.4726 0.4116 0.4088 0.4059 0.3771
1235.000000 0.2985 0.2201 0.1416 0.0633 0.0539
1230.000000 0.0504 0.1021 0.1971 0.2921 0.3871
1225.000000 0.4821 0.5771 0.7033 0.7237 0.7493
1220.000000 0.7720 0.7918 0.8024 0.8130 0.8236
1215.000000 0.8300 0.8324 0.8333 0.8325 0.8303
1210.000000 0.8210 0.8151 0.8136 0.8186 0.8245
1205.000000 0.8315 0.8390 0.8464 0.8537 0.8612
1200.000000 0.8686 0.8760 0.8802 0.8854 0.8907
1195.000000 0.8959 0.8987 0.9027 0.9046 0.9066
1190.000000 0.9085 0.9105 0.9113 0.9124 0.9146
1185.000000 0.9144 0.9142 0.9130 0.9107 0.9090
1180.000000 0.9092 0.9090 0.9088 0.9079 0.9062
1175.000000 0.9009 0.8716 0.8422 0.8174 0.8157
1170.000000 0.8248 0.8363 0.8479 0.8609 0.8726
1165.000000 0.8843 0.8958 0.9040 0.9095 0.9150
1160.000000 0.9205 0.9244 0.9281 0.9299 0.9315
1155.000000 0.9330 0.9339 0.9346 0.9356 0.9396
1150.000000 0.9367 0.9381 0.9348 0.9306 0.9249
1145.000000 0.9192 0.9142 0.9053 0.9070 0.9065
1140.000000 0.9120 0.9203 0.9288 0.9368 0.9429
1135.000000 0.9501 0.9539 0.9548 0.9569 0.9590
1130.000000 0.9596 0.9595 0.9592 0.9598 0.9589
1125.000000 0.9605 0.9599 0.9594 0.9600 0.9601
1120.000000 0.9587 0.9541 0.9495 0.9452 0.9424
1115.000000 0.9383 0.9339 0.9300 0.9264 0.9227
1110.000000 0.9193 0.9158 0.9116 0.9096 0.9110
1105.000000 0.9156 0.9212 0.9268 0.9324 0.9368
1100.000000 0.9396 0.9423 0.9450 0.9477 0.9505
1095.000000 0.9526 0.9544 0.9562 0.9569 0.9572
1090.000000 0.9574 0.9576 0.9578 0.9573 0.9606
1085.000000 0.9561 0.9556 0.9549 0.9540 0.9519
1080.000000 0.9511 0.9494 0.9469 0.9450 0.9425
1075.000000 0.9412 0.9393 0.9380 0.9371 0.9351
1070.000000 0.9316 0.9272 0.9230 0.9186 0.9126
1065.000000 0.9051 0.8884 0.8652 0.8434 0.8203
1060.000000 0.7868 0.7868 0.8097 0.8470 0.8831
1055.000000 0.8899 0.8961 0.9023 0.9083 0.9127
1050.000000 0.9180 0.9220 0.9260 0.9301 0.9325
1045.000000 0.9347 0.9373 0.9396 0.9420 0.9443
1040.000000 0.9467 0.9481 0.9497 0.9513 0.9526
1035.000000 0.9534 0.9542 0.9552 0.9560 0.9568
1030.000000 0.9561 0.9571 0.9575 0.9579 0.9580
1025.000000 0.9571 0.9575 0.9577 0.9582 0.9586
1020.000000 0.9587 0.9587 0.9587 0.9587 0.9587
1015.000000 0.9587 0.9587 0.9587 0.9587 0.9586
1010.000000 0.9586 0.9586 0.9572 0.9571 0.9572
1005.000000 0.9573 0.9557 0.9558 0.9559 0.9560
1000.000000 0.9561 0.9560 0.9557 0.9546 0.9568
995.000000 0.9549 0.9550 0.9552 0.9560 0.9571
990.000000 0.9572 0.9573 0.9574 0.9574 0.9571
985.000000 0.9568 0.9565 0.9561 0.9558 0.9556
980.000000 0.9553 0.9543 0.9534 0.9523 0.9512
975.000000 0.9502 0.9490 0.9473 0.9444 0.9408
970.000000 0.9344 0.9209 0.9027 0.8844 0.8662
965.000000 0.8479 0.8349 0.8338 0.8389 0.8466
960.000000 0.8540 0.8617 0.8693 0.8768 0.8844
955.000000 0.8920 0.8942 0.8948 0.8949 0.8933
950.000000 0.8987 0.8499 0.8282 0.8064 0.7847
945.000000 0.7630 0.7269 0.7320 0.7333 0.7349
940.000000 0.7483 0.7636 0.7787 0.7938 0.8090
935.000000 0.8241 0.8390 0.8542 0.9044 0.8846
930.000000 0.8993 0.8913 0.8734 0.8555 0.8375
925.000000 0.8196 0.8015 0.7845 0.7846 0.7850
920.000000 0.7856 0.8114 0.8904 0.9261 0.9330
915.000000 0.9381 0.9432 0.9482 0.9515 0.9542
910.000000 0.9550 0.9552 0.9564 0.9571 0.9568
905.000000 0.9575 0.9577 0.9577 0.9590 0.9578
900.000000 0.9586 0.9582 0.9591 0.9602 0.9610
895.000000 0.9606 0.9618 0.9609 0.9603 0.9597
890.000000 0.9590 0.9581 0.9579 0.9568 0.9563
885.000000 0.9553 0.9555 0.9553 0.9544 0.9546
880.000000 0.9546 0.9537 0.9529 0.9519 0.9511
875.000000 0.9497 0.9480 0.9463 0.9445 0.9428
870.000000 0.9410 0.9386 0.9360 0.9353 0.9328
865.000000 0.9305 0.9297 0.9281 0.9251 0.9224
860.000000 0.9206 0.9060 0.7735 0.7542 0.7539
855.000000 0.7727 0.7960 0.8175 0.8380 0.8565
850.000000 0.8741 0.8890 0.9039 0.9176 0.9187
845.000000 0.9207 0.9212 0.9231 0.9232 0.9231
840.000000 0.9246 0.9273 0.9290 0.9335 0.9362
835.000000 0.9382 0.9412 0.9431 0.9463 0.9494
830.000000 0.9517 0.9531 0.9532 0.9523 0.9516
825.000000 0.9508 0.9524 0.9511 0.9512 0.9488
820.000000 0.9463 0.9442 0.9372 0.9301 0.9221
815.000000 0.9092 0.8870 0.8648 0.8443 0.8216
810.000000 0.8226 0.8287 0.8415 0.8534 0.8670
805.000000 0.8811 0.8942 0.9019 0.9036 0.9038
800.000000 0.8753 0.7838 0.7420 0.7404 0.7401
795.000000 0.7398 0.7720 0.8102 0.8489 0.8889
790.000000 0.9097 0.9198 0.9299 0.9370 0.9413
785.000000 0.9457 0.9489 0.9499 0.9511 0.9534
780.000000 0.9547 0.9566 0.9568 0.9565 0.9573
775.000000 0.9581 0.9590 0.9589 0.9590 0.9597
770.000000 0.9605 0.9602 0.9599 0.9604 0.9604
765.000000 0.9589 0.9587 0.9589 0.9591 0.9591
760.000000 0.9590 0.9590 0.9590 0.9590 0.9590
755.000000 0.9590 0.9593 0.9606 0.9607 0.9608
750.000000 0.9608 0.9609 0.9610 0.9611 0.9612
745.000000 0.9612 0.9613 0.9614 0.9615 0.9616
740.000000 0.9616 0.9617 0.9618 0.9618 0.9615
735.000000 0.9614 0.9612 0.9611 0.9609 0.9609
730.000000 0.9623 0.9621 0.9620 0.9618 0.9621
725.000000 0.9631 0.9630 0.9633 0.9644 0.9648
720.000000 0.9649 0.9638 0.9626 0.9625 0.9618
715.000000 0.9608 0.9616 0.9618 0.9614 0.9611
710.000000 0.9608 0.9605 0.9602 0.9597 0.9594
705.000000 0.9592 0.9590 0.9602 0.9599 0.9600
700.000000 0.9610 0.9607 0.9604 0.9604 0.9606
695.000000 0.9614 0.9627 0.9629 0.9632 0.9634
690.000000 0.9636 0.9638 0.9650 0.9656 0.9656
685.000000 0.9640 0.9621 0.9609 0.9569 0.9526
680.000000 0.9500 0.9464 0.9476 0.9478 0.9513
675.000000 0.9529 0.9518 0.9519 0.9513 0.9514
670.000000 0.9552 0.9665 0.9216 0.8973 0.8770
665.000000 0.8716 0.8685 0.8667 0.8649 0.8630
660.000000 0.8067 0.7155 0.6227 0.5299 0.4361
655.000000 0.3411 0.2461 0.2005 0.2000 0.1999
650.000000 0.1994 0.2852 0.3872 0.4888 0.5892
645.000000 0.6602 0.6981 0.7352 0.7732 0.8105
640.000000 0.8472 0.8698 0.8778 0.8847 0.8904
635.000000 0.8958 0.8984 0.9017 0.9052 0.9090
630.000000 0.9115 0.9118 0.9119 0.9121 0.9109
625.000000 0.8412 0.7528 0.6635 0.5754 0.5311
620.000000 0.5307 0.5402 0.6160 0.6908 0.7649
615.000000 0.8399 0.8664 0.8795 0.9079 0.9348
610.000000 0.9451 0.9544 0.9593 0.9623 0.9654
605.000000 0.9694 0.9734 0.9774 0.9814 0.9847
600.000000 0.9862 0.9876 0.9885 0.9894 0.9902
595.000000 0.9910 0.9920 0.9929 0.9937 0.9945
590.000000 0.9954 0.9961 0.9969 0.9969 0.9972
585.000000 0.9981 0.9979 0.9976 0.9910 0.9922
580.000000 0.9886 0.9873 0.9871 0.9857 0.9852
575.000000 0.9851 0.9867 0.9871 0.9871 0.9873
570.000000 0.9873 0.9874 0.9874 0.9858 0.9862
565.000000 0.9877 0.9874 0.9861 0.9861 0.9862
560.000000 0.9863 0.9863 0.9864 0.9865 0.9867
555.000000 0.9858 0.9851 0.9852 0.9841 0.9848
550.000000 0.9854 0.9855 0.9855 0.9855 0.9857
545.000000 0.9858 0.9857 0.9859 0.9860 0.9860
540.000000 0.9860 0.9865 0.9880 0.9888 0.9904
535.000000 0.9901 0.9897 0.9911 0.9914 0.9916
530.000000 0.9919 0.9922 0.9925 0.9927 0.9941
525.000000 0.9950 0.9952 0.9955 0.9959 0.9959
520.000000 0.9958 0.9957 0.9953 0.9952 0.9949
515.000000 0.9943 0.9937 0.9930 0.9924 0.9918
510.000000 0.9912 0.9904 0.9902 0.9900 0.9897
505.000000 0.9895 0.9893 0.9889 0.9887 0.9885
500.000000 0.9882 0.9880 0.9878 0.9875 0.9873
495.000000 0.9871 0.9867 0.9857 0.9846 0.9837
490.000000 0.9826 0.9816 0.9805 0.9795 0.9784
485.000000 0.9774 0.9763 0.9753 0.9739 0.9721
480.000000 0.9703 0.9687 0.9669 0.9652 0.9634
475.000000 0.9613 0.9576 0.9540 0.9505 0.9469
470.000000 0.9390 0.9305 0.9223 0.9149 0.9074
465.000000 0.9007 0.8962 0.8929 0.8934 0.8941
460.000000 0.8947 0.8953 0.8957 0.8961 0.8962
455.000000 0.8965 0.8968 0.8970 0.8972 0.8975
450.000000 0.8976 0.8977 0.8976 0.8973 0.8971
445.000000 0.8969 0.8967 0.8964 0.8962 0.8958
440.000000 0.8954 0.8951 0.8947 0.8944 0.8940
435.000000 0.8935 0.8931 0.8930 0.8930 0.8929
430.000000 0.8928 0.8927 0.8926 0.8924 0.8923
425.000000 0.8921 0.8920 0.8919 0.8919
##END=
