##TITLE=2-PROPANONE, 1-CHLORO-
##JCAMP-DX=4.24
##DATA TYPE=INFRARED SPECTRUM
##CLASS=COBLENTZ
##ORIGIN=PERKIN ELMER CORP. (M. ZELLER)
##OWNER=COBLENTZ SOCIETY
Collection (C) 2018 copyright by the U.S. Secretary of Commerce
on behalf of the United States of America. All rights reserved.
##DATE=1977/07/08
##NAMES=ACETONE, CHLORO-
##CAS REGISTRY NO=78-95-5
##MOLFORM=C3 H5 Cl O
##BP=119 C
##SOURCE REFERENCE=COBLENTZ NO. 10512
##$NIST SOURCE=COBLENTZ
##$NIST IMAGE=cob-r10512
##SPECTROMETER/DATA SYSTEM=PERKIN-ELMER 180 (GRATING)
##INSTRUMENT PARAMETERS=
$$ ABSORPTION DUE TO AN UNKNOWN AT 2363 CM^-^1.
$$ SPECTRAL FEATURE AT 671 CM^-^1 IS DUE TO AN UNKNOWN OR AN ARTIFACT CAUSED BY A CHANGE IN GRATING.
##STATE=VAPOR (18 MICROLITER AT 180 C)
##PATH LENGTH=5 CM KBr CELL, CELL VOLUME: 80 CM^3
##RESOLUTION=2-3 CM^-^1
##DATA PROCESSING=DIGITIZED BY NIST FROM HARD COPY (FROM TWO SEGMENTS)
##XUNITS=1/CM
##YUNITS=TRANSMITTANCE
##XFACTOR=1.000000
##YFACTOR=1
##DELTAX=1.298705
##FIRSTX=409.091
##LASTX=3992.22
##FIRSTY=0.473
##MAXX=3992.22
##MINX=409.091
##MAXY=0.993
##MINY=0.0450024
##NPOINTS=2760
##XYDATA=(X++(Y..Y))
409.091000 0.4730 0.4850 0.5070 0.5270 0.5350
415.584526 0.5430 0.5520 0.5580 0.5620 0.5739
422.078052 0.5770 0.5870 0.5950 0.6050 0.6170
428.571577 0.6240 0.6300 0.6429 0.6559 0.6729
435.065103 0.6780 0.6820 0.6860 0.6940 0.6980
441.558629 0.7040 0.7140 0.7289 0.7340 0.7370
448.052155 0.7420 0.7450 0.7500 0.7610 0.7670
454.545680 0.7670 0.7720 0.7740 0.7740 0.7750
461.039206 0.7760 0.7780 0.7780 0.7780 0.7790
467.532732 0.7790 0.7780 0.7760 0.7740 0.7700
474.026258 0.7700 0.7700 0.7700 0.7700 0.7710
480.519783 0.7720 0.7750 0.7760 0.7760 0.7760
487.013309 0.7760 0.7760 0.7740 0.7740 0.7740
493.506835 0.7740 0.7740 0.7740 0.7750 0.7780
500.000361 0.7790 0.7830 0.7780 0.7680 0.7660
506.493886 0.7630 0.7630 0.7630 0.7620 0.7620
512.987412 0.7620 0.7630 0.7630 0.7630 0.7630
519.480938 0.7660 0.7720 0.7760 0.7760 0.7780
525.974464 0.7780 0.7720 0.7700 0.7700 0.7830
532.467989 0.7870 0.7890 0.7950 0.7980 0.8000
538.961515 0.8020 0.8020 0.8040 0.8050 0.8090
545.455041 0.8130 0.8140 0.8150 0.8190 0.8230
551.948567 0.8260 0.8270 0.8280 0.8280 0.8280
558.442093 0.8280 0.8280 0.8300 0.8310 0.8320
564.935618 0.8320 0.8320 0.8350 0.8420 0.8440
571.429144 0.8510 0.8530 0.8560 0.8590 0.8610
577.922670 0.8610 0.8620 0.8680 0.8750 0.8820
584.416196 0.8910 0.9020 0.9060 0.9130 0.9239
590.909721 0.9320 0.9390 0.9450 0.9490 0.9530
597.403247 0.9550 0.9590 0.9620 0.9660 0.9680
603.896773 0.9710 0.9730 0.9750 0.9760 0.9770
610.390299 0.9770 0.9790 0.9790 0.9790 0.9800
616.883824 0.9800 0.9810 0.9810 0.9810 0.9830
623.377350 0.9840 0.9850 0.9860 0.9860 0.9890
629.870876 0.9890 0.9900 0.9920 0.9920 0.9920
636.364402 0.9920 0.9930 0.9930 0.9930 0.9930
642.857927 0.9930 0.9890 0.9880 0.9860 0.9860
649.351453 0.9860 0.9850 0.9810 0.9770 0.9760
655.844979 0.9730 0.9720 0.9690 0.9680 0.9670
662.338505 0.9660 0.9640 0.9640 0.9630 0.9580
668.832030 0.9470 0.9200 0.9200 0.9450 0.9530
675.325556 0.9530 0.9540 0.9550 0.9560 0.9590
681.819082 0.9600 0.9600 0.9620 0.9620 0.9620
688.312608 0.9590 0.9580 0.9550 0.9540 0.9530
694.806134 0.9490 0.9450 0.9410 0.9340 0.9260
701.299659 0.9130 0.9030 0.8940 0.8851 0.8701
707.793185 0.8640 0.8380 0.8080 0.7880 0.7670
714.286711 0.7580 0.7480 0.7331 0.7081 0.6941
720.780237 0.6840 0.6810 0.6760 0.6730 0.6680
727.273762 0.6630 0.6560 0.6550 0.6550 0.6540
733.767288 0.6510 0.6430 0.6400 0.6400 0.6500
740.260814 0.6729 0.6889 0.7069 0.7229 0.7697
746.754340 0.7920 0.7970 0.8000 0.8100 0.8220
753.247865 0.8250 0.8280 0.8300 0.8340 0.8420
759.741391 0.8440 0.8450 0.8470 0.8510 0.8520
766.234917 0.8530 0.8560 0.8570 0.8590 0.8570
772.728443 0.8550 0.8530 0.8530 0.8530 0.8520
779.221968 0.8490 0.8470 0.8440 0.8420 0.8380
785.715494 0.8280 0.8260 0.8090 0.8000 0.7920
792.209020 0.7830 0.7750 0.7710 0.7660 0.7620
798.702546 0.7570 0.7540 0.7510 0.7510 0.7530
805.196071 0.7530 0.7540 0.7550 0.7550 0.7570
811.689597 0.7570 0.7590 0.7630 0.7670 0.7710
818.183123 0.7880 0.7980 0.8090 0.8140 0.8220
824.676649 0.8260 0.8350 0.8390 0.8510 0.8550
831.170175 0.8600 0.8650 0.8720 0.8750 0.8810
837.663700 0.8830 0.8910 0.8940 0.9030 0.9080
844.157226 0.9150 0.9210 0.9280 0.9340 0.9370
850.650752 0.9390 0.9430 0.9510 0.9530 0.9550
857.144278 0.9590 0.9600 0.9620 0.9640 0.9660
863.637803 0.9680 0.9710 0.9730 0.9730 0.9730
870.131329 0.9730 0.9730 0.9750 0.9770 0.9790
876.624855 0.9810 0.9810 0.9830 0.9840 0.9840
883.118381 0.9840 0.9850 0.9860 0.9860 0.9860
889.611906 0.9860 0.9860 0.9860 0.9850 0.9850
896.105432 0.9850 0.9840 0.9830 0.9830 0.9850
902.598958 0.9860 0.9860 0.9860 0.9840 0.9830
909.092484 0.9840 0.9850 0.9880 0.9880 0.9900
915.586009 0.9900 0.9900 0.9900 0.9900 0.9900
922.079535 0.9900 0.9900 0.9900 0.9900 0.9900
928.573061 0.9900 0.9900 0.9900 0.9890 0.9890
935.066587 0.9900 0.9900 0.9920 0.9920 0.9920
941.560112 0.9900 0.9900 0.9900 0.9890 0.9860
948.053638 0.9840 0.9840 0.9830 0.9810 0.9800
954.547164 0.9790 0.9770 0.9750 0.9730 0.9720
961.040690 0.9720 0.9690 0.9690 0.9690 0.9690
967.534216 0.9680 0.9660 0.9660 0.9630 0.9620
974.027741 0.9590 0.9580 0.9560 0.9550 0.9540
980.521267 0.9530 0.9510 0.9510 0.9510 0.9500
987.014793 0.9500 0.9490 0.9490 0.9470 0.9460
993.508319 0.9430 0.9420 0.9380 0.9370 0.9360
1000.001844 0.9320 0.9320 0.9280 0.9210 0.9130
1006.495370 0.9120 0.9120 0.9110 0.9080 0.9060
1012.988896 0.9040 0.9030 0.9030 0.9020 0.8990
1019.482422 0.8980 0.8960 0.8950 0.8950 0.8950
1025.975947 0.8980 0.9000 0.9020 0.9020 0.9030
1032.469473 0.9040 0.9060 0.9070 0.9080 0.9090
1038.962999 0.9130 0.9150 0.9170 0.9200 0.9220
1045.456525 0.9240 0.9240 0.9240 0.9240 0.9250
1051.950050 0.9280 0.9320 0.9320 0.9330 0.9340
1058.443576 0.9360 0.9370 0.9370 0.9380 0.9390
1064.937102 0.9410 0.9410 0.9420 0.9430 0.9450
1071.430628 0.9450 0.9470 0.9470 0.9490 0.9490
1077.924153 0.9490 0.9470 0.9470 0.9460 0.9460
1084.417679 0.9450 0.9450 0.9450 0.9450 0.9430
1090.911205 0.9430 0.9420 0.9380 0.9370 0.9360
1097.404731 0.9360 0.9360 0.9340 0.9330 0.9320
1103.898257 0.9290 0.9260 0.9240 0.9210 0.9200
1110.391782 0.9170 0.9160 0.9150 0.9110 0.9040
1116.885308 0.9030 0.9020 0.9000 0.8990 0.8910
1123.378834 0.8860 0.8820 0.8790 0.8730 0.8680
1129.872360 0.8640 0.8550 0.8480 0.8341 0.8310
1136.365885 0.8180 0.8080 0.7970 0.7890 0.7630
1142.859411 0.7490 0.7341 0.7280 0.7181 0.7071
1149.352937 0.6980 0.6900 0.6820 0.6760 0.6710
1155.846463 0.6670 0.6640 0.6630 0.6610 0.6600
1162.339988 0.6540 0.6390 0.6380 0.6380 0.6390
1168.833514 0.6400 0.6430 0.6510 0.6629 0.6759
1175.327040 0.6820 0.6870 0.6900 0.6900 0.6910
1181.820566 0.6860 0.6840 0.6730 0.6710 0.6591
1188.314091 0.6540 0.6430 0.6300 0.6140 0.5990
1194.807617 0.5820 0.5690 0.5541 0.5440 0.5331
1201.301143 0.5200 0.5020 0.4840 0.4530 0.4250
1207.794669 0.4031 0.3811 0.3591 0.3361 0.3121
1214.288194 0.2810 0.2680 0.2580 0.2580 0.2590
1220.781720 0.2610 0.2620 0.2620 0.2620 0.2630
1227.275246 0.2630 0.2630 0.2650 0.2720 0.2810
1233.768772 0.2950 0.3000 0.3090 0.3259 0.3429
1240.262298 0.3611 0.3990 0.4320 0.4640 0.5189
1246.755823 0.5439 0.5649 0.5859 0.6029 0.6179
1253.249349 0.6380 0.6540 0.6740 0.6810 0.6820
1259.742875 0.6860 0.6870 0.6930 0.6950 0.7020
1266.236401 0.7030 0.7080 0.7160 0.7240 0.7290
1272.729926 0.7510 0.7590 0.7680 0.7760 0.7830
1279.223452 0.7890 0.7970 0.8040 0.8120 0.8180
1285.716978 0.8220 0.8250 0.8310 0.8360 0.8390
1292.210504 0.8440 0.8520 0.8560 0.8610 0.8620
1298.704029 0.8650 0.8680 0.8690 0.8720 0.8720
1305.197555 0.8730 0.8740 0.8750 0.8770 0.8780
1311.691081 0.8820 0.8820 0.8830 0.8830 0.8830
1318.184607 0.8830 0.8830 0.8820 0.8780 0.8730
1324.678132 0.8680 0.8620 0.8560 0.8510 0.8430
1331.171658 0.8320 0.8220 0.8060 0.7920 0.7720
1337.665184 0.7590 0.7450 0.7271 0.6932 0.6721
1344.158710 0.6370 0.6140 0.5930 0.5620 0.5370
1350.652235 0.5061 0.4900 0.4751 0.4451 0.4132
1357.145761 0.4060 0.3910 0.3830 0.3810 0.3740
1363.639287 0.3720 0.3720 0.3700 0.3650 0.3600
1370.132813 0.3420 0.3350 0.3350 0.3390 0.3520
1376.626339 0.3680 0.3830 0.3999 0.4189 0.4419
1383.119864 0.4681 0.5220 0.5460 0.5660 0.5800
1389.613390 0.5950 0.6249 0.6419 0.6589 0.6650
1396.106916 0.6730 0.6810 0.6820 0.6810 0.6810
1402.600442 0.6740 0.6710 0.6670 0.6590 0.6570
1409.093967 0.6500 0.6420 0.6310 0.6240 0.6170
1415.587493 0.6130 0.6050 0.6000 0.5930 0.5930
1422.081019 0.5950 0.5970 0.5990 0.6030 0.6040
1428.574545 0.6070 0.6100 0.6120 0.6200 0.6290
1435.068070 0.6330 0.6350 0.6420 0.6480 0.6570
1441.561596 0.6800 0.6980 0.7080 0.7190 0.7319
1448.055122 0.7380 0.7480 0.7630 0.7720 0.7810
1454.548648 0.7840 0.7850 0.7850 0.7870 0.7880
1461.042173 0.7960 0.8080 0.8260 0.8280 0.8320
1467.535699 0.8360 0.8430 0.8480 0.8530 0.8550
1474.029225 0.8550 0.8570 0.8610 0.8660 0.8700
1480.522751 0.8770 0.8810 0.8860 0.8900 0.8910
1487.016276 0.8920 0.8940 0.8960 0.8960 0.9000
1493.509802 0.9030 0.9070 0.9070 0.9070 0.9080
1500.003328 0.9080 0.9110 0.9120 0.9120 0.9110
1506.496854 0.9110 0.9000 0.8940 0.8950 0.9020
1512.990380 0.9060 0.9080 0.9080 0.9090 0.9090
1519.483905 0.9090 0.9090 0.9090 0.9090 0.8990
1525.977431 0.9080 0.9120 0.9120 0.9130 0.9150
1532.470957 0.9160 0.9160 0.9150 0.9150 0.9130
1538.964483 0.9130 0.9120 0.9110 0.9020 0.9030
1545.458008 0.9090 0.9120 0.9120 0.9130 0.9160
1551.951534 0.9190 0.9190 0.9190 0.9170 0.9160
1558.445060 0.9150 0.9130 0.9120 0.9030 0.9030
1564.938586 0.9190 0.9300 0.9320 0.9320 0.9330
1571.432111 0.9330 0.9320 0.9330 0.9330 0.9340
1577.925637 0.9340 0.9340 0.9290 0.9290 0.9340
1584.419163 0.9420 0.9420 0.9430 0.9430 0.9430
1590.912689 0.9430 0.9450 0.9450 0.9450 0.9450
1597.406214 0.9450 0.9450 0.9450 0.9460 0.9460
1603.899740 0.9470 0.9470 0.9470 0.9470 0.9470
1610.393266 0.9470 0.9470 0.9470 0.9490 0.9490
1616.886792 0.9490 0.9470 0.9450 0.9450 0.9450
1623.380317 0.9430 0.9420 0.9420 0.9410 0.9390
1629.873843 0.9380 0.9380 0.9380 0.9380 0.9370
1636.367369 0.9370 0.9370 0.9340 0.9300 0.9280
1642.860895 0.9360 0.9390 0.9390 0.9370 0.9330
1649.354420 0.9320 0.9300 0.9290 0.9280 0.9280
1655.847946 0.9250 0.9210 0.9150 0.9200 0.9300
1662.341472 0.9320 0.9280 0.9220 0.9210 0.9160
1668.834998 0.9130 0.9120 0.9060 0.8990 0.8920
1675.328524 0.8850 0.8820 0.8750 0.8680 0.8590
1681.822049 0.8550 0.8440 0.8320 0.8190 0.8020
1688.315575 0.7880 0.7800 0.7710 0.7531 0.7460
1694.809101 0.7379 0.7180 0.6970 0.6770 0.6540
1701.302627 0.6300 0.6001 0.5731 0.5451 0.5201
1707.796152 0.5090 0.4959 0.4690 0.4410 0.4110
1714.289678 0.3770 0.3311 0.3051 0.2671 0.2551
1720.783204 0.2419 0.2209 0.1779 0.1420 0.1310
1727.276730 0.1160 0.0990 0.0880 0.0860 0.0711
1733.770255 0.0650 0.0600 0.0540 0.0520 0.0490
1740.263781 0.0480 0.0460 0.0450 0.0460 0.0480
1746.757307 0.0500 0.0520 0.0560 0.0600 0.0650
1753.250833 0.0820 0.0950 0.1010 0.1120 0.1249
1759.744358 0.1431 0.1631 0.1850 0.2070 0.2550
1766.237884 0.2780 0.3040 0.3190 0.3379 0.3569
1772.731410 0.3821 0.3981 0.4240 0.4370 0.4560
1779.224936 0.4790 0.5279 0.5559 0.5819 0.6079
1785.718461 0.6311 0.6541 0.6740 0.6930 0.7070
1792.211987 0.7250 0.7550 0.7779 0.7880 0.8019
1798.705513 0.8150 0.8210 0.8350 0.8470 0.8520
1805.199039 0.8610 0.8640 0.8889 0.8920 0.8990
1811.692565 0.9020 0.9120 0.9150 0.9200 0.9220
1818.186090 0.9240 0.9290 0.9320 0.9330 0.9370
1824.679616 0.9420 0.9450 0.9450 0.9460 0.9490
1831.173142 0.9500 0.9500 0.9510 0.9530 0.9530
1837.666668 0.9540 0.9580 0.9620 0.9620 0.9630
1844.160193 0.9630 0.9580 0.9580 0.9580 0.9590
1850.653719 0.9600 0.9630 0.9640 0.9660 0.9670
1857.147245 0.9670 0.9680 0.9680 0.9680 0.9680
1863.640771 0.9690 0.9690 0.9710 0.9710 0.9710
1870.134296 0.9670 0.9640 0.9640 0.9710 0.9710
1876.627822 0.9710 0.9710 0.9710 0.9710 0.9690
1883.121348 0.9690 0.9690 0.9710 0.9710 0.9720
1889.614874 0.9720 0.9720 0.9710 0.9710 0.9710
1896.108399 0.9710 0.9720 0.9710 0.9710 0.9710
1902.601925 0.9710 0.9710 0.9710 0.9690 0.9690
1909.095451 0.9690 0.9690 0.9680 0.9680 0.9680
1915.588977 0.9680 0.9680 0.9680 0.9680 0.9680
1922.082502 0.9670 0.9670 0.9670 0.9670 0.9670
1928.576028 0.9670 0.9670 0.9670 0.9670 0.9670
1935.069554 0.9670 0.9670 0.9670 0.9670 0.9670
1941.563080 0.9660 0.9640 0.9630 0.9630 0.9630
1948.056606 0.9660 0.9670 0.9670 0.9670 0.9670
1954.550131 0.9670 0.9670 0.9670 0.9660 0.9660
1961.043657 0.9680 0.9710 0.9710 0.9690 0.9690
1967.537183 0.9680 0.9680 0.9680 0.9680 0.9690
1974.030709 0.9680 0.9670 0.9670 0.9670 0.9640
1980.524234 0.9640 0.9670 0.9670 0.9680 0.9690
1987.017760 0.9690 0.9680 0.9680 0.9670 0.9670
1993.511286 0.9660 0.9670 0.9680 0.9680 0.9660
2000.004812 0.9660 0.9650 0.9640 0.9635 0.9630
2006.498337 0.9615 0.9600 0.9595 0.9590 0.9590
2012.991863 0.9590 0.9585 0.9580 0.9571 0.9561
2019.485389 0.9560 0.9560 0.9555 0.9550 0.9550
2025.978915 0.9550 0.9550 0.9550 0.9546 0.9541
2032.472440 0.9540 0.9540 0.9536 0.9531 0.9530
2038.965966 0.9530 0.9534 0.9539 0.9548 0.9558
2045.459492 0.9560 0.9560 0.9556 0.9551 0.9546
2051.953018 0.9541 0.9528 0.9513 0.9510 0.9510
2058.446543 0.9506 0.9501 0.9500 0.9500 0.9500
2064.940069 0.9500 0.9500 0.9500 0.9500 0.9500
2071.433595 0.9500 0.9500 0.9496 0.9491 0.9490
2077.927121 0.9490 0.9490 0.9490 0.9490 0.9490
2084.420647 0.9490 0.9490 0.9490 0.9490 0.9490
2090.914172 0.9490 0.9483 0.9473 0.9470 0.9470
2097.407698 0.9470 0.9470 0.9470 0.9470 0.9476
2103.901224 0.9487 0.9490 0.9490 0.9490 0.9490
2110.394750 0.9490 0.9490 0.9493 0.9498 0.9500
2116.888275 0.9500 0.9500 0.9500 0.9491 0.9476
2123.381801 0.9464 0.9454 0.9450 0.9450 0.9450
2129.875327 0.9450 0.9450 0.9450 0.9450 0.9450
2136.368853 0.9450 0.9450 0.9445 0.9435 0.9430
2142.862378 0.9430 0.9427 0.9422 0.9420 0.9420
2149.355904 0.9420 0.9420 0.9418 0.9413 0.9410
2155.849430 0.9410 0.9410 0.9410 0.9410 0.9410
2162.342956 0.9410 0.9410 0.9410 0.9410 0.9412
2168.836481 0.9417 0.9420 0.9420 0.9420 0.9420
2175.330007 0.9420 0.9420 0.9420 0.9420 0.9422
2181.823533 0.9427 0.9430 0.9430 0.9430 0.9430
2188.317059 0.9434 0.9444 0.9452 0.9457 0.9460
2194.810584 0.9460 0.9460 0.9460 0.9462 0.9467
2201.304110 0.9470 0.9470 0.9470 0.9470 0.9469
2207.797636 0.9463 0.9458 0.9454 0.9450 0.9450
2214.291162 0.9447 0.9437 0.9430 0.9430 0.9430
2220.784688 0.9430 0.9433 0.9442 0.9451 0.9456
2227.278213 0.9461 0.9466 0.9470 0.9470 0.9472
2233.771739 0.9482 0.9490 0.9490 0.9490 0.9490
2240.265265 0.9490 0.9490 0.9490 0.9490 0.9490
2246.758791 0.9490 0.9490 0.9490 0.9490 0.9490
2253.252316 0.9490 0.9490 0.9489 0.9479 0.9470
2259.745842 0.9470 0.9469 0.9464 0.9460 0.9460
2266.239368 0.9460 0.9460 0.9460 0.9455 0.9450
2272.732894 0.9450 0.9450 0.9450 0.9449 0.9439
2279.226419 0.9430 0.9430 0.9430 0.9425 0.9420
2285.719945 0.9415 0.9410 0.9400 0.9390 0.9390
2292.213471 0.9390 0.9385 0.9380 0.9375 0.9370
2298.706997 0.9370 0.9370 0.9355 0.9340 0.9330
2305.200522 0.9320 0.9301 0.9281 0.9266 0.9251
2311.694048 0.9231 0.9211 0.9210 0.9210 0.9201
2318.187574 0.9191 0.9181 0.9171 0.9165 0.9160
2324.681100 0.9160 0.9160 0.9155 0.9151 0.9150
2331.174625 0.9150 0.9150 0.9150 0.9150 0.9150
2337.668151 0.9154 0.9159 0.9160 0.9160 0.9177
2344.161677 0.9197 0.9204 0.9209 0.9189 0.9164
2350.655203 0.9131 0.9096 0.9086 0.9081 0.9072
2357.148729 0.9062 0.9036 0.9006 0.8996 0.8991
2363.642254 0.8994 0.8999 0.9016 0.9036 0.9067
2370.135780 0.9102 0.9129 0.9154 0.9175 0.9195
2376.629306 0.9215 0.9235 0.9255 0.9274 0.9301
2383.122832 0.9331 0.9358 0.9382 0.9397 0.9407
2389.616357 0.9410 0.9410 0.9410 0.9410 0.9413
2396.109883 0.9418 0.9420 0.9420 0.9417 0.9412
2402.603409 0.9410 0.9410 0.9410 0.9410 0.9413
2409.096935 0.9418 0.9417 0.9412 0.9410 0.9410
2415.590460 0.9410 0.9410 0.9410 0.9410 0.9410
2422.083986 0.9410 0.9404 0.9394 0.9387 0.9382
2428.577512 0.9380 0.9380 0.9377 0.9372 0.9373
2435.071038 0.9378 0.9383 0.9388 0.9395 0.9405
2441.564563 0.9410 0.9410 0.9402 0.9387 0.9380
2448.058089 0.9380 0.9375 0.9365 0.9360 0.9360
2454.551615 0.9367 0.9382 0.9395 0.9405 0.9410
2461.045141 0.9410 0.9401 0.9381 0.9368 0.9363
2467.538666 0.9362 0.9367 0.9370 0.9370 0.9370
2474.032192 0.9370 0.9370 0.9370 0.9372 0.9377
2480.525718 0.9380 0.9380 0.9372 0.9352 0.9344
2487.019244 0.9354 0.9362 0.9367 0.9370 0.9370
2493.512770 0.9372 0.9377 0.9378 0.9373 0.9363
2500.006295 0.9343 0.9330 0.9330 0.9330 0.9330
2506.499821 0.9330 0.9330 0.9330 0.9330 0.9330
2512.993347 0.9330 0.9330 0.9330 0.9330 0.9330
2519.486873 0.9335 0.9355 0.9370 0.9370 0.9369
2525.980398 0.9364 0.9358 0.9348 0.9339 0.9334
2532.473924 0.9330 0.9330 0.9329 0.9324 0.9321
2538.967450 0.9326 0.9331 0.9336 0.9342 0.9352
2545.460976 0.9358 0.9348 0.9339 0.9334 0.9330
2551.954501 0.9330 0.9329 0.9324 0.9320 0.9320
2558.448027 0.9319 0.9309 0.9300 0.9300 0.9300
2564.941553 0.9300 0.9300 0.9300 0.9300 0.9300
2571.435079 0.9300 0.9300 0.9300 0.9300 0.9300
2577.928604 0.9300 0.9300 0.9300 0.9300 0.9300
2584.422130 0.9300 0.9310 0.9320 0.9320 0.9320
2590.915656 0.9320 0.9320 0.9320 0.9320 0.9320
2597.409182 0.9320 0.9320 0.9320 0.9310 0.9300
2603.902707 0.9310 0.9320 0.9320 0.9320 0.9320
2610.396233 0.9320 0.9320 0.9320 0.9320 0.9320
2616.889759 0.9320 0.9320 0.9320 0.9320 0.9311
2623.383285 0.9301 0.9300 0.9300 0.9300 0.9300
2629.876811 0.9300 0.9300 0.9300 0.9300 0.9296
2636.370336 0.9291 0.9290 0.9290 0.9290 0.9290
2642.863862 0.9290 0.9290 0.9290 0.9290 0.9286
2649.357388 0.9281 0.9280 0.9280 0.9280 0.9280
2655.850914 0.9280 0.9280 0.9272 0.9262 0.9256
2662.344439 0.9251 0.9250 0.9250 0.9250 0.9250
2668.837965 0.9250 0.9250 0.9250 0.9250 0.9250
2675.331491 0.9250 0.9250 0.9250 0.9250 0.9250
2681.825017 0.9261 0.9276 0.9280 0.9280 0.9273
2688.318542 0.9263 0.9257 0.9252 0.9250 0.9250
2694.812068 0.9247 0.9242 0.9240 0.9240 0.9246
2701.305594 0.9256 0.9260 0.9260 0.9260 0.9260
2707.799120 0.9254 0.9244 0.9234 0.9224 0.9217
2714.292645 0.9212 0.9210 0.9210 0.9207 0.9202
2720.786171 0.9200 0.9200 0.9200 0.9200 0.9200
2727.279697 0.9200 0.9203 0.9208 0.9210 0.9210
2733.773223 0.9210 0.9210 0.9207 0.9202 0.9200
2740.266748 0.9200 0.9200 0.9200 0.9200 0.9200
2746.760274 0.9200 0.9200 0.9200 0.9200 0.9200
2753.253800 0.9200 0.9200 0.9200 0.9200 0.9200
2759.747326 0.9200 0.9200 0.9200 0.9200 0.9200
2766.240852 0.9200 0.9198 0.9193 0.9190 0.9190
2772.734377 0.9190 0.9190 0.9190 0.9190 0.9186
2779.227903 0.9176 0.9170 0.9170 0.9168 0.9163
2785.721429 0.9154 0.9139 0.9128 0.9123 0.9120
2792.214955 0.9120 0.9118 0.9113 0.9110 0.9110
2798.708480 0.9110 0.9110 0.9105 0.9090 0.9077
2805.202006 0.9067 0.9060 0.9060 0.9055 0.9040
2811.695532 0.9030 0.9030 0.9030 0.9030 0.9030
2818.189058 0.9030 0.9029 0.9024 0.9020 0.9020
2824.682583 0.9018 0.9008 0.9000 0.9000 0.9000
2831.176109 0.9000 0.8999 0.8994 0.8987 0.8972
2837.669635 0.8960 0.8960 0.8959 0.8954 0.8947
2844.163161 0.8932 0.8919 0.8914 0.8910 0.8910
2850.656686 0.8910 0.8910 0.8910 0.8910 0.8909
2857.150212 0.8904 0.8900 0.8900 0.8900 0.8900
2863.643738 0.8899 0.8894 0.8889 0.8879 0.8869
2870.137264 0.8865 0.8860 0.8855 0.8849 0.8839
2876.630789 0.8830 0.8830 0.8830 0.8825 0.8820
2883.124315 0.8815 0.8810 0.8800 0.8790 0.8780
2889.617841 0.8769 0.8755 0.8740 0.8730 0.8720
2896.111367 0.8705 0.8690 0.8670 0.8650 0.8630
2902.604893 0.8610 0.8571 0.8531 0.8501 0.8471
2909.098418 0.8437 0.8402 0.8362 0.8321 0.8301
2915.591944 0.8281 0.8237 0.8193 0.8125 0.8055
2922.085470 0.7985 0.7916 0.7832 0.7748 0.7668
2928.578996 0.7588 0.7544 0.7505 0.7465 0.7425
2935.072521 0.7372 0.7318 0.7275 0.7235 0.7143
2941.566047 0.7043 0.6978 0.6919 0.6906 0.6901
2948.059573 0.6900 0.6900 0.6904 0.6909 0.6918
2954.553099 0.6928 0.6954 0.6984 0.7002 0.7017
2961.046624 0.7043 0.7073 0.7111 0.7151 0.7172
2967.540150 0.7187 0.7221 0.7261 0.7358 0.7472
2974.033676 0.7545 0.7605 0.7653 0.7698 0.7721
2980.527202 0.7736 0.7761 0.7791 0.7804 0.7809
2987.020727 0.7810 0.7810 0.7817 0.7827 0.7830
2993.514253 0.7830 0.7830 0.7830 0.7830 0.7830
3000.007779 0.7823 0.7813 0.7790 0.7761 0.7740
3006.501305 0.7725 0.7726 0.7736 0.7746 0.7756
3012.994830 0.7769 0.7784 0.7793 0.7798 0.7803
3019.488356 0.7808 0.7828 0.7858 0.7876 0.7886
3025.981882 0.7899 0.7914 0.7943 0.7982 0.8014
3032.475408 0.8039 0.8077 0.8127 0.8166 0.8196
3038.968934 0.8239 0.8293 0.8341 0.8381 0.8408
3045.462459 0.8423 0.8440 0.8460 0.8475 0.8485
3051.955985 0.8490 0.8490 0.8495 0.8505 0.8512
3058.449511 0.8517 0.8522 0.8527 0.8537 0.8552
3064.943037 0.8567 0.8581 0.8590 0.8590 0.8590
3071.436562 0.8590 0.8590 0.8590 0.8592 0.8597
3077.930088 0.8604 0.8614 0.8624 0.8634 0.8644
3084.423614 0.8654 0.8660 0.8660 0.8664 0.8674
3090.917140 0.8682 0.8687 0.8690 0.8690 0.8692
3097.410665 0.8697 0.8705 0.8720 0.8732 0.8737
3103.904191 0.8742 0.8747 0.8755 0.8770 0.8781
3110.397717 0.8786 0.8790 0.8790 0.8793 0.8803
3116.891243 0.8810 0.8810 0.8811 0.8816 0.8821
3123.384768 0.8826 0.8830 0.8830 0.8830 0.8830
3129.878294 0.8832 0.8842 0.8851 0.8856 0.8860
3136.371820 0.8860 0.8860 0.8860 0.8861 0.8866
3142.865346 0.8870 0.8870 0.8872 0.8882 0.8890
3149.358871 0.8890 0.8890 0.8890 0.8890 0.8890
3155.852397 0.8891 0.8896 0.8900 0.8900 0.8900
3162.345923 0.8900 0.8900 0.8900 0.8900 0.8900
3168.839449 0.8900 0.8900 0.8900 0.8900 0.8900
3175.332975 0.8895 0.8890 0.8895 0.8900 0.8900
3181.826500 0.8900 0.8905 0.8910 0.8910 0.8910
3188.320026 0.8910 0.8910 0.8910 0.8910 0.8915
3194.813552 0.8920 0.8920 0.8920 0.8920 0.8920
3201.307078 0.8920 0.8920 0.8915 0.8910 0.8910
3207.800603 0.8910 0.8910 0.8910 0.8905 0.8900
3214.294129 0.8900 0.8900 0.8905 0.8910 0.8915
3220.787655 0.8920 0.8929 0.8939 0.8940 0.8940
3227.281181 0.8945 0.8950 0.8950 0.8950 0.8950
3233.774706 0.8950 0.8950 0.8950 0.8950 0.8950
3240.268232 0.8950 0.8950 0.8946 0.8941 0.8940
3246.761758 0.8940 0.8932 0.8922 0.8916 0.8911
3253.255284 0.8910 0.8910 0.8910 0.8910 0.8914
3259.748809 0.8919 0.8928 0.8938 0.8940 0.8940
3266.242335 0.8940 0.8940 0.8940 0.8940 0.8940
3272.735861 0.8940 0.8940 0.8940 0.8940 0.8940
3279.229387 0.8940 0.8940 0.8940 0.8940 0.8940
3285.722912 0.8940 0.8940 0.8940 0.8940 0.8940
3292.216438 0.8940 0.8940 0.8940 0.8940 0.8933
3298.709964 0.8923 0.8920 0.8920 0.8920 0.8920
3305.203490 0.8920 0.8920 0.8920 0.8920 0.8920
3311.697016 0.8920 0.8920 0.8920 0.8920 0.8920
3318.190541 0.8920 0.8920 0.8920 0.8920 0.8920
3324.684067 0.8920 0.8920 0.8920 0.8920 0.8920
3331.177593 0.8920 0.8920 0.8920 0.8920 0.8920
3337.671119 0.8920 0.8920 0.8920 0.8920 0.8920
3344.164644 0.8920 0.8920 0.8920 0.8920 0.8918
3350.658170 0.8913 0.8910 0.8910 0.8905 0.8895
3357.151696 0.8885 0.8875 0.8870 0.8870 0.8870
3363.645222 0.8870 0.8877 0.8892 0.8900 0.8900
3370.138747 0.8900 0.8900 0.8898 0.8893 0.8890
3376.632273 0.8890 0.8890 0.8890 0.8882 0.8862
3383.125799 0.8844 0.8829 0.8820 0.8820 0.8820
3389.619325 0.8820 0.8820 0.8820 0.8822 0.8827
3396.112850 0.8830 0.8830 0.8828 0.8823 0.8820
3402.606376 0.8820 0.8818 0.8814 0.8807 0.8797
3409.099902 0.8788 0.8783 0.8776 0.8761 0.8746
3415.593428 0.8731 0.8716 0.8701 0.8686 0.8671
3422.086953 0.8659 0.8654 0.8646 0.8631 0.8619
3428.580479 0.8614 0.8605 0.8580 0.8555 0.8530
3435.074005 0.8503 0.8473 0.8448 0.8438 0.8426
3441.567531 0.8406 0.8387 0.8372 0.8359 0.8354
3448.061057 0.8347 0.8333 0.8319 0.8314 0.8309
3454.554582 0.8304 0.8300 0.8300 0.8301 0.8306
3461.048108 0.8315 0.8355 0.8392 0.8407 0.8421
3467.541634 0.8431 0.8442 0.8456 0.8472 0.8492
3474.035160 0.8510 0.8515 0.8521 0.8536 0.8551
3480.528685 0.8571 0.8590 0.8600 0.8610 0.8615
3487.022211 0.8620 0.8630 0.8640 0.8645 0.8651
3493.515737 0.8670 0.8690 0.8705 0.8720 0.8720
3500.009263 0.8720 0.8725 0.8730 0.8730 0.8730
3506.502788 0.8735 0.8740 0.8745 0.8750 0.8750
3512.996314 0.8750 0.8760 0.8770 0.8770 0.8770
3519.489840 0.8775 0.8780 0.8780 0.8780 0.8785
3525.983366 0.8790 0.8790 0.8790 0.8790 0.8790
3532.476891 0.8799 0.8809 0.8810 0.8810 0.8810
3538.970417 0.8810 0.8814 0.8819 0.8820 0.8820
3545.463943 0.8820 0.8820 0.8820 0.8820 0.8820
3551.957469 0.8820 0.8820 0.8820 0.8816 0.8811
3558.450994 0.8794 0.8774 0.8758 0.8743 0.8736
3564.944520 0.8731 0.8734 0.8739 0.8752 0.8767
3571.438046 0.8774 0.8779 0.8791 0.8806 0.8810
3577.931572 0.8810 0.8803 0.8793 0.8783 0.8773
3584.425098 0.8763 0.8753 0.8757 0.8767 0.8770
3590.918623 0.8770 0.8777 0.8787 0.8790 0.8790
3597.412149 0.8790 0.8790 0.8783 0.8773 0.8763
3603.905675 0.8754 0.8750 0.8750 0.8750 0.8750
3610.399201 0.8756 0.8766 0.8773 0.8778 0.8780
3616.892726 0.8780 0.8771 0.8756 0.8750 0.8750
3623.386252 0.8747 0.8742 0.8740 0.8740 0.8743
3629.879778 0.8748 0.8756 0.8766 0.8770 0.8770
3636.373304 0.8770 0.8770 0.8773 0.8778 0.8780
3642.866829 0.8780 0.8777 0.8772 0.8770 0.8770
3649.360355 0.8765 0.8755 0.8750 0.8750 0.8750
3655.853881 0.8750 0.8750 0.8750 0.8748 0.8743
3662.347407 0.8738 0.8733 0.8728 0.8723 0.8716
3668.840932 0.8706 0.8700 0.8700 0.8704 0.8714
3675.334458 0.8720 0.8720 0.8722 0.8727 0.8732
3681.827984 0.8737 0.8740 0.8740 0.8740 0.8740
3688.321510 0.8740 0.8740 0.8740 0.8740 0.8740
3694.815035 0.8740 0.8740 0.8740 0.8738 0.8733
3701.308561 0.8728 0.8723 0.8720 0.8720 0.8717
3707.802087 0.8707 0.8700 0.8700 0.8699 0.8694
3714.295613 0.8690 0.8690 0.8690 0.8690 0.8689
3720.789139 0.8684 0.8680 0.8680 0.8677 0.8668
3727.282664 0.8659 0.8654 0.8650 0.8650 0.8650
3733.776190 0.8650 0.8650 0.8650 0.8650 0.8650
3740.269716 0.8649 0.8644 0.8638 0.8628 0.8620
3746.763242 0.8620 0.8622 0.8632 0.8643 0.8663
3753.256767 0.8681 0.8686 0.8691 0.8696 0.8700
3759.750293 0.8700 0.8700 0.8700 0.8700 0.8700
3766.243819 0.8700 0.8700 0.8700 0.8700 0.8700
3772.737345 0.8700 0.8699 0.8689 0.8680 0.8680
3779.230870 0.8680 0.8685 0.8690 0.8690 0.8690
3785.724396 0.8690 0.8690 0.8685 0.8680 0.8680
3792.217922 0.8680 0.8680 0.8680 0.8680 0.8680
3798.711448 0.8680 0.8680 0.8680 0.8680 0.8680
3805.204973 0.8680 0.8670 0.8660 0.8655 0.8650
3811.698499 0.8650 0.8650 0.8645 0.8640 0.8640
3818.192025 0.8640 0.8658 0.8678 0.8680 0.8680
3824.685551 0.8680 0.8680 0.8680 0.8680 0.8671
3831.179076 0.8661 0.8660 0.8660 0.8656 0.8651
3837.672602 0.8650 0.8650 0.8646 0.8641 0.8640
3844.166128 0.8640 0.8632 0.8622 0.8620 0.8620
3850.659654 0.8620 0.8620 0.8620 0.8620 0.8616
3857.153180 0.8611 0.8610 0.8610 0.8610 0.8610
3863.646705 0.8610 0.8610 0.8610 0.8610 0.8610
3870.140231 0.8610 0.8614 0.8619 0.8620 0.8620
3876.633757 0.8620 0.8620 0.8620 0.8620 0.8620
3883.127283 0.8620 0.8613 0.8603 0.8600 0.8600
3889.620808 0.8600 0.8600 0.8600 0.8600 0.8600
3896.114334 0.8600 0.8607 0.8617 0.8620 0.8620
3902.607860 0.8620 0.8620 0.8617 0.8612 0.8607
3909.101386 0.8602 0.8600 0.8600 0.8597 0.8592
3915.594911 0.8590 0.8590 0.8590 0.8590 0.8590
3922.088437 0.8590 0.8590 0.8590 0.8590 0.8590
3928.581963 0.8593 0.8598 0.8600 0.8600 0.8592
3935.075489 0.8577 0.8567 0.8562 0.8560 0.8560
3941.569014 0.8563 0.8568 0.8570 0.8570 0.8575
3948.062540 0.8585 0.8590 0.8590 0.8590 0.8590
3954.556066 0.8585 0.8575 0.8570 0.8570 0.8575
3961.049592 0.8585 0.8590 0.8590 0.8585 0.8576
3967.543117 0.8570 0.8570 0.8570 0.8570 0.8570
3974.036643 0.8570 0.8570 0.8570 0.8570 0.8570
3980.530169 0.8568 0.8563 0.8560 0.8560 0.8562
3987.023695 0.8567 0.8568 0.8563 0.8560 0.8560
##END=
