##TITLE=1-BUTEN-3-ONE
##JCAMP-DX=4.24
##DATA TYPE=INFRARED SPECTRUM
##CLASS=COBLENTZ III
##ORIGIN=DOW CHEMICAL COMPANY
##OWNER=COBLENTZ SOCIETY
Collection (C) 2018 copyright by the U.S. Secretary of Commerce
on behalf of the United States of America. All rights reserved.
##DATE=1962/09/25
##NAMES=3-buten-2-one
METHYL VINYL KETONE
##CAS REGISTRY NO=78-94-4
##MOLFORM=C4 H6 O
##SOURCE REFERENCE=COBLENTZ NO. 10189
##$NIST SOURCE=COBLENTZ
##$NIST IMAGE=cob10189
##SPECTROMETER/DATA SYSTEM=DOW KBr FOREPRISM-GRATING
##INSTRUMENT PARAMETERS=BLAZED AT 3.5, 12.0, 20.0 MICRON, CHANGED AT 5.0, 7.5, 14.9 MICRON
##STATE=SOLUTION (10% IN CCl4 FOR 3800-1340, 10% IN CS2 FOR 1340-400 CM^-^1)
##PATH LENGTH=0.011, 0.011 CM
$$SPECTRAL CONTAMINATION DUE TO CCl4 AROUND 1550, AND CS2 AROUND 855 CM^-^1
$$ SEE SPECTRUM NO. 8782 FOR "VAPOR" STATE
$$ SEE SPECTRUM NO. 2377 FOR "LIQUID (NEAT)" STATE
##SAMPLING PROCEDURE=TRANSMISSION
##RESOLUTION=4
##DATA PROCESSING=DIGITIZED BY NIST FROM HARD COPY (FROM TWO SEGMENTS)
##XUNITS=1/CM
##YUNITS=TRANSMITTANCE
##XFACTOR=1.000000
##YFACTOR=1
##DELTAX=0.853242
##FIRSTX=378.84
##LASTX=3796.93
##FIRSTY=0.713
##MAXX=3796.93
##MINX=378.84
##MAXY=1.061
##MINY=0.014
##NPOINTS=4007
##XYDATA=(X++(Y..Y))
378.840000 0.7130 0.7130 0.7120 0.7110 0.7110
383.106211 0.7110 0.7090 0.7090 0.7110 0.7110
387.372421 0.7110 0.7120 0.7120 0.7130 0.7130
391.638632 0.7150 0.7160 0.7170 0.7190 0.7200
395.904842 0.7210 0.7240 0.7250 0.7280 0.7330
400.171053 0.7360 0.7390 0.7500 0.7580 0.7670
404.437263 0.7780 0.7870 0.7950 0.8040 0.8120
408.703474 0.8200 0.8280 0.8360 0.8440 0.8510
412.969684 0.8580 0.8640 0.8710 0.8770 0.8830
417.235895 0.8890 0.8930 0.8980 0.9020 0.9060
421.502105 0.9090 0.9100 0.9110 0.9150 0.9170
425.768316 0.9180 0.9220 0.9230 0.9270 0.9300
430.034526 0.9310 0.9330 0.9340 0.9350 0.9370
434.300737 0.9390 0.9420 0.9430 0.9460 0.9470
438.566947 0.9470 0.9500 0.9510 0.9530 0.9540
442.833158 0.9550 0.9570 0.9570 0.9580 0.9590
447.099368 0.9590 0.9610 0.9620 0.9630 0.9650
451.365579 0.9650 0.9660 0.9660 0.9670 0.9670
455.631789 0.9670 0.9690 0.9690 0.9690 0.9690
459.898000 0.9670 0.9670 0.9660 0.9660 0.9660
464.164211 0.9650 0.9630 0.9620 0.9590 0.9580
468.430421 0.9550 0.9530 0.9490 0.9430 0.9410
472.696632 0.9340 0.9310 0.9260 0.9180 0.9090
476.962842 0.8980 0.8850 0.8680 0.8471 0.8221
481.229053 0.7900 0.7680 0.7290 0.6970 0.6401
485.495263 0.5981 0.5820 0.5820 0.5890 0.6119
489.761474 0.6290 0.6600 0.6890 0.7170 0.7450
494.027684 0.7709 0.7939 0.8119 0.8299 0.8420
498.293895 0.8560 0.8740 0.8860 0.8870 0.8940
502.560105 0.8980 0.9020 0.9050 0.9060 0.9090
506.826316 0.9100 0.9110 0.9110 0.9110 0.9110
511.092526 0.9100 0.9090 0.9090 0.9070 0.9060
515.358737 0.9050 0.9030 0.9010 0.9010 0.8990
519.624947 0.8990 0.8980 0.8980 0.8970 0.8940
523.891158 0.8910 0.8900 0.8890 0.8890 0.8900
528.157368 0.8910 0.8940 0.9030 0.9130 0.9150
532.423579 0.9220 0.9290 0.9330 0.9350 0.9410
536.689789 0.9430 0.9450 0.9500 0.9530 0.9550
540.956000 0.9580 0.9610 0.9630 0.9650 0.9660
545.222211 0.9670 0.9690 0.9690 0.9700 0.9710
549.488421 0.9730 0.9730 0.9740 0.9750 0.9750
553.754632 0.9750 0.9770 0.9770 0.9780 0.9780
558.020842 0.9780 0.9790 0.9790 0.9780 0.9780
562.287053 0.9780 0.9780 0.9780 0.9790 0.9790
566.553263 0.9790 0.9810 0.9810 0.9810 0.9820
570.819474 0.9820 0.9820 0.9820 0.9820 0.9820
575.085684 0.9810 0.9790 0.9790 0.9780 0.9780
579.351895 0.9770 0.9770 0.9750 0.9710 0.9700
583.618105 0.9690 0.9700 0.9750 0.9750 0.9740
587.884316 0.9670 0.9501 0.9331 0.9290 0.9190
592.150526 0.9100 0.8940 0.8780 0.8670 0.8510
596.416737 0.8440 0.8300 0.8270 0.8270 0.8300
600.682947 0.8420 0.8470 0.8540 0.8680 0.8860
604.949158 0.9020 0.9150 0.9329 0.9380 0.9470
609.215368 0.9550 0.9650 0.9710 0.9770 0.9780
613.481579 0.9820 0.9850 0.9870 0.9900 0.9910
617.747789 0.9910 0.9970 0.9980 1.0010 1.0020
622.014000 1.0020 1.0040 1.0040 1.0040 1.0040
626.280211 1.0040 1.0020 1.0010 1.0010 1.0000
630.546421 0.9970 0.9940 0.9940 0.9930 0.9910
634.812632 0.9890 0.9860 0.9830 0.9790 0.9770
639.078842 0.9730 0.9670 0.9630 0.9570 0.9540
643.345053 0.9470 0.9410 0.9370 0.9340 0.9290
647.611263 0.9230 0.9170 0.8951 0.8791 0.8681
651.877474 0.8630 0.8600 0.8590 0.8590 0.8590
656.143684 0.8580 0.8540 0.8500 0.8440 0.8390
660.409895 0.8300 0.8270 0.8200 0.8160 0.8150
664.676105 0.8140 0.8150 0.8180 0.8220 0.8260
668.942316 0.8300 0.8310 0.8320 0.8320 0.8310
673.208526 0.8310 0.8300 0.8280 0.8260 0.8240
677.474737 0.8240 0.8230 0.8200 0.8180 0.8160
681.740947 0.8160 0.8180 0.8200 0.8230 0.8260
686.007158 0.8300 0.8350 0.8430 0.8510 0.8620
690.273368 0.8680 0.8780 0.8890 0.8930 0.8990
694.539579 0.9050 0.9130 0.9190 0.9230 0.9300
698.805789 0.9370 0.9420 0.9470 0.9500 0.9540
703.072000 0.9570 0.9610 0.9630 0.9660 0.9670
707.338211 0.9700 0.9740 0.9750 0.9780 0.9790
711.604421 0.9810 0.9830 0.9850 0.9870 0.9890
715.870632 0.9910 0.9930 0.9940 0.9970 0.9970
720.136842 0.9980 0.9980 1.0000 1.0010 1.0020
724.403053 1.0020 1.0040 1.0040 1.0050 1.0050
728.669263 1.0060 1.0080 1.0080 1.0080 1.0080
732.935474 1.0080 1.0080 1.0060 1.0060 1.0060
737.201684 1.0050 1.0050 1.0040 1.0010 1.0010
741.467895 1.0010 1.0000 0.9980 0.9970 0.9930
745.734105 0.9890 0.9850 0.9820 0.9790 0.9740
750.000316 0.9650 0.9540 0.9530 0.9410 0.9350
754.266526 0.9310 0.9180 0.9030 0.8950 0.8930
758.532737 0.8950 0.9030 0.9150 0.9299 0.9340
762.798947 0.9530 0.9580 0.9650 0.9690 0.9700
767.065158 0.9710 0.9710 0.9670 0.9580 0.9500
771.331368 0.9410 0.9330 0.9260 0.9260 0.9300
775.597579 0.9380 0.9460 0.9540 0.9749 0.9860
779.863789 0.9940 1.0010 1.0010 1.0050 1.0050
784.130000 1.0060 1.0080 1.0080 1.0090 1.0090
788.396211 1.0100 1.0120 1.0120 1.0130 1.0130
792.662421 1.0130 1.0140 1.0140 1.0140 1.0140
796.928632 1.0140 1.0140 1.0140 1.0140 1.0140
801.194842 1.0160 1.0160 1.0140 1.0160 1.0160
805.461053 1.0140 1.0130 1.0130 1.0120 1.0120
809.727263 1.0120 1.0130 1.0130 1.0130 1.0130
813.993474 1.0120 1.0120 1.0130 1.0140 1.0140
818.259684 1.0140 1.0140 1.0140 1.0140 1.0140
822.525895 1.0140 1.0140 1.0130 1.0130 1.0130
826.792105 1.0130 1.0130 1.0120 1.0100 1.0080
831.058316 1.0060 1.0050 1.0010 1.0010 1.0000
835.324526 0.9970 0.9930 0.9890 0.9890 0.9850
839.590737 0.9780 0.9710 0.9630 0.9590 0.9540
843.856947 0.9410 0.9350 0.9310 0.9210 0.9140
848.123158 0.9030 0.8910 0.8790 0.8710 0.8680
852.389368 0.8620 0.8580 0.8560 0.8550 0.8550
856.655579 0.8550 0.8560 0.8580 0.8620 0.8660
860.921789 0.8670 0.8680 0.8720 0.8770 0.8790
865.188000 0.8830 0.8890 0.8910 0.8930 0.8980
869.454211 0.9020 0.9090 0.9100 0.9130 0.9140
873.720421 0.9180 0.9210 0.9230 0.9270 0.9310
877.986632 0.9340 0.9350 0.9370 0.9410 0.9430
882.252842 0.9460 0.9530 0.9540 0.9570 0.9610
886.519053 0.9630 0.9670 0.9690 0.9740 0.9770
890.785263 0.9780 0.9780 0.9790 0.9810 0.9820
895.051474 0.9830 0.9830 0.9850 0.9850 0.9860
899.317684 0.9860 0.9860 0.9850 0.9850 0.9850
903.583895 0.9830 0.9830 0.9820 0.9810 0.9790
907.850105 0.9790 0.9780 0.9770 0.9740 0.9730
912.116316 0.9700 0.9660 0.9630 0.9620 0.9590
916.382526 0.9550 0.9530 0.9500 0.9460 0.9390
920.648737 0.9330 0.9290 0.9220 0.9140 0.9060
924.914947 0.8930 0.8860 0.8710 0.8600 0.8560
929.181158 0.8301 0.7752 0.7401 0.7191 0.7051
933.447368 0.6890 0.6370 0.6130 0.5661 0.5241
937.713579 0.4771 0.4221 0.3522 0.3271 0.3041
941.979789 0.2870 0.2720 0.2600 0.2470 0.2330
946.246000 0.2190 0.2001 0.1761 0.1292 0.1101
950.512211 0.0900 0.0640 0.0460 0.0400 0.0380
954.778421 0.0400 0.0520 0.0729 0.0999 0.1129
959.044632 0.1370 0.1590 0.1690 0.1790 0.1800
963.310842 0.2010 0.2210 0.2429 0.2629 0.2799
967.577053 0.3070 0.3350 0.3830 0.4169 0.4310
971.843263 0.4410 0.4490 0.4500 0.4470 0.4271
976.109474 0.4150 0.3720 0.3540 0.3080 0.2441
980.375684 0.2001 0.1970 0.1990 0.2050 0.2189
984.641895 0.2330 0.2390 0.2400 0.2370 0.2290
988.908105 0.2071 0.1711 0.1640 0.1640 0.1720
993.174316 0.1930 0.2270 0.2590 0.2999 0.3629
997.440526 0.3680 0.4129 0.4778 0.5437 0.5918
1001.706737 0.6000 0.6080 0.6200 0.6360 0.6470
1005.972947 0.6550 0.6600 0.6600 0.6570 0.6490
1010.239158 0.6350 0.6310 0.6170 0.6080 0.5980
1014.505368 0.5860 0.5730 0.5491 0.5261 0.4902
1018.771579 0.4890 0.4900 0.5330 0.5560 0.5690
1023.037789 0.5930 0.6249 0.6559 0.6839 0.7119
1027.304000 0.7360 0.7580 0.7740 0.7920 0.7990
1031.570211 0.8080 0.8140 0.8220 0.8280 0.8320
1035.836421 0.8350 0.8360 0.8380 0.8380 0.8360
1040.102632 0.8350 0.8340 0.8340 0.8320 0.8310
1044.368842 0.8240 0.8220 0.8150 0.8110 0.8020
1048.635053 0.7870 0.7780 0.7680 0.7640 0.7590
1052.901263 0.7590 0.7640 0.7680 0.7740 0.7780
1057.167474 0.7790 0.7800 0.7780 0.7740 0.7710
1061.433684 0.7700 0.7700 0.7710 0.7720 0.7760
1065.699895 0.7790 0.7900 0.8000 0.8110 0.8259
1069.966105 0.8430 0.8590 0.8740 0.8810 0.8910
1074.232316 0.8950 0.9050 0.9110 0.9140 0.9150
1078.498526 0.9220 0.9260 0.9270 0.9290 0.9300
1082.764737 0.9300 0.9310 0.9330 0.9330 0.9340
1087.030947 0.9340 0.9340 0.9350 0.9350 0.9350
1091.297158 0.9380 0.9380 0.9390 0.9390 0.9390
1095.563368 0.9390 0.9390 0.9380 0.9380 0.9380
1099.829579 0.9380 0.9370 0.9370 0.9350 0.9340
1104.095789 0.9340 0.9330 0.9330 0.9340 0.9350
1108.362000 0.9350 0.9380 0.9390 0.9410 0.9420
1112.628211 0.9430 0.9450 0.9460 0.9470 0.9490
1116.894421 0.9500 0.9510 0.9530 0.9530 0.9540
1121.160632 0.9540 0.9540 0.9540 0.9540 0.9550
1125.426842 0.9550 0.9550 0.9550 0.9550 0.9550
1129.693053 0.9550 0.9540 0.9540 0.9540 0.9530
1133.959263 0.9510 0.9510 0.9500 0.9500 0.9490
1138.225474 0.9490 0.9470 0.9450 0.9430 0.9420
1142.491684 0.9410 0.9390 0.9380 0.9370 0.9350
1146.757895 0.9330 0.9310 0.9290 0.9250 0.9190
1151.024105 0.9180 0.9110 0.9020 0.8980 0.8910
1155.290316 0.8820 0.8720 0.8700 0.8600 0.8550
1159.556526 0.8440 0.8340 0.8270 0.8150 0.8120
1163.822737 0.8020 0.7920 0.7760 0.7600 0.7400
1168.088947 0.7151 0.6791 0.6312 0.5743 0.5143
1172.355158 0.4540 0.3980 0.3710 0.2681 0.2161
1176.621368 0.1641 0.1441 0.1131 0.1020 0.0901
1180.887579 0.0880 0.1320 0.1730 0.2160 0.2589
1185.153789 0.3019 0.3599 0.3869 0.4348 0.5087
1189.420000 0.5620 0.6060 0.6649 0.6750 0.7109
1193.686211 0.7309 0.7430 0.7500 0.7590 0.7739
1197.952421 0.7780 0.7910 0.8040 0.8140 0.8230
1202.218632 0.8280 0.8340 0.8360 0.8480 0.8510
1206.484842 0.8540 0.8590 0.8620 0.8630 0.8630
1210.751053 0.8600 0.8550 0.8500 0.8420 0.8350
1215.017263 0.8310 0.8190 0.8100 0.7960 0.7910
1219.283474 0.7790 0.7780 0.7780 0.7780 0.7780
1223.549684 0.7780 0.7760 0.7750 0.7680 0.7660
1227.815895 0.7660 0.7620 0.7500 0.7371 0.7161
1232.082105 0.6910 0.6680 0.6590 0.6360 0.6120
1236.348316 0.5502 0.5121 0.4791 0.3854 0.3243
1240.614526 0.2580 0.2230 0.1910 0.1530 0.1121
1244.880737 0.0980 0.0930 0.0860 0.0760 0.0541
1249.146947 0.0520 0.0520 0.0530 0.0600 0.0660
1253.413158 0.0810 0.1119 0.1279 0.2007 0.2547
1257.679368 0.2880 0.3000 0.3540 0.4089 0.4509
1261.945579 0.5298 0.5559 0.5779 0.6099 0.6309
1266.211789 0.6450 0.6570 0.6610 0.6690 0.6840
1270.478000 0.6930 0.7040 0.7080 0.7110 0.7120
1274.744211 0.7110 0.7080 0.7010 0.6970 0.6930
1279.010421 0.6910 0.6731 0.6600 0.6570 0.6560
1283.276632 0.6570 0.6630 0.6670 0.6770 0.6910
1287.542842 0.6930 0.7040 0.7090 0.7170 0.7190
1291.809053 0.7200 0.7190 0.7160 0.7150 0.7160
1296.075263 0.7240 0.7370 0.7440 0.7599 0.7839
1300.341474 0.8040 0.8160 0.8280 0.8320 0.8380
1304.607684 0.8420 0.8510 0.8580 0.8600 0.8630
1308.873895 0.8670 0.8700 0.8720 0.8740 0.8750
1313.140105 0.8770 0.8780 0.8780 0.8780 0.8780
1317.406316 0.8770 0.8770 0.8750 0.8720 0.8700
1321.672526 0.8680 0.8660 0.8630 0.8590 0.8550
1325.938737 0.8500 0.8420 0.8380 0.8350 0.8310
1330.204947 0.8240 0.8140 0.8110 0.8030 0.7940
1334.471158 0.7820 0.7700 0.7600 0.7500 0.7400
1338.737368 0.7280 0.7250 0.7160 0.6931 0.6791
1343.003579 0.6730 0.6640 0.6400 0.6010 0.5651
1347.269789 0.5321 0.5001 0.4671 0.3833 0.3203
1351.536000 0.2760 0.2440 0.2200 0.1990 0.1760
1355.802211 0.1521 0.1281 0.1240 0.1160 0.1090
1360.068421 0.1020 0.0940 0.0660 0.0380 0.0370
1364.334632 0.0380 0.0440 0.0520 0.0570 0.0699
1368.600842 0.1360 0.1770 0.2130 0.2449 0.2560
1372.867053 0.2909 0.3179 0.3349 0.3539 0.3749
1377.133263 0.3910 0.4020 0.4130 0.4350 0.4510
1381.399474 0.4580 0.4610 0.4620 0.4610 0.4590
1385.665684 0.4570 0.4550 0.4540 0.4420 0.4101
1389.931895 0.3861 0.3681 0.3521 0.3381 0.3181
1394.198105 0.2620 0.2240 0.1990 0.1760 0.1491
1398.464316 0.1091 0.0921 0.0731 0.0501 0.0400
1402.730526 0.0380 0.0410 0.0460 0.0520 0.0610
1406.996737 0.0690 0.0800 0.0880 0.1089 0.1329
1411.262947 0.1550 0.1650 0.1890 0.2080 0.2280
1415.529158 0.2440 0.2540 0.2640 0.2710 0.2750
1419.795368 0.2750 0.2760 0.2760 0.2780 0.2790
1424.061579 0.2800 0.2820 0.2830 0.2870 0.2920
1428.327789 0.2940 0.3030 0.3140 0.3230 0.3270
1432.594000 0.3350 0.3460 0.3540 0.3630 0.3779
1436.860211 0.3890 0.4020 0.4110 0.4380 0.4550
1441.126421 0.4730 0.4820 0.5089 0.5299 0.5489
1445.392632 0.5690 0.5860 0.6040 0.6170 0.6360
1449.658842 0.6520 0.6680 0.6850 0.6960 0.7050
1453.925053 0.7160 0.7290 0.7400 0.7450 0.7510
1458.191263 0.7560 0.7630 0.7720 0.7800 0.7909
1462.457474 0.7950 0.8020 0.8110 0.8140 0.8160
1466.723684 0.8230 0.8270 0.8300 0.8350 0.8390
1470.989895 0.8420 0.8480 0.8500 0.8500 0.8500
1475.256105 0.8500 0.8510 0.8520 0.8540 0.8560
1479.522316 0.8580 0.8600 0.8600 0.8620 0.8620
1483.788526 0.8620 0.8600 0.8600 0.8600 0.8590
1488.054737 0.8590 0.8540 0.8500 0.8440 0.8380
1492.320947 0.8350 0.8350 0.8340 0.8340 0.8340
1496.587158 0.8320 0.8310 0.8220 0.8190 0.8150
1500.853368 0.8120 0.8120 0.8110 0.8080 0.8060
1505.119579 0.8020 0.7950 0.7760 0.7640 0.7560
1509.385789 0.7520 0.7510 0.7480 0.7440 0.7410
1513.652000 0.7290 0.7280 0.7240 0.7190 0.7160
1517.918211 0.7080 0.7040 0.6960 0.6811 0.6770
1522.184421 0.6730 0.6720 0.6690 0.6680 0.6670
1526.450632 0.6650 0.6640 0.6630 0.6600 0.6590
1530.716842 0.6530 0.6450 0.6390 0.6310 0.6140
1534.983053 0.6020 0.5970 0.5900 0.5860 0.5770
1539.249263 0.5600 0.5340 0.5200 0.5080 0.5010
1543.515474 0.4910 0.4890 0.4790 0.4770 0.4730
1547.781684 0.4690 0.4670 0.4660 0.4650 0.4650
1552.047895 0.4650 0.4660 0.4690 0.4710 0.4740
1556.314105 0.4770 0.4790 0.4850 0.4870 0.4980
1560.580316 0.5060 0.5200 0.5290 0.5370 0.5479
1564.846526 0.5600 0.5700 0.5770 0.5860 0.5900
1569.112737 0.6000 0.6090 0.6140 0.6210 0.6270
1573.378947 0.6350 0.6440 0.6450 0.6450 0.6450
1577.645158 0.6470 0.6480 0.6530 0.6550 0.6560
1581.911368 0.6590 0.6590 0.6590 0.6590 0.6590
1586.177579 0.6600 0.6610 0.6630 0.6650 0.6650
1590.443789 0.6670 0.6690 0.6710 0.6710 0.6720
1594.710000 0.6720 0.6730 0.6760 0.6790 0.6800
1598.976211 0.6810 0.6840 0.6950 0.6990 0.7010
1603.242421 0.7030 0.7000 0.6920 0.6771 0.6720
1607.508632 0.6610 0.6210 0.5851 0.5161 0.4382
1611.774842 0.3991 0.3562 0.3142 0.2712 0.2282
1616.041053 0.1850 0.1430 0.1000 0.0980 0.1000
1620.307263 0.1309 0.1599 0.1889 0.2159 0.2518
1624.573474 0.3460 0.4010 0.4250 0.5059 0.5419
1628.839684 0.5540 0.6118 0.6309 0.6440 0.6520
1633.105895 0.6600 0.6640 0.6710 0.6750 0.6790
1637.372105 0.6840 0.6920 0.6950 0.6970 0.7010
1641.638316 0.7050 0.7050 0.7000 0.6920 0.6910
1645.904526 0.6830 0.6720 0.6600 0.6530 0.6510
1650.170737 0.6520 0.6550 0.6560 0.6570 0.6570
1654.436947 0.6570 0.6570 0.6550 0.6530 0.6510
1658.703158 0.6470 0.6350 0.6180 0.5801 0.5730
1662.969368 0.5610 0.5450 0.5201 0.5021 0.4821
1667.235579 0.4650 0.4540 0.4070 0.3620 0.3181
1671.501789 0.2781 0.2401 0.2051 0.1771 0.1551
1675.768000 0.1390 0.1090 0.0780 0.0480 0.0340
1680.034211 0.0320 0.0180 0.0160 0.0140 0.0140
1684.300421 0.0160 0.0240 0.0340 0.0340 0.0170
1688.566632 0.0160 0.0140 0.0140 0.0160 0.0170
1692.832842 0.0200 0.0290 0.0370 0.0440 0.0520
1697.099053 0.0809 0.0840 0.0850 0.0840 0.0800
1701.365263 0.0580 0.0490 0.0400 0.0370 0.0290
1705.631474 0.0280 0.0280 0.0290 0.0290 0.0300
1709.897684 0.0330 0.0420 0.1319 0.1589 0.1790
1714.163895 0.1969 0.2159 0.2548 0.2819 0.3029
1718.430105 0.3190 0.3350 0.3520 0.3909 0.4209
1722.696316 0.4390 0.4649 0.4819 0.4999 0.5179
1726.962526 0.5340 0.5460 0.5570 0.5660 0.5730
1731.228737 0.5800 0.5850 0.5920 0.5970 0.6040
1735.494947 0.6100 0.6200 0.6290 0.6370 0.6410
1739.761158 0.6609 0.6809 0.6969 0.7000 0.7090
1744.027368 0.7230 0.7270 0.7430 0.7580 0.7680
1748.293579 0.7840 0.7950 0.8100 0.8239 0.8399
1752.559789 0.8480 0.8590 0.8710 0.8780 0.8830
1756.826000 0.8930 0.9010 0.9090 0.9130 0.9170
1761.092211 0.9220 0.9270 0.9310 0.9340 0.9380
1765.358421 0.9420 0.9430 0.9450 0.9470 0.9490
1769.624632 0.9500 0.9510 0.9530 0.9540 0.9580
1773.890842 0.9610 0.9650 0.9690 0.9700 0.9710
1778.157053 0.9740 0.9750 0.9770 0.9780 0.9790
1782.423263 0.9810 0.9820 0.9820 0.9820 0.9830
1786.689474 0.9850 0.9860 0.9890 0.9890 0.9850
1790.955684 0.9830 0.9830 0.9870 0.9900 0.9900
1795.221895 0.9910 0.9910 0.9910 0.9910 0.9910
1799.488105 0.9930 0.9940 0.9950 0.9980 1.0000
1803.754316 1.0000 1.0000 1.0000 0.9980 0.9970
1808.020526 0.9970 0.9950 0.9950 0.9970 0.9980
1812.286737 0.9980 1.0010 1.0010 1.0020 1.0020
1816.552947 1.0040 1.0040 1.0050 1.0060 1.0060
1820.819158 1.0080 1.0080 1.0080 1.0090 1.0090
1825.085368 1.0090 1.0100 1.0100 1.0100 1.0100
1829.351579 1.0120 1.0120 1.0130 1.0140 1.0140
1833.617789 1.0160 1.0160 1.0170 1.0170 1.0180
1837.884000 1.0180 1.0180 1.0160 1.0160 1.0140
1842.150211 1.0130 1.0090 1.0090 1.0120 1.0130
1846.416421 1.0140 1.0140 1.0140 1.0140 1.0140
1850.682632 1.0140 1.0140 1.0140 1.0140 1.0160
1854.948842 1.0160 1.0160 1.0160 1.0170 1.0170
1859.215053 1.0170 1.0170 1.0170 1.0180 1.0180
1863.481263 1.0180 1.0200 1.0200 1.0200 1.0180
1867.747474 1.0180 1.0170 1.0170 1.0170 1.0170
1872.013684 1.0170 1.0170 1.0170 1.0160 1.0160
1876.279895 1.0140 1.0140 1.0140 1.0120 1.0100
1880.546105 1.0100 1.0100 1.0090 1.0080 1.0080
1884.812316 1.0060 1.0060 1.0040 1.0040 1.0020
1889.078526 1.0020 1.0010 1.0010 1.0000 1.0000
1893.344737 1.0000 0.9980 0.9970 0.9950 0.9940
1897.610947 0.9900 0.9890 0.9860 0.9830 0.9780
1901.877158 0.9750 0.9710 0.9670 0.9630 0.9570
1906.143368 0.9540 0.9490 0.9450 0.9420 0.9290
1910.409579 0.9250 0.9210 0.9180 0.9170 0.9170
1914.675789 0.9180 0.9190 0.9210 0.9210 0.9230
1918.942000 0.9250 0.9260 0.9310 0.9340 0.9350
1923.208211 0.9390 0.9410 0.9430 0.9450 0.9470
1927.474421 0.9500 0.9510 0.9530 0.9540 0.9550
1931.740632 0.9550 0.9540 0.9530 0.9530 0.9540
1936.006842 0.9540 0.9550 0.9570 0.9570 0.9590
1940.273053 0.9620 0.9630 0.9650 0.9650 0.9650
1944.539263 0.9650 0.9660 0.9660 0.9660 0.9660
1948.805474 0.9670 0.9670 0.9730 0.9750 0.9780
1953.071684 0.9790 0.9790 0.9790 0.9790 0.9820
1957.337895 0.9820 0.9850 0.9890 0.9900 0.9910
1961.604105 0.9950 0.9970 0.9970 0.9970 0.9970
1965.870316 0.9970 0.9970 0.9950 0.9950 0.9950
1970.136526 0.9950 0.9950 0.9940 0.9940 0.9930
1974.402737 0.9930 0.9910 0.9900 0.9900 0.9890
1978.668947 0.9870 0.9870 0.9860 0.9830 0.9820
1982.935158 0.9820 0.9810 0.9810 0.9790 0.9790
1987.201368 0.9780 0.9780 0.9780 0.9780 0.9770
1991.467579 0.9770 0.9770 0.9770 0.9750 0.9740
1995.733789 0.9740 0.9730 0.9710 0.9710 0.9710
2000.000000 0.9730 0.9885 1.0040 1.0090 1.0140
2004.266211 1.0175 1.0210 1.0235 1.0260 1.0300
2008.532421 1.0340 1.0355 1.0370 1.0385 1.0400
2012.798632 1.0400 1.0400 1.0405 1.0410 1.0415
2017.064842 1.0420 1.0430 1.0440 1.0445 1.0450
2021.331053 1.0455 1.0460 1.0470 1.0480 1.0490
2025.597263 1.0500 1.0510 1.0520 1.0525 1.0530
2029.863474 1.0535 1.0540 1.0550 1.0560 1.0565
2034.129684 1.0570 1.0570 1.0570 1.0570 1.0570
2038.395895 1.0555 1.0540 1.0530 1.0520 1.0510
2042.662105 1.0500 1.0500 1.0500 1.0500 1.0500
2046.928316 1.0500 1.0500 1.0500 1.0500 1.0510
2051.194526 1.0520 1.0520 1.0520 1.0520 1.0520
2055.460737 1.0525 1.0530 1.0535 1.0540 1.0540
2059.726947 1.0540 1.0540 1.0540 1.0550 1.0560
2063.993158 1.0560 1.0560 1.0560 1.0560 1.0560
2068.259368 1.0560 1.0565 1.0570 1.0570 1.0570
2072.525579 1.0570 1.0570 1.0570 1.0570 1.0575
2076.791789 1.0580 1.0590 1.0600 1.0605 1.0610
2081.058000 1.0610 1.0610 1.0610 1.0610 1.0610
2085.324211 1.0610 1.0610 1.0610 1.0605 1.0600
2089.590421 1.0600 1.0600 1.0600 1.0600 1.0600
2093.856632 1.0600 1.0600 1.0600 1.0600 1.0600
2098.122842 1.0591 1.0580 1.0575 1.0570 1.0565
2102.389053 1.0560 1.0560 1.0560 1.0560 1.0560
2106.655263 1.0550 1.0540 1.0535 1.0530 1.0525
2110.921474 1.0520 1.0506 1.0491 1.0490 1.0490
2115.187684 1.0485 1.0480 1.0461 1.0441 1.0421
2119.453895 1.0401 1.0386 1.0371 1.0365 1.0360
2123.720105 1.0360 1.0360 1.0351 1.0340 1.0340
2127.986316 1.0340 1.0340 1.0340 1.0340 1.0340
2132.252526 1.0349 1.0359 1.0360 1.0360 1.0370
2136.518737 1.0380 1.0380 1.0380 1.0390 1.0400
2140.784947 1.0410 1.0420 1.0420 1.0420 1.0429
2145.051158 1.0439 1.0440 1.0440 1.0440 1.0440
2149.317368 1.0440 1.0440 1.0440 1.0440 1.0426
2153.583579 1.0411 1.0410 1.0410 1.0410 1.0410
2157.849789 1.0410 1.0410 1.0405 1.0400 1.0400
2162.116000 1.0400 1.0400 1.0400 1.0391 1.0381
2166.382211 1.0375 1.0370 1.0356 1.0341 1.0335
2170.648421 1.0330 1.0330 1.0330 1.0325 1.0320
2174.914632 1.0320 1.0320 1.0311 1.0301 1.0300
2179.180842 1.0300 1.0300 1.0300 1.0309 1.0319
2183.447053 1.0320 1.0320 1.0325 1.0330 1.0335
2187.713263 1.0340 1.0340 1.0340 1.0335 1.0330
2191.979474 1.0330 1.0330 1.0330 1.0330 1.0330
2196.245684 1.0330 1.0335 1.0340 1.0349 1.0359
2200.511895 1.0360 1.0360 1.0365 1.0370 1.0375
2204.778105 1.0380 1.0380 1.0380 1.0389 1.0399
2209.044316 1.0405 1.0410 1.0410 1.0410 1.0415
2213.310526 1.0420 1.0420 1.0420 1.0420 1.0420
2217.576737 1.0429 1.0439 1.0440 1.0440 1.0445
2221.842947 1.0450 1.0450 1.0450 1.0455 1.0460
2226.109158 1.0460 1.0460 1.0460 1.0460 1.0460
2230.375368 1.0460 1.0460 1.0460 1.0460 1.0460
2234.641579 1.0456 1.0451 1.0450 1.0450 1.0445
2238.907789 1.0440 1.0440 1.0440 1.0440 1.0440
2243.174000 1.0440 1.0440 1.0431 1.0421 1.0420
2247.440211 1.0420 1.0416 1.0411 1.0406 1.0400
2251.706421 1.0391 1.0381 1.0380 1.0380 1.0380
2255.972632 1.0380 1.0380 1.0380 1.0375 1.0370
2260.238842 1.0370 1.0370 1.0366 1.0360 1.0360
2264.505053 1.0360 1.0351 1.0341 1.0340 1.0340
2268.771263 1.0336 1.0331 1.0330 1.0330 1.0326
2273.037474 1.0320 1.0320 1.0320 1.0320 1.0320
2277.303684 1.0311 1.0301 1.0291 1.0281 1.0280
2281.569895 1.0280 1.0271 1.0261 1.0256 1.0251
2285.836105 1.0250 1.0250 1.0250 1.0250 1.0246
2290.102316 1.0240 1.0240 1.0240 1.0231 1.0221
2294.368526 1.0220 1.0220 1.0216 1.0211 1.0206
2298.634737 1.0200 1.0187 1.0172 1.0166 1.0161
2302.900947 1.0147 1.0132 1.0126 1.0121 1.0120
2307.167158 1.0120 1.0111 1.0101 1.0095 1.0091
2311.433368 1.0090 1.0090 1.0090 1.0090 1.0090
2315.699579 1.0090 1.0094 1.0099 1.0100 1.0100
2319.965789 1.0109 1.0119 1.0120 1.0120 1.0120
2324.232000 1.0120 1.0120 1.0120 1.0120 1.0120
2328.498211 1.0111 1.0101 1.0096 1.0091 1.0077
2332.764421 1.0062 1.0060 1.0060 1.0056 1.0051
2337.030632 1.0033 1.0013 1.0006 1.0001 0.9987
2341.296842 0.9972 0.9957 0.9942 0.9927 0.9912
2345.563053 0.9888 0.9863 0.9847 0.9832 0.9843
2349.829263 0.9858 0.9930 1.0010 1.0037 1.0057
2354.095474 1.0069 1.0079 1.0084 1.0089 1.0103
2358.361684 1.0118 1.0120 1.0120 1.0107 1.0092
2362.627895 1.0086 1.0081 1.0080 1.0080 1.0071
2366.894105 1.0061 1.0060 1.0060 1.0069 1.0079
2371.160316 1.0080 1.0080 1.0084 1.0089 1.0094
2375.426526 1.0099 1.0109 1.0119 1.0120 1.0120
2379.692737 1.0129 1.0139 1.0149 1.0159 1.0164
2383.958947 1.0169 1.0174 1.0179 1.0189 1.0199
2388.225158 1.0204 1.0209 1.0223 1.0238 1.0249
2392.491368 1.0259 1.0269 1.0279 1.0280 1.0280
2396.757579 1.0280 1.0280 1.0284 1.0289 1.0290
2401.023789 1.0290 1.0294 1.0299 1.0300 1.0300
2405.290000 1.0308 1.0318 1.0328 1.0338 1.0348
2409.556211 1.0359 1.0360 1.0360 1.0360 1.0360
2413.822421 1.0351 1.0341 1.0340 1.0340 1.0340
2418.088632 1.0340 1.0340 1.0340 1.0340 1.0340
2422.354842 1.0340 1.0340 1.0340 1.0340 1.0340
2426.621053 1.0340 1.0340 1.0340 1.0348 1.0358
2430.887263 1.0364 1.0369 1.0370 1.0370 1.0370
2435.153474 1.0370 1.0370 1.0370 1.0370 1.0370
2439.419684 1.0357 1.0342 1.0340 1.0340 1.0340
2443.685895 1.0340 1.0340 1.0340 1.0340 1.0340
2447.952105 1.0340 1.0340 1.0340 1.0340 1.0340
2452.218316 1.0340 1.0340 1.0340 1.0340 1.0340
2456.484526 1.0340 1.0340 1.0340 1.0340 1.0340
2460.750737 1.0340 1.0340 1.0340 1.0340 1.0340
2465.016947 1.0340 1.0340 1.0348 1.0358 1.0360
2469.283158 1.0360 1.0352 1.0342 1.0340 1.0340
2473.549368 1.0340 1.0340 1.0340 1.0340 1.0340
2477.815579 1.0340 1.0336 1.0331 1.0330 1.0330
2482.081789 1.0330 1.0330 1.0330 1.0330 1.0330
2486.348000 1.0330 1.0334 1.0339 1.0340 1.0340
2490.614211 1.0340 1.0340 1.0340 1.0340 1.0340
2494.880421 1.0340 1.0340 1.0340 1.0336 1.0331
2499.146632 1.0330 1.0330 1.0330 1.0330 1.0330
2503.412842 1.0330 1.0330 1.0330 1.0334 1.0339
2507.679053 1.0340 1.0340 1.0340 1.0340 1.0340
2511.945263 1.0340 1.0336 1.0331 1.0330 1.0330
2516.211474 1.0330 1.0330 1.0330 1.0330 1.0326
2520.477684 1.0321 1.0312 1.0302 1.0296 1.0291
2524.743895 1.0278 1.0263 1.0260 1.0260 1.0256
2529.010105 1.0251 1.0246 1.0241 1.0240 1.0240
2533.276316 1.0244 1.0249 1.0262 1.0277 1.0284
2537.542526 1.0289 1.0290 1.0290 1.0290 1.0290
2541.808737 1.0286 1.0281 1.0280 1.0280 1.0272
2546.074947 1.0262 1.0260 1.0260 1.0260 1.0260
2550.341158 1.0268 1.0278 1.0280 1.0280 1.0284
2554.607368 1.0289 1.0290 1.0290 1.0294 1.0299
2558.873579 1.0300 1.0300 1.0292 1.0282 1.0280
2563.139789 1.0280 1.0280 1.0280 1.0280 1.0280
2567.406000 1.0272 1.0262 1.0260 1.0260 1.0260
2571.672211 1.0260 1.0268 1.0278 1.0280 1.0280
2575.938421 1.0284 1.0289 1.0290 1.0290 1.0290
2580.204632 1.0290 1.0290 1.0290 1.0290 1.0290
2584.470842 1.0290 1.0290 1.0286 1.0281 1.0280
2588.737053 1.0280 1.0272 1.0262 1.0260 1.0260
2593.003263 1.0260 1.0260 1.0260 1.0260 1.0260
2597.269474 1.0260 1.0256 1.0251 1.0246 1.0241
2601.535684 1.0232 1.0222 1.0220 1.0220 1.0216
2605.801895 1.0211 1.0210 1.0210 1.0210 1.0210
2610.068105 1.0214 1.0219 1.0220 1.0220 1.0228
2614.334316 1.0238 1.0240 1.0240 1.0240 1.0240
2618.600526 1.0244 1.0249 1.0246 1.0241 1.0240
2622.866737 1.0240 1.0240 1.0240 1.0240 1.0240
2627.132947 1.0244 1.0249 1.0250 1.0250 1.0246
2631.399158 1.0241 1.0240 1.0240 1.0240 1.0240
2635.665368 1.0240 1.0240 1.0240 1.0240 1.0232
2639.931579 1.0222 1.0220 1.0220 1.0220 1.0220
2644.197789 1.0220 1.0220 1.0216 1.0211 1.0206
2648.464000 1.0201 1.0188 1.0173 1.0170 1.0170
2652.730211 1.0166 1.0161 1.0160 1.0160 1.0160
2656.996421 1.0160 1.0160 1.0160 1.0152 1.0142
2661.262632 1.0140 1.0140 1.0140 1.0140 1.0140
2665.528842 1.0140 1.0140 1.0140 1.0136 1.0131
2669.795053 1.0126 1.0121 1.0120 1.0120 1.0120
2674.061263 1.0120 1.0120 1.0120 1.0120 1.0120
2678.327474 1.0124 1.0129 1.0130 1.0130 1.0134
2682.593684 1.0139 1.0140 1.0140 1.0136 1.0131
2686.859895 1.0130 1.0130 1.0130 1.0130 1.0130
2691.126105 1.0130 1.0134 1.0139 1.0140 1.0140
2695.392316 1.0140 1.0140 1.0151 1.0166 1.0170
2699.658526 1.0170 1.0170 1.0170 1.0166 1.0161
2703.924737 1.0160 1.0160 1.0152 1.0142 1.0140
2708.190947 1.0140 1.0148 1.0157 1.0164 1.0169
2712.457158 1.0170 1.0170 1.0170 1.0170 1.0170
2716.723368 1.0170 1.0170 1.0170 1.0166 1.0161
2720.989579 1.0160 1.0160 1.0153 1.0143 1.0140
2725.255789 1.0140 1.0140 1.0140 1.0140 1.0140
2729.522000 1.0136 1.0131 1.0126 1.0121 1.0120
2733.788211 1.0120 1.0120 1.0120 1.0120 1.0120
2738.054421 1.0120 1.0120 1.0124 1.0129 1.0134
2742.320632 1.0139 1.0140 1.0140 1.0140 1.0140
2746.586842 1.0147 1.0157 1.0160 1.0160 1.0160
2750.853053 1.0160 1.0160 1.0160 1.0153 1.0143
2755.119263 1.0140 1.0140 1.0136 1.0131 1.0126
2759.385474 1.0121 1.0113 1.0103 1.0100 1.0100
2763.651684 1.0096 1.0091 1.0090 1.0090 1.0090
2767.917895 1.0090 1.0086 1.0081 1.0080 1.0080
2772.184105 1.0080 1.0080 1.0073 1.0063 1.0060
2776.450316 1.0060 1.0067 1.0077 1.0080 1.0080
2780.716526 1.0080 1.0080 1.0073 1.0063 1.0060
2784.982737 1.0060 1.0056 1.0051 1.0050 1.0050
2789.248947 1.0046 1.0041 1.0040 1.0040 1.0040
2793.515158 1.0040 1.0040 1.0040 1.0040 1.0040
2797.781368 1.0040 1.0040 1.0040 1.0040 1.0040
2802.047579 1.0040 1.0040 1.0040 1.0044 1.0049
2806.313789 1.0050 1.0050 1.0050 1.0050 1.0050
2810.580000 1.0050 1.0050 1.0050 1.0046 1.0041
2814.846211 1.0040 1.0040 1.0033 1.0023 1.0016
2819.112421 1.0011 1.0006 1.0001 0.9993 0.9983
2823.378632 0.9962 0.9937 0.9923 0.9913 0.9906
2827.644842 0.9901 0.9896 0.9891 0.9883 0.9873
2831.911053 0.9863 0.9853 0.9843 0.9833 0.9823
2836.177263 0.9813 0.9810 0.9810 0.9810 0.9810
2840.443474 0.9803 0.9793 0.9786 0.9781 0.9776
2844.709684 0.9771 0.9770 0.9770 0.9770 0.9770
2848.975895 0.9763 0.9753 0.9743 0.9733 0.9723
2853.242105 0.9713 0.9706 0.9701 0.9696 0.9691
2857.508316 0.9690 0.9690 0.9683 0.9673 0.9666
2861.774526 0.9661 0.9660 0.9660 0.9660 0.9660
2866.040737 0.9660 0.9660 0.9660 0.9660 0.9657
2870.306947 0.9651 0.9650 0.9650 0.9650 0.9650
2874.573158 0.9643 0.9633 0.9630 0.9630 0.9627
2878.839368 0.9622 0.9610 0.9595 0.9587 0.9582
2883.105579 0.9577 0.9572 0.9563 0.9553 0.9547
2887.371789 0.9541 0.9536 0.9531 0.9530 0.9530
2891.638000 0.9523 0.9513 0.9503 0.9493 0.9483
2895.904211 0.9473 0.9470 0.9470 0.9467 0.9462
2900.170421 0.9457 0.9452 0.9436 0.9416 0.9396
2904.436632 0.9376 0.9363 0.9353 0.9347 0.9342
2908.702842 0.9316 0.9281 0.9239 0.9194 0.9163
2912.969053 0.9138 0.9089 0.9029 0.8990 0.8960
2917.235263 0.8933 0.8908 0.8863 0.8808 0.8763
2921.501474 0.8722 0.8672 0.8617 0.8597 0.8592
2925.767684 0.8587 0.8582 0.8580 0.8580 0.8583
2930.033895 0.8588 0.8604 0.8624 0.8654 0.8689
2934.300105 0.8703 0.8708 0.8723 0.8743 0.8760
2938.566316 0.8775 0.8783 0.8788 0.8797 0.8807
2942.832526 0.8810 0.8810 0.8803 0.8793 0.8766
2947.098737 0.8731 0.8700 0.8670 0.8640 0.8610
2951.364947 0.8580 0.8550 0.8517 0.8482 0.8440
2955.631158 0.8394 0.8366 0.8346 0.8313 0.8273
2959.897368 0.8226 0.8176 0.8147 0.8127 0.8093
2964.163579 0.8053 0.8023 0.7998 0.7987 0.7982
2968.429789 0.7973 0.7963 0.7957 0.7952 0.7950
2972.696000 0.7950 0.7950 0.7950 0.7950 0.7950
2976.962211 0.7940 0.7925 0.7913 0.7903 0.7890
2981.228421 0.7875 0.7860 0.7845 0.7840 0.7840
2985.494632 0.7847 0.7857 0.7863 0.7868 0.7873
2989.760842 0.7878 0.7887 0.7897 0.7907 0.7917
2994.027053 0.7920 0.7920 0.7920 0.7920 0.7917
2998.293263 0.7912 0.7841 0.7736 0.7625 0.7510
3002.559474 0.7411 0.7321 0.7248 0.7183 0.7134
3006.825684 0.7094 0.7070 0.7055 0.7050 0.7050
3011.091895 0.7113 0.7207 0.7253 0.7273 0.7290
3015.358105 0.7305 0.7317 0.7327 0.7330 0.7330
3019.624316 0.7327 0.7322 0.7320 0.7320 0.7323
3023.890526 0.7328 0.7343 0.7363 0.7390 0.7420
3028.156737 0.7453 0.7488 0.7565 0.7665 0.7820
3032.422947 0.8005 0.8096 0.8136 0.8189 0.8248
3036.689158 0.8280 0.8295 0.8316 0.8341 0.8360
3040.955368 0.8375 0.8393 0.8413 0.8420 0.8420
3045.221579 0.8420 0.8420 0.8414 0.8404 0.8400
3049.487789 0.8400 0.8394 0.8384 0.8374 0.8364
3053.754000 0.8354 0.8344 0.8334 0.8324 0.8317
3058.020211 0.8312 0.8310 0.8310 0.8320 0.8335
3062.286421 0.8369 0.8414 0.8433 0.8438 0.8462
3066.552632 0.8497 0.8520 0.8534 0.8613 0.8727
3070.818842 0.8814 0.8884 0.8919 0.8934 0.8943
3075.085053 0.8948 0.8960 0.8975 0.8980 0.8980
3079.351263 0.8980 0.8980 0.8971 0.8956 0.8944
3083.617474 0.8934 0.8924 0.8914 0.8885 0.8845
3087.883684 0.8824 0.8814 0.8745 0.8640 0.8463
3092.149895 0.8241 0.8144 0.8119 0.8063 0.7988
3096.416105 0.7944 0.7919 0.7810 0.7650 0.7590
3100.682316 0.7590 0.7665 0.7785 0.8004 0.8283
3104.948526 0.8424 0.8479 0.8555 0.8645 0.8720
3109.214737 0.8786 0.8901 0.9046 0.9159 0.9254
3113.480947 0.9296 0.9306 0.9322 0.9342 0.9359
3117.747158 0.9374 0.9402 0.9437 0.9475 0.9515
3122.013368 0.9536 0.9546 0.9556 0.9566 0.9573
3126.279579 0.9578 0.9580 0.9580 0.9589 0.9604
3130.545789 0.9616 0.9626 0.9639 0.9654 0.9663
3134.812000 0.9668 0.9676 0.9686 0.9690 0.9690
3139.078211 0.9693 0.9698 0.9709 0.9724 0.9733
3143.344421 0.9738 0.9743 0.9748 0.9756 0.9766
3147.610632 0.9770 0.9770 0.9773 0.9778 0.9783
3151.876842 0.9788 0.9790 0.9790 0.9796 0.9806
3156.143053 0.9810 0.9810 0.9810 0.9810 0.9810
3160.409263 0.9810 0.9810 0.9810 0.9810 0.9810
3164.675474 0.9810 0.9810 0.9810 0.9810 0.9810
3168.941684 0.9810 0.9813 0.9818 0.9820 0.9820
3173.207895 0.9823 0.9828 0.9830 0.9830 0.9830
3177.474105 0.9830 0.9836 0.9846 0.9850 0.9850
3181.740316 0.9850 0.9850 0.9850 0.9850 0.9850
3186.006526 0.9850 0.9850 0.9850 0.9853 0.9858
3190.272737 0.9860 0.9860 0.9863 0.9868 0.9870
3194.538947 0.9870 0.9876 0.9886 0.9890 0.9890
3198.805158 0.9890 0.9890 0.9893 0.9898 0.9900
3203.071368 0.9900 0.9900 0.9900 0.9897 0.9892
3207.337579 0.9890 0.9890 0.9890 0.9890 0.9884
3211.603789 0.9874 0.9870 0.9870 0.9867 0.9862
3215.870000 0.9857 0.9852 0.9850 0.9850 0.9850
3220.136211 0.9850 0.9844 0.9834 0.9830 0.9830
3224.402421 0.9830 0.9830 0.9830 0.9830 0.9827
3228.668632 0.9822 0.9820 0.9820 0.9820 0.9820
3232.934842 0.9823 0.9828 0.9836 0.9846 0.9850
3237.201053 0.9850 0.9853 0.9858 0.9863 0.9868
3241.467263 0.9876 0.9886 0.9893 0.9898 0.9900
3245.733474 0.9900 0.9903 0.9908 0.9916 0.9926
3249.999684 0.9930 0.9930 0.9930 0.9930 0.9930
3254.265895 0.9930 0.9930 0.9930 0.9930 0.9930
3258.532105 0.9924 0.9914 0.9910 0.9910 0.9916
3262.798316 0.9926 0.9930 0.9930 0.9930 0.9930
3267.064526 0.9930 0.9930 0.9930 0.9930 0.9924
3271.330737 0.9914 0.9910 0.9910 0.9910 0.9910
3275.596947 0.9910 0.9910 0.9910 0.9910 0.9907
3279.863158 0.9902 0.9900 0.9900 0.9897 0.9892
3284.129368 0.9890 0.9890 0.9890 0.9890 0.9884
3288.395579 0.9874 0.9856 0.9831 0.9809 0.9789
3292.661789 0.9777 0.9772 0.9764 0.9754 0.9747
3296.928000 0.9742 0.9731 0.9717 0.9710 0.9710
3301.194211 0.9707 0.9702 0.9703 0.9708 0.9716
3305.460421 0.9726 0.9736 0.9746 0.9756 0.9766
3309.726632 0.9770 0.9770 0.9770 0.9770 0.9765
3313.992842 0.9754 0.9747 0.9742 0.9740 0.9740
3318.259053 0.9748 0.9763 0.9776 0.9786 0.9790
3322.525263 0.9790 0.9787 0.9782 0.9780 0.9780
3326.791474 0.9780 0.9780 0.9777 0.9772 0.9765
3331.057684 0.9754 0.9733 0.9703 0.9684 0.9674
3335.323895 0.9659 0.9639 0.9616 0.9591 0.9550
3339.590105 0.9495 0.9437 0.9378 0.9326 0.9281
3343.856316 0.9228 0.9168 0.9132 0.9117 0.9062
3348.122526 0.8971 0.8900 0.8845 0.8812 0.8797
3352.388737 0.8787 0.8782 0.8783 0.8788 0.8809
3356.654947 0.8844 0.8879 0.8914 0.8975 0.9060
3360.921158 0.9145 0.9230 0.9297 0.9346 0.9391
3365.187368 0.9432 0.9466 0.9496 0.9515 0.9525
3369.453579 0.9552 0.9592 0.9626 0.9656 0.9670
3373.719789 0.9670 0.9667 0.9662 0.9660 0.9660
3377.986000 0.9657 0.9652 0.9645 0.9635 0.9625
3382.252211 0.9615 0.9599 0.9579 0.9565 0.9555
3386.518421 0.9550 0.9550 0.9537 0.9512 0.9497
3390.784632 0.9492 0.9482 0.9467 0.9447 0.9422
3395.050842 0.9405 0.9395 0.9395 0.9405 0.9426
3399.317053 0.9456 0.9486 0.9516 0.9543 0.9568
3403.583263 0.9598 0.9633 0.9655 0.9665 0.9675
3407.849474 0.9685 0.9693 0.9698 0.9708 0.9723
3412.115684 0.9733 0.9738 0.9743 0.9748 0.9750
3416.381895 0.9750 0.9755 0.9765 0.9770 0.9770
3420.648105 0.9773 0.9778 0.9783 0.9788 0.9790
3424.914316 0.9790 0.9790 0.9790 0.9795 0.9805
3429.180526 0.9810 0.9810 0.9813 0.9818 0.9823
3433.446737 0.9828 0.9830 0.9830 0.9830 0.9830
3437.712947 0.9835 0.9845 0.9850 0.9850 0.9845
3441.979158 0.9835 0.9830 0.9830 0.9827 0.9822
3446.245368 0.9820 0.9820 0.9820 0.9820 0.9817
3450.511579 0.9812 0.9810 0.9810 0.9810 0.9810
3454.777789 0.9810 0.9810 0.9810 0.9810 0.9810
3459.044000 0.9810 0.9805 0.9795 0.9790 0.9790
3463.310211 0.9790 0.9790 0.9788 0.9783 0.9780
3467.576421 0.9780 0.9777 0.9772 0.9765 0.9755
3471.842632 0.9750 0.9750 0.9750 0.9750 0.9748
3476.108842 0.9743 0.9740 0.9740 0.9740 0.9740
3480.375053 0.9738 0.9733 0.9730 0.9730 0.9730
3484.641263 0.9730 0.9725 0.9715 0.9707 0.9703
3488.907474 0.9700 0.9700 0.9700 0.9700 0.9698
3493.173684 0.9693 0.9690 0.9690 0.9690 0.9690
3497.439895 0.9690 0.9690 0.9690 0.9690 0.9690
3501.706105 0.9690 0.9685 0.9675 0.9670 0.9670
3505.972316 0.9668 0.9663 0.9660 0.9660 0.9660
3510.238526 0.9660 0.9660 0.9660 0.9658 0.9653
3514.504737 0.9650 0.9650 0.9650 0.9650 0.9652
3518.770947 0.9657 0.9662 0.9667 0.9670 0.9670
3523.037158 0.9675 0.9685 0.9690 0.9690 0.9692
3527.303368 0.9697 0.9700 0.9700 0.9698 0.9693
3531.569579 0.9685 0.9675 0.9670 0.9670 0.9668
3535.835789 0.9663 0.9660 0.9660 0.9662 0.9667
3540.102000 0.9675 0.9685 0.9690 0.9690 0.9692
3544.368211 0.9697 0.9700 0.9700 0.9702 0.9707
3548.634421 0.9715 0.9725 0.9730 0.9730 0.9732
3552.900632 0.9737 0.9740 0.9740 0.9738 0.9733
3557.166842 0.9732 0.9737 0.9740 0.9740 0.9747
3561.433053 0.9762 0.9772 0.9777 0.9780 0.9780
3565.699263 0.9780 0.9780 0.9782 0.9787 0.9790
3569.965474 0.9790 0.9790 0.9790 0.9788 0.9783
3574.231684 0.9780 0.9780 0.9773 0.9758 0.9750
3578.497895 0.9750 0.9759 0.9779 0.9795 0.9805
3582.764105 0.9812 0.9817 0.9820 0.9820 0.9820
3587.030316 0.9820 0.9820 0.9820 0.9820 0.9820
3591.296526 0.9820 0.9820 0.9820 0.9820 0.9822
3595.562737 0.9827 0.9830 0.9830 0.9830 0.9830
3599.828947 0.9835 0.9845 0.9850 0.9850 0.9852
3604.095158 0.9857 0.9860 0.9860 0.9860 0.9860
3608.361368 0.9860 0.9860 0.9858 0.9853 0.9841
3612.627579 0.9821 0.9803 0.9788 0.9780 0.9780
3616.893789 0.9787 0.9802 0.9810 0.9810 0.9819
3621.160000 0.9839 0.9850 0.9850 0.9850 0.9850
3625.426211 0.9850 0.9850 0.9852 0.9857 0.9860
3629.692421 0.9860 0.9860 0.9860 0.9853 0.9838
3633.958632 0.9826 0.9816 0.9806 0.9796 0.9788
3638.224842 0.9783 0.9782 0.9787 0.9797 0.9812
3642.491053 0.9822 0.9827 0.9837 0.9852 0.9860
3646.757263 0.9860 0.9862 0.9867 0.9874 0.9884
3651.023474 0.9890 0.9890 0.9890 0.9890 0.9886
3655.289684 0.9876 0.9859 0.9834 0.9818 0.9813
3659.555895 0.9792 0.9752 0.9726 0.9716 0.9714
3663.822105 0.9724 0.9732 0.9737 0.9740 0.9740
3668.088316 0.9734 0.9719 0.9710 0.9710 0.9701
3672.354526 0.9681 0.9661 0.9641 0.9630 0.9630
3676.620737 0.9643 0.9673 0.9699 0.9719 0.9739
3680.886947 0.9759 0.9779 0.9799 0.9814 0.9824
3685.153158 0.9834 0.9844 0.9850 0.9850 0.9852
3689.419368 0.9857 0.9862 0.9867 0.9870 0.9870
3693.685579 0.9870 0.9870 0.9868 0.9863 0.9860
3697.951789 0.9860 0.9866 0.9881 0.9890 0.9890
3702.218000 0.9892 0.9897 0.9902 0.9907 0.9910
3706.484211 0.9910 0.9910 0.9910 0.9908 0.9903
3710.750421 0.9898 0.9893 0.9890 0.9890 0.9886
3715.016632 0.9876 0.9870 0.9870 0.9868 0.9863
3719.282842 0.9858 0.9853 0.9850 0.9850 0.9852
3723.549053 0.9857 0.9866 0.9881 0.9890 0.9890
3727.815263 0.9886 0.9876 0.9868 0.9863 0.9858
3732.081474 0.9853 0.9850 0.9850 0.9852 0.9857
3736.347684 0.9862 0.9867 0.9874 0.9884 0.9890
3740.613895 0.9890 0.9892 0.9897 0.9900 0.9900
3744.880105 0.9900 0.9900 0.9902 0.9907 0.9914
3749.146316 0.9924 0.9930 0.9930 0.9930 0.9930
3753.412526 0.9932 0.9937 0.9940 0.9940 0.9940
3757.678737 0.9940 0.9940 0.9940 0.9940 0.9940
3761.944947 0.9938 0.9933 0.9930 0.9930 0.9926
3766.211158 0.9916 0.9908 0.9903 0.9900 0.9900
3770.477368 0.9902 0.9907 0.9910 0.9910 0.9914
3774.743579 0.9924 0.9930 0.9930 0.9926 0.9916
3779.009789 0.9908 0.9903 0.9898 0.9893 0.9886
3783.276000 0.9876 0.9870 0.9870 0.9870 0.9870
3787.542211 0.9868 0.9863 0.9860 0.9860 0.9862
3791.808421 0.9867 0.9870 0.9870 0.9870 0.9870
3796.074632 0.9870 0.9870
##END=
