##TITLE=2-PROPANOL, 1-AMINO-
##JCAMP-DX=4.24
$$ By DXEDIT 1.05 (RS McDonald)
##DATA TYPE=INFRARED SPECTRUM
##CLASS=COBLENTZ III
##ORIGIN=WYANDOTTE CHEMICALS CORP.
##OWNER=COBLENTZ SOC.
Collection (C) 2018 copyright by the U.S. Secretary of Commerce
on behalf of the United States of America. All rights reserved.
##DATE=Not specified, most likely prior to 1970
##NAMES=1-amino-2-propanol
##CAS REGISTRY NO=78-96-6
##MOLFORM=C3 H9 N O
##SOURCE REFERENCE=COBLENTZ NO. 05980
##$NIST SOURCE=COBLENTZ
##$NIST IMAGE=cob5980
##SPECTROMETER/DATA SYSTEM=BAIRD (GRATING)
##INSTRUMENT PARAMETERS=NaCl PRISM
##STATE=LIQUID (NEAT)
##PATH LENGTH=CAPILLARY
##SAMPLING PROCEDURE=TRANSMISSION
##RESOLUTION=2
##DATA PROCESSING=DIGITIZED BY COBLENTZ SOCIETY (BATCH I) FROM HARD COPY
##XUNITS=1/CM
##YUNITS=TRANSMITTANCE
##XLABEL=Wavenumbers (cm-1)
##YLABEL=Transmittance
##XFACTOR=1
##YFACTOR=1
##DELTAX=1
##FIRSTX=4000
##LASTX=626
##FIRSTY=1.0001
##MAXX=4000
##MINX=626
##MAXY=1.0005
##MINY=0.0839
##NPOINTS=3375
##XYDATA=(X++(Y..Y))
4000.000000 1.0001 1.0001 1.0001 1.0001 1.0001
3995.000000 1.0001 1.0001 1.0001 1.0001 1.0001
3990.000000 1.0001 1.0001 1.0001 1.0002 1.0002
3985.000000 1.0002 1.0002 1.0002 1.0002 1.0002
3980.000000 1.0002 1.0002 1.0002 1.0002 1.0002
3975.000000 1.0002 1.0003 1.0003 1.0003 1.0003
3970.000000 1.0003 1.0003 1.0003 1.0003 1.0003
3965.000000 1.0003 1.0003 1.0003 1.0003 1.0004
3960.000000 1.0004 1.0004 1.0004 1.0004 1.0004
3955.000000 1.0004 1.0004 1.0004 1.0004 1.0004
3950.000000 1.0004 1.0005 1.0005 1.0005 1.0005
3945.000000 1.0005 1.0005 1.0005 1.0005 1.0005
3940.000000 1.0005 1.0005 1.0005 1.0005 1.0005
3935.000000 1.0005 1.0005 1.0005 1.0005 1.0005
3930.000000 1.0004 1.0004 1.0004 1.0004 1.0004
3925.000000 1.0004 1.0004 1.0004 1.0004 1.0004
3920.000000 1.0004 1.0004 1.0004 1.0004 1.0004
3915.000000 1.0004 1.0004 1.0004 1.0004 1.0004
3910.000000 1.0004 1.0004 1.0004 1.0004 1.0003
3905.000000 1.0003 1.0003 1.0003 1.0003 1.0003
3900.000000 1.0003 1.0003 1.0003 1.0003 1.0003
3895.000000 1.0003 1.0003 1.0003 1.0003 1.0003
3890.000000 1.0003 1.0003 1.0003 1.0003 1.0003
3885.000000 1.0003 1.0003 1.0003 1.0003 1.0003
3880.000000 1.0003 1.0003 1.0003 1.0003 1.0003
3875.000000 1.0002 1.0002 1.0002 1.0001 1.0001
3870.000000 1.0001 1.0000 1.0000 1.0000 0.9999
3865.000000 0.9999 0.9999 0.9998 0.9998 0.9997
3860.000000 0.9997 0.9997 0.9996 0.9996 0.9996
3855.000000 0.9995 0.9995 0.9995 0.9994 0.9994
3850.000000 0.9994 0.9993 0.9993 0.9993 0.9992
3845.000000 0.9992 0.9992 0.9991 0.9991 0.9991
3840.000000 0.9990 0.9990 0.9990 0.9989 0.9989
3835.000000 0.9989 0.9988 0.9988 0.9988 0.9987
3830.000000 0.9987 0.9987 0.9986 0.9986 0.9986
3825.000000 0.9985 0.9985 0.9985 0.9984 0.9984
3820.000000 0.9984 0.9984 0.9984 0.9984 0.9983
3815.000000 0.9983 0.9983 0.9983 0.9983 0.9983
3810.000000 0.9982 0.9982 0.9982 0.9982 0.9982
3805.000000 0.9981 0.9981 0.9981 0.9980 0.9980
3800.000000 0.9978 0.9978 0.9978 0.9978 0.9978
3795.000000 0.9978 0.9978 0.9978 0.9978 0.9978
3790.000000 0.9978 0.9978 0.9978 0.9977 0.9977
3785.000000 0.9975 0.9975 0.9975 0.9974 0.9974
3780.000000 0.9973 0.9973 0.9971 0.9971 0.9971
3775.000000 0.9971 0.9970 0.9970 0.9968 0.9968
3770.000000 0.9968 0.9967 0.9967 0.9966 0.9965
3765.000000 0.9964 0.9964 0.9963 0.9963 0.9962
3760.000000 0.9962 0.9961 0.9960 0.9959 0.9958
3755.000000 0.9958 0.9957 0.9956 0.9955 0.9954
3750.000000 0.9953 0.9952 0.9951 0.9950 0.9950
3745.000000 0.9949 0.9948 0.9947 0.9946 0.9945
3740.000000 0.9944 0.9943 0.9942 0.9942 0.9941
3735.000000 0.9939 0.9938 0.9937 0.9936 0.9935
3730.000000 0.9934 0.9933 0.9932 0.9932 0.9931
3725.000000 0.9930 0.9928 0.9927 0.9925 0.9925
3720.000000 0.9924 0.9923 0.9921 0.9920 0.9918
3715.000000 0.9917 0.9915 0.9914 0.9913 0.9911
3710.000000 0.9910 0.9908 0.9907 0.9906 0.9904
3705.000000 0.9903 0.9902 0.9900 0.9899 0.9898
3700.000000 0.9896 0.9895 0.9893 0.9892 0.9890
3695.000000 0.9889 0.9887 0.9886 0.9884 0.9881
3690.000000 0.9878 0.9877 0.9874 0.9871 0.9868
3685.000000 0.9867 0.9865 0.9862 0.9860 0.9857
3680.000000 0.9855 0.9853 0.9850 0.9848 0.9845
3675.000000 0.9843 0.9841 0.9838 0.9836 0.9833
3670.000000 0.9830 0.9827 0.9824 0.9821 0.9818
3665.000000 0.9815 0.9812 0.9808 0.9804 0.9801
3660.000000 0.9797 0.9794 0.9790 0.9787 0.9783
3655.000000 0.9780 0.9775 0.9771 0.9768 0.9765
3650.000000 0.9762 0.9757 0.9752 0.9747 0.9741
3645.000000 0.9736 0.9731 0.9725 0.9720 0.9715
3640.000000 0.9710 0.9704 0.9699 0.9694 0.9689
3635.000000 0.9683 0.9678 0.9671 0.9665 0.9658
3630.000000 0.9652 0.9645 0.9638 0.9630 0.9623
3625.000000 0.9615 0.9608 0.9600 0.9591 0.9583
3620.000000 0.9574 0.9566 0.9557 0.9547 0.9536
3615.000000 0.9525 0.9515 0.9504 0.9494 0.9483
3610.000000 0.9471 0.9462 0.9451 0.9440 0.9428
3605.000000 0.9417 0.9405 0.9394 0.9380 0.9362
3600.000000 0.9344 0.9325 0.9307 0.9289 0.9268
3595.000000 0.9249 0.9228 0.9209 0.9188 0.9165
3590.000000 0.9141 0.9117 0.9093 0.9068 0.9044
3585.000000 0.9018 0.8994 0.8968 0.8943 0.8918
3580.000000 0.8895 0.8871 0.8847 0.8823 0.8801
3575.000000 0.8781 0.8762 0.8742 0.8723 0.8703
3570.000000 0.8682 0.8661 0.8640 0.8618 0.8597
3565.000000 0.8570 0.8543 0.8516 0.8489 0.8462
3560.000000 0.8435 0.8408 0.8382 0.8355 0.8328
3555.000000 0.8305 0.8282 0.8258 0.8234 0.8210
3550.000000 0.8186 0.8161 0.8138 0.8112 0.8088
3545.000000 0.8054 0.8019 0.7985 0.7951 0.7914
3540.000000 0.7842 0.7769 0.7698 0.7625 0.7558
3535.000000 0.7546 0.7533 0.7521 0.7508 0.7496
3530.000000 0.7483 0.7471 0.7458 0.7446 0.7433
3525.000000 0.7418 0.7403 0.7388 0.7374 0.7357
3520.000000 0.7332 0.7306 0.7281 0.7256 0.7218
3515.000000 0.7132 0.7044 0.6957 0.6868 0.6796
3510.000000 0.6765 0.6737 0.6708 0.6678 0.6649
3505.000000 0.6619 0.6591 0.6561 0.6532 0.6503
3500.000000 0.6472 0.6443 0.6414 0.6384 0.6355
3495.000000 0.6325 0.6296 0.6266 0.6237 0.6207
3490.000000 0.6177 0.6147 0.6118 0.6088 0.6058
3485.000000 0.6029 0.5999 0.5969 0.5940 0.5910
3480.000000 0.5880 0.5850 0.5821 0.5791 0.5760
3475.000000 0.5731 0.5701 0.5671 0.5641 0.5610
3470.000000 0.5581 0.5551 0.5521 0.5491 0.5460
3465.000000 0.5431 0.5401 0.5371 0.5341 0.5310
3460.000000 0.5281 0.5250 0.5220 0.5190 0.5160
3455.000000 0.5130 0.5099 0.5069 0.5039 0.5008
3450.000000 0.4978 0.4948 0.4917 0.4887 0.4857
3445.000000 0.4826 0.4796 0.4766 0.4735 0.4705
3440.000000 0.4674 0.4644 0.4612 0.4583 0.4552
3435.000000 0.4521 0.4490 0.4460 0.4429 0.4399
3430.000000 0.4368 0.4338 0.4307 0.4276 0.4246
3425.000000 0.4215 0.4184 0.4153 0.4122 0.4091
3420.000000 0.4059 0.4030 0.3999 0.3968 0.3937
3415.000000 0.3906 0.3875 0.3844 0.3812 0.3782
3410.000000 0.3750 0.3720 0.3689 0.3658 0.3627
3405.000000 0.3596 0.3564 0.3532 0.3502 0.3471
3400.000000 0.3440 0.3408 0.3377 0.3346 0.3314
3395.000000 0.3282 0.3252 0.3221 0.3189 0.3158
3390.000000 0.3127 0.3095 0.3064 0.3033 0.3001
3385.000000 0.2969 0.2938 0.2906 0.2875 0.2843
3380.000000 0.2812 0.2780 0.2749 0.2717 0.2684
3375.000000 0.2654 0.2622 0.2590 0.2558 0.2527
3370.000000 0.2495 0.2463 0.2431 0.2399 0.2368
3365.000000 0.2335 0.2304 0.2272 0.2240 0.2208
3360.000000 0.2176 0.2144 0.2112 0.2080 0.2048
3355.000000 0.2023 0.2001 0.1979 0.1958 0.1937
3350.000000 0.1923 0.1909 0.1894 0.1879 0.1854
3345.000000 0.1824 0.1794 0.1765 0.1733 0.1695
3340.000000 0.1658 0.1620 0.1583 0.1556 0.1532
3335.000000 0.1508 0.1484 0.1462 0.1446 0.1432
3330.000000 0.1417 0.1402 0.1373 0.1342 0.1313
3325.000000 0.1283 0.1258 0.1241 0.1223 0.1206
3320.000000 0.1189 0.1180 0.1170 0.1161 0.1152
3315.000000 0.1146 0.1145 0.1142 0.1141 0.1139
3310.000000 0.1137 0.1135 0.1133 0.1131 0.1129
3305.000000 0.1128 0.1127 0.1125 0.1124 0.1122
3300.000000 0.1121 0.1120 0.1118 0.1117 0.1116
3295.000000 0.1115 0.1114 0.1112 0.1109 0.1107
3290.000000 0.1105 0.1101 0.1096 0.1092 0.1088
3285.000000 0.1084 0.1079 0.1074 0.1068 0.1063
3280.000000 0.1060 0.1058 0.1055 0.1053 0.1051
3275.000000 0.1051 0.1050 0.1050 0.1049 0.1049
3270.000000 0.1049 0.1049 0.1049 0.1049 0.1050
3265.000000 0.1051 0.1052 0.1055 0.1058 0.1061
3260.000000 0.1070 0.1070 0.1071 0.1075 0.1078
3255.000000 0.1081 0.1084 0.1087 0.1090 0.1092
3250.000000 0.1098 0.1103 0.1108 0.1113 0.1118
3245.000000 0.1123 0.1128 0.1133 0.1138 0.1142
3240.000000 0.1148 0.1153 0.1158 0.1162 0.1166
3235.000000 0.1170 0.1174 0.1177 0.1181 0.1184
3230.000000 0.1187 0.1191 0.1195 0.1198 0.1202
3225.000000 0.1204 0.1206 0.1207 0.1209 0.1210
3220.000000 0.1211 0.1211 0.1212 0.1213 0.1213
3215.000000 0.1214 0.1214 0.1215 0.1215 0.1216
3210.000000 0.1216 0.1217 0.1217 0.1218 0.1218
3205.000000 0.1219 0.1219 0.1219 0.1219 0.1220
3200.000000 0.1220 0.1220 0.1220 0.1220 0.1220
3195.000000 0.1220 0.1220 0.1220 0.1221 0.1221
3190.000000 0.1221 0.1221 0.1220 0.1220 0.1219
3185.000000 0.1219 0.1218 0.1217 0.1216 0.1216
3180.000000 0.1215 0.1214 0.1213 0.1212 0.1211
3175.000000 0.1210 0.1210 0.1209 0.1208 0.1208
3170.000000 0.1207 0.1207 0.1206 0.1206 0.1205
3165.000000 0.1205 0.1204 0.1204 0.1203 0.1203
3160.000000 0.1203 0.1203 0.1204 0.1204 0.1205
3155.000000 0.1206 0.1207 0.1208 0.1209 0.1210
3150.000000 0.1211 0.1212 0.1213 0.1215 0.1216
3145.000000 0.1217 0.1220 0.1223 0.1227 0.1230
3140.000000 0.1235 0.1241 0.1246 0.1251 0.1256
3135.000000 0.1261 0.1267 0.1272 0.1277 0.1283
3130.000000 0.1289 0.1295 0.1302 0.1308 0.1315
3125.000000 0.1322 0.1328 0.1334 0.1341 0.1346
3120.000000 0.1354 0.1360 0.1366 0.1373 0.1382
3115.000000 0.1391 0.1400 0.1411 0.1424 0.1437
3110.000000 0.1449 0.1463 0.1476 0.1490 0.1504
3105.000000 0.1518 0.1532 0.1546 0.1560 0.1574
3100.000000 0.1588 0.1603 0.1617 0.1632 0.1645
3095.000000 0.1661 0.1676 0.1694 0.1714 0.1733
3090.000000 0.1752 0.1769 0.1785 0.1803 0.1820
3085.000000 0.1835 0.1852 0.1867 0.1883 0.1899
3080.000000 0.1915 0.1931 0.1945 0.1962 0.1977
3075.000000 0.1993 0.2009 0.2025 0.2041 0.2057
3070.000000 0.2072 0.2088 0.2104 0.2120 0.2135
3065.000000 0.2152 0.2168 0.2184 0.2200 0.2216
3060.000000 0.2232 0.2248 0.2264 0.2280 0.2296
3055.000000 0.2312 0.2328 0.2345 0.2360 0.2376
3050.000000 0.2392 0.2408 0.2424 0.2440 0.2456
3045.000000 0.2473 0.2489 0.2505 0.2521 0.2537
3040.000000 0.2554 0.2570 0.2585 0.2602 0.2619
3035.000000 0.2634 0.2651 0.2667 0.2684 0.2700
3030.000000 0.2716 0.2733 0.2749 0.2766 0.2782
3025.000000 0.2798 0.2815 0.2831 0.2847 0.2863
3020.000000 0.2880 0.2895 0.2911 0.2926 0.2942
3015.000000 0.2947 0.2947 0.2948 0.2949 0.2949
3010.000000 0.2949 0.2965 0.2929 0.2881 0.2833
3005.000000 0.2784 0.2732 0.2678 0.2625 0.2571
3000.000000 0.2517 0.2463 0.2409 0.2355 0.2301
2995.000000 0.2247 0.2193 0.2139 0.2084 0.2029
2990.000000 0.1976 0.1922 0.1868 0.1813 0.1759
2985.000000 0.1704 0.1650 0.1595 0.1541 0.1486
2980.000000 0.1432 0.1377 0.1322 0.1268 0.1213
2975.000000 0.1158 0.1103 0.1049 0.0999 0.0953
2970.000000 0.0907 0.0866 0.0866 0.0865 0.0864
2965.000000 0.0864 0.0865 0.0866 0.0868 0.0872
2960.000000 0.0876 0.0880 0.0884 0.0889 0.0893
2955.000000 0.0899 0.0905 0.0911 0.0917 0.0922
2950.000000 0.0930 0.0936 0.0942 0.0945 0.0947
2945.000000 0.0951 0.0953 0.0953 0.0953 0.0952
2940.000000 0.0947 0.0943 0.0939 0.0934 0.0928
2935.000000 0.0921 0.0915 0.0908 0.0901 0.0893
2930.000000 0.0888 0.0883 0.0839 0.0872 0.0868
2925.000000 0.0863 0.0859 0.0856 0.0854 0.0852
2920.000000 0.0851 0.0851 0.0851 0.0851 0.0854
2915.000000 0.0856 0.0859 0.0863 0.0867 0.0871
2910.000000 0.0876 0.0886 0.0893 0.0903 0.0912
2905.000000 0.0921 0.0930 0.0939 0.0949 0.0958
2900.000000 0.0968 0.0979 0.0989 0.1000 0.1011
2895.000000 0.1022 0.1034 0.1042 0.1050 0.1058
2890.000000 0.1064 0.1070 0.1075 0.1081 0.1085
2885.000000 0.1090 0.1094 0.1098 0.1100 0.1119
2880.000000 0.1105 0.1107 0.1108 0.1108 0.1109
2875.000000 0.1107 0.1105 0.1101 0.1096 0.1091
2870.000000 0.1085 0.1078 0.1072 0.1066 0.1060
2865.000000 0.1055 0.1049 0.1044 0.1039 0.1034
2860.000000 0.1030 0.1027 0.1025 0.1022 0.1021
2855.000000 0.1019 0.1017 0.1016 0.1016 0.1016
2850.000000 0.1016 0.1017 0.1018 0.1019 0.1021
2845.000000 0.1024 0.1027 0.1035 0.1044 0.1053
2840.000000 0.1062 0.1071 0.1080 0.1092 0.1108
2835.000000 0.1123 0.1139 0.1157 0.1175 0.1192
2830.000000 0.1211 0.1229 0.1246 0.1272 0.1296
2825.000000 0.1321 0.1358 0.1396 0.1436 0.1474
2820.000000 0.1513 0.1552 0.1590 0.1629 0.1668
2815.000000 0.1707 0.1745 0.1784 0.1824 0.1863
2810.000000 0.1902 0.1941 0.1979 0.2020 0.2059
2805.000000 0.2098 0.2137 0.2176 0.2216 0.2255
2800.000000 0.2294 0.2333 0.2373 0.2413 0.2452
2795.000000 0.2491 0.2531 0.2570 0.2610 0.2650
2790.000000 0.2690 0.2729 0.2769 0.2808 0.2841
2785.000000 0.2875 0.2908 0.2921 0.2933 0.2945
2780.000000 0.2953 0.2960 0.2967 0.2972 0.2977
2775.000000 0.2982 0.2987 0.2992 0.2997 0.3001
2770.000000 0.3005 0.3010 0.3013 0.3017 0.3020
2765.000000 0.3023 0.3026 0.3029 0.3031 0.3034
2760.000000 0.3035 0.3038 0.3041 0.3043 0.3045
2755.000000 0.3048 0.3050 0.3052 0.3055 0.3057
2750.000000 0.3059 0.3061 0.3063 0.3066 0.3072
2745.000000 0.3077 0.3083 0.3088 0.3094 0.3101
2740.000000 0.3113 0.3125 0.3138 0.3153 0.3169
2735.000000 0.3184 0.3206 0.3226 0.3247 0.3270
2730.000000 0.3293 0.3316 0.3339 0.3362 0.3388
2725.000000 0.3418 0.3448 0.3480 0.3518 0.3557
2720.000000 0.3593 0.3627 0.3660 0.3686 0.3698
2715.000000 0.3710 0.3723 0.3734 0.3747 0.3759
2710.000000 0.3771 0.3782 0.3799 0.3816 0.3834
2705.000000 0.3862 0.3898 0.3932 0.3968 0.4004
2700.000000 0.4040 0.4076 0.4112 0.4150 0.4178
2695.000000 0.4205 0.4232 0.4258 0.4285 0.4310
2690.000000 0.4328 0.4346 0.4362 0.4378 0.4394
2685.000000 0.4409 0.4424 0.4439 0.4455 0.4471
2680.000000 0.4488 0.4509 0.4533 0.4558 0.4577
2675.000000 0.4593 0.4609 0.4624 0.4638 0.4652
2670.000000 0.4666 0.4680 0.4695 0.4709 0.4723
2665.000000 0.4737 0.4751 0.4765 0.4779 0.4794
2660.000000 0.4808 0.4823 0.4837 0.4851 0.4865
2655.000000 0.4879 0.4893 0.4908 0.4923 0.4937
2650.000000 0.4951 0.4966 0.4980 0.4994 0.5008
2645.000000 0.5023 0.5038 0.5052 0.5067 0.5081
2640.000000 0.5095 0.5110 0.5125 0.5139 0.5154
2635.000000 0.5168 0.5183 0.5197 0.5210 0.5226
2630.000000 0.5241 0.5256 0.5270 0.5285 0.5299
2625.000000 0.5314 0.5328 0.5343 0.5358 0.5373
2620.000000 0.5387 0.5402 0.5417 0.5431 0.5446
2615.000000 0.5460 0.5475 0.5490 0.5505 0.5518
2610.000000 0.5531 0.5544 0.5557 0.5570 0.5583
2605.000000 0.5596 0.5609 0.5621 0.5633 0.5645
2600.000000 0.5657 0.5669 0.5682 0.5694 0.5706
2595.000000 0.5718 0.5731 0.5743 0.5756 0.5769
2590.000000 0.5782 0.5795 0.5808 0.5821 0.5835
2585.000000 0.5848 0.5860 0.5875 0.5888 0.5901
2580.000000 0.5914 0.5928 0.5941 0.5954 0.5967
2575.000000 0.5979 0.5991 0.6002 0.6014 0.6025
2570.000000 0.6036 0.6048 0.6059 0.6070 0.6082
2565.000000 0.6093 0.6105 0.6116 0.6128 0.6139
2560.000000 0.6151 0.6162 0.6174 0.6186 0.6197
2555.000000 0.6209 0.6221 0.6233 0.6245 0.6257
2550.000000 0.6269 0.6281 0.6293 0.6304 0.6316
2545.000000 0.6329 0.6341 0.6353 0.6365 0.6377
2540.000000 0.6389 0.6401 0.6411 0.6424 0.6436
2535.000000 0.6448 0.6460 0.6471 0.6483 0.6495
2530.000000 0.6507 0.6518 0.6530 0.6542 0.6554
2525.000000 0.6565 0.6578 0.6590 0.6601 0.6614
2520.000000 0.6625 0.6638 0.6650 0.6661 0.6674
2515.000000 0.6686 0.6699 0.6711 0.6725 0.6737
2510.000000 0.6750 0.6762 0.6775 0.6789 0.6801
2505.000000 0.6815 0.6831 0.6846 0.6861 0.6876
2500.000000 0.6893 0.6908 0.6924 0.6939 0.6955
2495.000000 0.6971 0.6987 0.7003 0.7018 0.7034
2490.000000 0.7050 0.7065 0.7081 0.7096 0.7111
2485.000000 0.7126 0.7142 0.7158 0.7172 0.7189
2480.000000 0.7204 0.7218 0.7235 0.7249 0.7261
2475.000000 0.7275 0.7287 0.7300 0.7312 0.7325
2470.000000 0.7338 0.7350 0.7361 0.7375 0.7388
2465.000000 0.7401 0.7412 0.7425 0.7439 0.7451
2460.000000 0.7462 0.7474 0.7486 0.7497 0.7507
2455.000000 0.7518 0.7530 0.7541 0.7551 0.7561
2450.000000 0.7574 0.7585 0.7596 0.7607 0.7618
2445.000000 0.7628 0.7640 0.7651 0.7661 0.7672
2440.000000 0.7684 0.7696 0.7707 0.7718 0.7728
2435.000000 0.7737 0.7747 0.7757 0.7767 0.7775
2430.000000 0.7786 0.7796 0.7806 0.7815 0.7825
2425.000000 0.7835 0.7845 0.7855 0.7865 0.7875
2420.000000 0.7885 0.7895 0.7904 0.7914 0.7924
2415.000000 0.7933 0.7942 0.7951 0.7958 0.7967
2410.000000 0.7975 0.7984 0.7993 0.8001 0.8010
2405.000000 0.8018 0.8025 0.8035 0.8043 0.8051
2400.000000 0.8061 0.8068 0.8078 0.8086 0.8095
2395.000000 0.8103 0.8111 0.8119 0.8128 0.8137
2390.000000 0.8145 0.8153 0.8161 0.8168 0.8176
2385.000000 0.8185 0.8193 0.8201 0.8209 0.8217
2380.000000 0.8225 0.8234 0.8242 0.8250 0.8258
2375.000000 0.8265 0.8271 0.8278 0.8285 0.8292
2370.000000 0.8299 0.8306 0.8313 0.8318 0.8325
2365.000000 0.8333 0.8340 0.8347 0.8354 0.8361
2360.000000 0.8367 0.8374 0.8381 0.8388 0.8394
2355.000000 0.8401 0.8408 0.8415 0.8421 0.8428
2350.000000 0.8434 0.8439 0.8443 0.8447 0.8451
2345.000000 0.8455 0.8459 0.8463 0.8467 0.8471
2340.000000 0.8475 0.8478 0.8482 0.8486 0.8490
2335.000000 0.8494 0.8498 0.8504 0.8510 0.8516
2330.000000 0.8521 0.8528 0.8534 0.8540 0.8546
2325.000000 0.8554 0.8564 0.8574 0.8584 0.8594
2320.000000 0.8604 0.8615 0.8624 0.8634 0.8644
2315.000000 0.8655 0.8665 0.8675 0.8686 0.8697
2310.000000 0.8707 0.8718 0.8728 0.8740 0.8750
2305.000000 0.8761 0.8771 0.8783 0.8794 0.8805
2300.000000 0.8816 0.8825 0.8837 0.8847 0.8857
2295.000000 0.8867 0.8875 0.8886 0.8896 0.8906
2290.000000 0.8916 0.8925 0.8937 0.8947 0.8958
2285.000000 0.8968 0.8980 0.8991 0.9002 0.9013
2280.000000 0.9024 0.9035 0.9045 0.9055 0.9064
2275.000000 0.9074 0.9083 0.9092 0.9101 0.9110
2270.000000 0.9118 0.9128 0.9137 0.9146 0.9152
2265.000000 0.9156 0.9161 0.9165 0.9168 0.9173
2260.000000 0.9177 0.9182 0.9186 0.9190 0.9194
2255.000000 0.9195 0.9196 0.9196 0.9195 0.9195
2250.000000 0.9194 0.9194 0.9193 0.9193 0.9193
2245.000000 0.9193 0.9194 0.9195 0.9197 0.9198
2240.000000 0.9199 0.9200 0.9201 0.9202 0.9203
2235.000000 0.9204 0.9206 0.9207 0.9209 0.9211
2230.000000 0.9214 0.9216 0.9218 0.9220 0.9221
2225.000000 0.9224 0.9225 0.9228 0.9231 0.9233
2220.000000 0.9235 0.9237 0.9239 0.9241 0.9243
2215.000000 0.9246 0.9248 0.9250 0.9252 0.9254
2210.000000 0.9256 0.9258 0.9260 0.9263 0.9264
2205.000000 0.9266 0.9268 0.9270 0.9271 0.9274
2200.000000 0.9275 0.9278 0.9280 0.9282 0.9284
2195.000000 0.9285 0.9287 0.9289 0.9292 0.9294
2190.000000 0.9296 0.9298 0.9299 0.9301 0.9302
2185.000000 0.9303 0.9304 0.9305 0.9307 0.9308
2180.000000 0.9309 0.9310 0.9312 0.9313 0.9314
2175.000000 0.9316 0.9317 0.9318 0.9320 0.9321
2170.000000 0.9323 0.9325 0.9327 0.9328 0.9330
2165.000000 0.9332 0.9335 0.9337 0.9339 0.9341
2160.000000 0.9343 0.9344 0.9346 0.9349 0.9351
2155.000000 0.9353 0.9354 0.9356 0.9358 0.9361
2150.000000 0.9363 0.9364 0.9366 0.9368 0.9370
2145.000000 0.9373 0.9375 0.9375 0.9378 0.9380
2140.000000 0.9382 0.9384 0.9385 0.9387 0.9389
2135.000000 0.9390 0.9392 0.9394 0.9395 0.9397
2130.000000 0.9399 0.9400 0.9402 0.9404 0.9405
2125.000000 0.9407 0.9409 0.9410 0.9412 0.9414
2120.000000 0.9416 0.9418 0.9420 0.9421 0.9423
2115.000000 0.9425 0.9425 0.9427 0.9427 0.9427
2110.000000 0.9427 0.9427 0.9427 0.9427 0.9428
2105.000000 0.9428 0.9428 0.9428 0.9428 0.9428
2100.000000 0.9428 0.9428 0.9428 0.9428 0.9428
2095.000000 0.9428 0.9428 0.9428 0.9430 0.9430
2090.000000 0.9430 0.9430 0.9430 0.9430 0.9430
2085.000000 0.9428 0.9428 0.9428 0.9428 0.9428
2080.000000 0.9428 0.9428 0.9428 0.9428 0.9427
2075.000000 0.9427 0.9427 0.9427 0.9425 0.9425
2070.000000 0.9425 0.9425 0.9425 0.9425 0.9424
2065.000000 0.9424 0.9424 0.9424 0.9424 0.9423
2060.000000 0.9423 0.9421 0.9421 0.9421 0.9421
2055.000000 0.9420 0.9418 0.9418 0.9417 0.9417
2050.000000 0.9416 0.9415 0.9415 0.9414 0.9413
2045.000000 0.9412 0.9411 0.9411 0.9410 0.9410
2040.000000 0.9409 0.9408 0.9407 0.9406 0.9406
2035.000000 0.9405 0.9404 0.9404 0.9403 0.9402
2030.000000 0.9401 0.9400 0.9400 0.9399 0.9399
2025.000000 0.9397 0.9396 0.9396 0.9395 0.9394
2020.000000 0.9394 0.9393 0.9392 0.9391 0.9390
2015.000000 0.9390 0.9389 0.9389 0.9388 0.9387
2010.000000 0.9384 0.9382 0.9380 0.9378 0.9375
2005.000000 0.9374 0.9371 0.9370 0.9367 0.9365
2000.000000 0.9364 0.9361 0.9359 0.9357 0.9354
1995.000000 0.9352 0.9350 0.9348 0.9345 0.9366
1990.000000 0.9341 0.9339 0.9337 0.9335 0.9333
1985.000000 0.9331 0.9328 0.9325 0.9324 0.9321
1980.000000 0.9318 0.9316 0.9314 0.9311 0.9309
1975.000000 0.9306 0.9304 0.9302 0.9300 0.9297
1970.000000 0.9294 0.9292 0.9289 0.9287 0.9284
1965.000000 0.9281 0.9278 0.9275 0.9274 0.9271
1960.000000 0.9270 0.9268 0.9268 0.9267 0.9266
1955.000000 0.9265 0.9264 0.9262 0.9262 0.9261
1950.000000 0.9259 0.9259 0.9258 0.9256 0.9255
1945.000000 0.9254 0.9253 0.9252 0.9251 0.9251
1940.000000 0.9249 0.9248 0.9247 0.9246 0.9245
1935.000000 0.9244 0.9242 0.9241 0.9241 0.9239
1930.000000 0.9238 0.9238 0.9238 0.9238 0.9238
1925.000000 0.9238 0.9239 0.9239 0.9239 0.9239
1920.000000 0.9239 0.9239 0.9240 0.9240 0.9240
1915.000000 0.9240 0.9241 0.9241 0.9241 0.9241
1910.000000 0.9241 0.9241 0.9242 0.9242 0.9242
1905.000000 0.9242 0.9242 0.9242 0.9243 0.9243
1900.000000 0.9243 0.9243 0.9244 0.9244 0.9244
1895.000000 0.9244 0.9244 0.9243 0.9243 0.9243
1890.000000 0.9243 0.9243 0.9243 0.9243 0.9243
1885.000000 0.9243 0.9243 0.9243 0.9243 0.9243
1880.000000 0.9243 0.9243 0.9243 0.9243 0.9243
1875.000000 0.9243 0.9242 0.9242 0.9242 0.9242
1870.000000 0.9242 0.9242 0.9242 0.9242 0.9242
1865.000000 0.9242 0.9243 0.9243 0.9244 0.9245
1860.000000 0.9245 0.9245 0.9246 0.9247 0.9247
1855.000000 0.9247 0.9248 0.9249 0.9249 0.9250
1850.000000 0.9250 0.9251 0.9251 0.9252 0.9252
1845.000000 0.9253 0.9253 0.9254 0.9255 0.9255
1840.000000 0.9255 0.9256 0.9256 0.9256 0.9257
1835.000000 0.9257 0.9258 0.9258 0.9258 0.9259
1830.000000 0.9259 0.9259 0.9259 0.9260 0.9260
1825.000000 0.9260 0.9261 0.9261 0.9262 0.9262
1820.000000 0.9262 0.9262 0.9263 0.9263 0.9263
1815.000000 0.9263 0.9264 0.9264 0.9264 0.9264
1810.000000 0.9265 0.9265 0.9265 0.9265 0.9265
1805.000000 0.9266 0.9266 0.9266 0.9266 0.9267
1800.000000 0.9267 0.9266 0.9265 0.9264 0.9264
1795.000000 0.9263 0.9262 0.9261 0.9260 0.9259
1790.000000 0.9258 0.9257 0.9256 0.9256 0.9255
1785.000000 0.9254 0.9253 0.9251 0.9246 0.9242
1780.000000 0.9238 0.9233 0.9228 0.9224 0.9220
1775.000000 0.9216 0.9211 0.9207 0.9202 0.9196
1770.000000 0.9190 0.9182 0.9174 0.9166 0.9158
1765.000000 0.9150 0.9142 0.9135 0.9127 0.9118
1760.000000 0.9111 0.9103 0.9095 0.9087 0.9077
1755.000000 0.9068 0.9059 0.9050 0.9040 0.9030
1750.000000 0.9018 0.9007 0.8997 0.8985 0.8974
1745.000000 0.8962 0.8950 0.8937 0.8924 0.8911
1740.000000 0.8898 0.8885 0.8871 0.8857 0.8839
1735.000000 0.8820 0.8801 0.8783 0.8764 0.8735
1730.000000 0.8687 0.8663 0.8654 0.8648 0.8642
1725.000000 0.8636 0.8628 0.8621 0.8612 0.8602
1720.000000 0.8593 0.8584 0.8575 0.8565 0.8553
1715.000000 0.8539 0.8525 0.8510 0.8496 0.8481
1710.000000 0.8466 0.8445 0.8425 0.8405 0.8375
1705.000000 0.8338 0.8297 0.8254 0.8203 0.8168
1700.000000 0.8143 0.8122 0.8101 0.8078 0.8050
1695.000000 0.8021 0.7999 0.7975 0.7954 0.7934
1690.000000 0.7917 0.7903 0.7888 0.7874 0.7860
1685.000000 0.7845 0.7831 0.7815 0.7801 0.7787
1680.000000 0.7772 0.7758 0.7744 0.7728 0.7714
1675.000000 0.7697 0.7680 0.7662 0.7647 0.7635
1670.000000 0.7621 0.7608 0.7594 0.7581 0.7564
1665.000000 0.7545 0.7524 0.7501 0.7480 0.7458
1660.000000 0.7431 0.7403 0.7375 0.7347 0.7318
1655.000000 0.7284 0.7234 0.7172 0.7112 0.7051
1650.000000 0.6990 0.6928 0.6867 0.6805 0.6744
1645.000000 0.6653 0.6539 0.6421 0.6333 0.6265
1640.000000 0.6197 0.6121 0.6031 0.5933 0.5829
1635.000000 0.5720 0.5560 0.5374 0.5271 0.5176
1630.000000 0.5081 0.4985 0.4889 0.4792 0.4696
1625.000000 0.4599 0.4503 0.4406 0.4309 0.4212
1620.000000 0.4115 0.4018 0.3921 0.3824 0.3737
1615.000000 0.3720 0.3705 0.3695 0.3680 0.3680
1610.000000 0.3676 0.3699 0.3736 0.3796 0.3874
1605.000000 0.3962 0.4054 0.4145 0.4236 0.4327
1600.000000 0.4419 0.4510 0.4601 0.4693 0.4785
1595.000000 0.4877 0.4969 0.5062 0.5154 0.5246
1590.000000 0.5338 0.5431 0.5524 0.5617 0.5710
1585.000000 0.5802 0.5896 0.5990 0.6083 0.6177
1580.000000 0.6270 0.6364 0.6458 0.6551 0.6646
1575.000000 0.6741 0.6835 0.6918 0.6974 0.7019
1570.000000 0.7067 0.7111 0.7154 0.7193 0.7218
1565.000000 0.7236 0.7251 0.7265 0.7275 0.7286
1560.000000 0.7297 0.7307 0.7318 0.7328 0.7343
1555.000000 0.7361 0.7381 0.7400 0.7418 0.7438
1550.000000 0.7458 0.7476 0.7497 0.7521 0.7546
1545.000000 0.7547 0.7548 0.7548 0.7548 0.7548
1540.000000 0.7535 0.7544 0.7542 0.7539 0.7537
1535.000000 0.7532 0.7524 0.7517 0.7510 0.7501
1530.000000 0.7494 0.7471 0.7449 0.7425 0.7403
1525.000000 0.7380 0.7354 0.7319 0.7282 0.7245
1520.000000 0.7207 0.7168 0.7124 0.7074 0.7022
1515.000000 0.6971 0.6921 0.6868 0.6818 0.6765
1510.000000 0.6715 0.6662 0.6611 0.6558 0.6503
1505.000000 0.6444 0.6385 0.6325 0.6265 0.6197
1500.000000 0.6121 0.6045 0.5969 0.5893 0.5842
1495.000000 0.5791 0.5740 0.5688 0.5628 0.5552
1490.000000 0.5470 0.5412 0.5358 0.5298 0.5210
1485.000000 0.5118 0.5024 0.4931 0.4837 0.4744
1480.000000 0.4650 0.4555 0.4460 0.4367 0.4273
1475.000000 0.4178 0.4082 0.3988 0.3893 0.3804
1470.000000 0.3747 0.3694 0.3714 0.3716 0.3724
1465.000000 0.3747 0.3772 0.3802 0.3834 0.3871
1460.000000 0.3912 0.3954 0.3996 0.4042 0.4086
1455.000000 0.4120 0.4154 0.4187 0.4221 0.4254
1450.000000 0.4287 0.4321 0.4355 0.4388 0.4423
1445.000000 0.4456 0.4490 0.4525 0.4558 0.4593
1440.000000 0.4627 0.4660 0.4695 0.4729 0.4764
1435.000000 0.4798 0.4832 0.4867 0.4901 0.4935
1430.000000 0.4971 0.5005 0.5040 0.5074 0.5109
1425.000000 0.5144 0.5179 0.5214 0.5249 0.5284
1420.000000 0.5319 0.5354 0.5390 0.5425 0.5460
1415.000000 0.5495 0.5530 0.5566 0.5599 0.5626
1410.000000 0.5662 0.5646 0.5644 0.5640 0.5635
1405.000000 0.5616 0.5595 0.5575 0.5554 0.5518
1400.000000 0.5469 0.5420 0.5369 0.5310 0.5248
1395.000000 0.5185 0.5129 0.5075 0.5020 0.4966
1390.000000 0.4907 0.4840 0.4764 0.4621 0.4454
1385.000000 0.4287 0.4120 0.3952 0.3784 0.3616
1380.000000 0.3448 0.3279 0.3111 0.2980 0.2988
1375.000000 0.3002 0.3122 0.3309 0.3499 0.3688
1370.000000 0.3878 0.4066 0.4256 0.4446 0.4637
1365.000000 0.4828 0.4981 0.5025 0.5042 0.5052
1360.000000 0.5058 0.5060 0.5062 0.5056 0.5044
1355.000000 0.5024 0.4983 0.4918 0.4854 0.4790
1350.000000 0.4725 0.4660 0.4596 0.4532 0.4467
1345.000000 0.4402 0.4341 0.4312 0.4293 0.4275
1340.000000 0.4245 0.4278 0.4289 0.4301 0.4316
1335.000000 0.4331 0.4345 0.4360 0.4377 0.4397
1330.000000 0.4416 0.4436 0.4456 0.4476 0.4497
1325.000000 0.4520 0.4543 0.4566 0.4590 0.4612
1320.000000 0.4637 0.4665 0.4692 0.4716 0.4736
1315.000000 0.4756 0.4774 0.4785 0.4787 0.4789
1310.000000 0.4762 0.4746 0.4727 0.4704 0.4688
1305.000000 0.4664 0.4669 0.4688 0.4712 0.4768
1300.000000 0.4832 0.4894 0.4947 0.4993 0.5040
1295.000000 0.5092 0.5144 0.5197 0.5249 0.5301
1290.000000 0.5354 0.5407 0.5459 0.5512 0.5565
1285.000000 0.5618 0.5671 0.5724 0.5777 0.5831
1280.000000 0.5884 0.5937 0.5991 0.6044 0.6098
1275.000000 0.6152 0.6206 0.6260 0.6315 0.6369
1270.000000 0.6422 0.6476 0.6532 0.6586 0.6641
1265.000000 0.6695 0.6750 0.6805 0.6860 0.6915
1260.000000 0.6969 0.7025 0.7058 0.7087 0.7115
1255.000000 0.7142 0.7175 0.7211 0.7238 0.7257
1250.000000 0.7276 0.7296 0.7315 0.7333 0.7351
1245.000000 0.7369 0.7388 0.7406 0.7418 0.7428
1240.000000 0.7438 0.7449 0.7457 0.7457 0.7457
1235.000000 0.7474 0.7474 0.7472 0.7467 0.7439
1230.000000 0.7394 0.7351 0.7332 0.7330 0.7335
1225.000000 0.7338 0.7341 0.7345 0.7345 0.7340
1220.000000 0.7336 0.7321 0.7299 0.7258 0.7208
1215.000000 0.7137 0.7045 0.6971 0.6899 0.6826
1210.000000 0.6754 0.6681 0.6608 0.6535 0.6461
1205.000000 0.6389 0.6315 0.6242 0.6168 0.6094
1200.000000 0.6020 0.5946 0.5881 0.5838 0.5793
1195.000000 0.5740 0.5692 0.5656 0.5620 0.5640
1190.000000 0.5650 0.5664 0.5696 0.5733 0.5790
1185.000000 0.5848 0.5910 0.5996 0.6089 0.6196
1180.000000 0.6295 0.6377 0.6455 0.6532 0.6604
1175.000000 0.6671 0.6725 0.6771 0.6799 0.6815
1170.000000 0.6825 0.6837 0.6830 0.6821 0.6812
1165.000000 0.6794 0.6767 0.6740 0.6707 0.6651
1160.000000 0.6596 0.6525 0.6444 0.6301 0.5867
1155.000000 0.5518 0.5279 0.5040 0.4800 0.4559
1150.000000 0.4320 0.4078 0.3837 0.3595 0.3353
1145.000000 0.3110 0.2867 0.2623 0.2381 0.2192
1140.000000 0.2228 0.2244 0.2271 0.2330 0.2429
1135.000000 0.2543 0.2658 0.2773 0.2888 0.3004
1130.000000 0.3119 0.3234 0.3350 0.3468 0.3557
1125.000000 0.3577 0.3589 0.3589 0.3575 0.3557
1120.000000 0.3536 0.3514 0.3494 0.3473 0.3457
1115.000000 0.3447 0.3442 0.3470 0.3503 0.3534
1110.000000 0.3578 0.3625 0.3680 0.3748 0.3816
1105.000000 0.3887 0.3956 0.4026 0.4096 0.4165
1100.000000 0.4235 0.4306 0.4376 0.4447 0.4516
1095.000000 0.4587 0.4658 0.4773 0.4762 0.4766
1090.000000 0.4751 0.4737 0.4705 0.4660 0.4601
1085.000000 0.4518 0.4362 0.4169 0.3996 0.3823
1080.000000 0.3650 0.3476 0.3302 0.3127 0.2952
1075.000000 0.2777 0.2602 0.2426 0.2250 0.2065
1070.000000 0.1939 0.1870 0.1820 0.1795 0.1790
1065.000000 0.1786 0.1786 0.1786 0.1790 0.1794
1060.000000 0.1809 0.1824 0.1837 0.1857 0.1892
1055.000000 0.1927 0.1971 0.2042 0.2113 0.2193
1050.000000 0.2278 0.2371 0.2468 0.2566 0.2644
1045.000000 0.2721 0.2798 0.2876 0.2953 0.3031
1040.000000 0.3108 0.3185 0.3264 0.3343 0.3421
1035.000000 0.3499 0.3578 0.3656 0.3734 0.3814
1030.000000 0.3894 0.3973 0.4052 0.4132 0.4181
1025.000000 0.4210 0.4238 0.4265 0.4283 0.4285
1020.000000 0.4277 0.4259 0.4219 0.4172 0.4105
1015.000000 0.4028 0.3954 0.3890 0.3825 0.3759
1010.000000 0.3693 0.3618 0.3546 0.3473 0.3403
1005.000000 0.3334 0.3264 0.3200 0.3145 0.3089
1000.000000 0.3034 0.2976 0.2905 0.2834 0.2763
995.000000 0.2709 0.2661 0.2614 0.2565 0.2514
990.000000 0.2463 0.2412 0.2363 0.2316 0.2269
985.000000 0.2221 0.2174 0.2126 0.2088 0.2053
980.000000 0.2018 0.1984 0.1960 0.1939 0.1916
975.000000 0.1894 0.1872 0.1859 0.1844 0.1829
970.000000 0.1818 0.1817 0.1817 0.1817 0.1817
965.000000 0.1817 0.1817 0.1822 0.1834 0.1845
960.000000 0.1858 0.1874 0.1889 0.1904 0.1919
955.000000 0.1934 0.1952 0.1973 0.1992 0.2012
950.000000 0.2033 0.2053 0.2073 0.2096 0.2123
945.000000 0.2151 0.2178 0.2206 0.2230 0.2251
940.000000 0.2274 0.2295 0.2312 0.2329 0.2345
935.000000 0.2359 0.2374 0.2385 0.2395 0.2402
930.000000 0.2403 0.2416 0.2391 0.2375 0.2340
925.000000 0.2275 0.2172 0.2024 0.1876 0.1772
920.000000 0.1724 0.1695 0.1686 0.1659 0.1682
915.000000 0.1700 0.1741 0.1789 0.1844 0.1899
910.000000 0.1961 0.2033 0.2099 0.2158 0.2219
905.000000 0.2279 0.2331 0.2380 0.2428 0.2469
900.000000 0.2504 0.2530 0.2557 0.2583 0.2597
895.000000 0.2610 0.2623 0.2635 0.2649 0.2663
890.000000 0.2676 0.2691 0.2709 0.2729 0.2750
885.000000 0.2789 0.2841 0.2898 0.2953 0.3007
880.000000 0.3061 0.3115 0.3168 0.3212 0.3259
875.000000 0.3304 0.3350 0.3396 0.3429 0.3462
870.000000 0.3494 0.3526 0.3559 0.3593 0.3625
865.000000 0.3658 0.3692 0.3724 0.3758 0.3791
860.000000 0.3824 0.3857 0.3890 0.3922 0.3954
855.000000 0.3984 0.4018 0.4048 0.4078 0.4107
850.000000 0.4137 0.4167 0.4201 0.4233 0.4265
845.000000 0.4298 0.4328 0.4357 0.4383 0.4408
840.000000 0.4430 0.4448 0.4464 0.4474 0.4481
835.000000 0.4481 0.4470 0.4451 0.4424 0.4395
830.000000 0.4366 0.4326 0.4283 0.4238 0.4192
825.000000 0.4147 0.4103 0.4059 0.4012 0.3970
820.000000 0.3928 0.3899 0.3884 0.3887 0.3875
815.000000 0.3894 0.3993 0.4080 0.4172 0.4268
810.000000 0.4336 0.4399 0.4462 0.4520 0.4577
805.000000 0.4633 0.4677 0.4712 0.4750 0.4786
800.000000 0.4823 0.4858 0.4872 0.4883 0.4894
795.000000 0.4912 0.4934 0.4956 0.4990 0.5032
790.000000 0.5076 0.5120 0.5165 0.5210 0.5254
785.000000 0.5297 0.5340 0.5380 0.5415 0.5449
780.000000 0.5483 0.5517 0.5552 0.5588 0.5623
775.000000 0.5659 0.5695 0.5731 0.5757 0.5782
770.000000 0.5809 0.5835 0.5862 0.5882 0.5901
765.000000 0.5920 0.5940 0.5959 0.5978 0.5997
760.000000 0.6016 0.6035 0.6052 0.6069 0.6082
755.000000 0.6095 0.6109 0.6123 0.6128 0.6133
750.000000 0.6138 0.6147 0.6157 0.6167 0.6176
745.000000 0.6186 0.6196 0.6207 0.6226 0.6244
740.000000 0.6262 0.6280 0.6299 0.6312 0.6325
735.000000 0.6337 0.6348 0.6360 0.6372 0.6383
730.000000 0.6394 0.6406 0.6417 0.6428 0.6440
725.000000 0.6451 0.6461 0.6471 0.6481 0.6491
720.000000 0.6501 0.6511 0.6521 0.6533 0.6545
715.000000 0.6556 0.6567 0.6578 0.6588 0.6595
710.000000 0.6601 0.6608 0.6614 0.6621 0.6626
705.000000 0.6635 0.6642 0.6650 0.6658 0.6667
700.000000 0.6675 0.6686 0.6695 0.6701 0.6704
695.000000 0.6708 0.6711 0.6714 0.6718 0.6721
690.000000 0.6725 0.6726 0.6684 0.6731 0.6733
685.000000 0.6735 0.6736 0.6739 0.6740 0.6741
680.000000 0.6741 0.6741 0.6736 0.6732 0.6728
675.000000 0.6728 0.6728 0.6728 0.6728 0.6721
670.000000 0.6715 0.6707 0.6697 0.6678 0.6656
665.000000 0.6631 0.6610 0.6600 0.6593 0.6589
660.000000 0.6587 0.6583 0.6584 0.6589 0.6593
655.000000 0.6598 0.6603 0.6604 0.6605 0.6601
650.000000 0.6597 0.6592 0.6586 0.6582 0.6575
645.000000 0.6569 0.6564 0.6558 0.6551 0.6546
640.000000 0.6537 0.6518 0.6501 0.6486 0.6465
635.000000 0.6441 0.6418 0.6399 0.6384 0.6370
630.000000 0.6375 0.6379 0.6379 0.6373 0.6362
##END=
