##TITLE=2-BUTANONE
##JCAMP-DX=4.24
##DATA TYPE=INFRARED SPECTRUM
##CLASS=COBLENTZ
##ORIGIN=DOW CHEMICAL COMPANY
##OWNER=COBLENTZ SOCIETY
Collection (C) 2018 copyright by the U.S. Secretary of Commerce
on behalf of the United States of America. All rights reserved.
##DATE=1979/03/15
##NAMES=METHYL ETHYL KETONE
##CAS REGISTRY NO=78-93-3
##MOLFORM=C4 H8 O
##SOURCE REFERENCE=COBLENTZ NO. 10505
##$NIST SOURCE=COBLENTZ
##$NIST IMAGE=cob-r10505
##SPECTROMETER/DATA SYSTEM=BECKMAN IR-9 (GRATING)
##INSTRUMENT PARAMETERS=ORDER CHANGES: 670, 1200, 2000 CM^-^1
$$ SPECTRAL FEATURE AT 670 CM^-^1 IS AN ARTIFACT CAUSED BY CHANGE IN GRATING.
##STATE=GAS (23 mmHg, N2 ADDED, TOTAL PRESSURE 600 mmHg)
##PATH LENGTH=10 CM
##SAMPLING PROCEDURE=TRANSMISSION
##RESOLUTION=2
##DATA PROCESSING=DIGITIZED BY NIST FROM HARD COPY (FROM TWO SEGMENTS)
##XUNITS=1/CM
##YUNITS=TRANSMITTANCE
##XFACTOR=1.000000
##YFACTOR=1
##DELTAX=1.404744
##FIRSTX=196.313
##LASTX=3987.72
##FIRSTY=0.005
##MAXX=3987.72
##MINX=196.313
##MAXY=0.945
##MINY=0
##NPOINTS=2700
##XYDATA=(X++(Y..Y))
196.313000 0.0050 0.0050 0.0000 0.0000 0.0000
203.336720 0.0000 0.0000 0.0000 0.0000 0.0000
210.360440 0.0000 0.0000 0.0000 0.0000 0.0000
217.384161 0.0000 0.0000 0.0000 0.0000 0.0000
224.407881 0.0000 0.0000 0.0000 0.0000 0.0000
231.431601 0.0000 0.0000 0.0000 0.0000 0.0000
238.455321 0.0000 0.0000 0.0000 0.0000 0.0000
245.479041 0.0000 0.0000 0.0000 0.0000 0.0000
252.502761 0.0000 0.0000 0.0010 0.0010 0.0030
259.526482 0.0000 0.0000 0.0000 0.0000 0.0000
266.550202 0.0000 0.0000 0.0000 0.0000 0.0000
273.573922 0.0000 0.0000 0.0000 0.0000 0.0010
280.597642 0.0010 0.0010 0.0070 0.0090 0.0050
287.621362 0.0000 0.0000 0.0000 0.0010 0.0010
294.645083 0.0030 0.0050 0.0050 0.0070 0.0070
301.668803 0.0090 0.0110 0.0110 0.0130 0.0140
308.692523 0.0160 0.0180 0.0220 0.0260 0.0280
315.716243 0.0290 0.0310 0.0310 0.0330 0.0350
322.739963 0.0370 0.0410 0.0430 0.0460 0.0480
329.763684 0.0520 0.0560 0.0610 0.0690 0.0730
336.787404 0.0800 0.0860 0.0970 0.1010 0.1080
343.811124 0.1170 0.1250 0.1320 0.1419 0.1490
350.834844 0.1570 0.1700 0.1830 0.1890 0.1980
357.858564 0.2050 0.2170 0.2240 0.2369 0.2499
364.882284 0.2560 0.2650 0.2790 0.2900 0.2990
371.906005 0.3080 0.3180 0.3250 0.3310 0.3459
378.929725 0.3500 0.3570 0.3680 0.3780 0.3850
385.953445 0.3970 0.3980 0.4060 0.4130 0.4190
392.977165 0.4250 0.4300 0.4380 0.4450 0.4470
400.000885 0.4550 0.4709 0.4829 0.4880 0.4979
407.024606 0.5050 0.5140 0.5200 0.5310 0.5430
414.048326 0.5500 0.5590 0.5729 0.5839 0.5989
421.072046 0.6080 0.6190 0.6310 0.6470 0.6510
428.095766 0.6610 0.6700 0.6770 0.6830 0.6919
435.119486 0.7000 0.7050 0.7130 0.7200 0.7260
442.143206 0.7320 0.7390 0.7430 0.7470 0.7500
449.166927 0.7540 0.7600 0.7620 0.7670 0.7690
456.190647 0.7730 0.7770 0.7790 0.7820 0.7860
463.214367 0.7900 0.7940 0.7950 0.7990 0.8010
470.238087 0.8050 0.8070 0.8080 0.8100 0.8120
477.261807 0.8140 0.8160 0.8180 0.8200 0.8220
484.285528 0.8220 0.8230 0.8230 0.8230 0.8250
491.309248 0.8310 0.8310 0.8220 0.8120 0.8080
498.332968 0.8080 0.8030 0.7970 0.7970 0.7900
505.356688 0.7880 0.7860 0.7860 0.7860 0.7880
512.380408 0.7880 0.7900 0.7900 0.7900 0.7920
519.404129 0.7920 0.7920 0.7920 0.7900 0.7900
526.427849 0.7900 0.7900 0.7920 0.7940 0.7970
533.451569 0.7970 0.7990 0.8030 0.8070 0.8100
540.475289 0.8160 0.8200 0.8230 0.8290 0.8330
547.499009 0.8370 0.8400 0.8420 0.8480 0.8500
554.522729 0.8520 0.8530 0.8530 0.8530 0.8520
561.546450 0.8500 0.8460 0.8420 0.8370 0.8270
568.570170 0.8220 0.8120 0.7991 0.7821 0.7750
575.593890 0.7620 0.7500 0.7450 0.7350 0.7300
582.617610 0.7280 0.7260 0.7260 0.7260 0.7260
589.641330 0.7280 0.7300 0.7320 0.7340 0.7370
596.665051 0.7430 0.7490 0.7520 0.7669 0.7799
603.688771 0.7950 0.7990 0.8080 0.8200 0.8270
610.712491 0.8370 0.8420 0.8500 0.8530 0.8570
617.736211 0.8590 0.8610 0.8630 0.8650 0.8650
624.759931 0.8650 0.8670 0.8670 0.8680 0.8680
631.783651 0.8680 0.8680 0.8680 0.8700 0.8700
638.807372 0.8720 0.8740 0.8760 0.8780 0.8780
645.831092 0.8740 0.8720 0.8680 0.8670 0.8720
652.854812 0.8969 0.9040 0.9040 0.9060 0.9060
659.878532 0.9020 0.9020 0.9020 0.9020 0.9080
666.902252 0.9190 0.9001 0.9000 0.9000 0.9080
673.925973 0.9100 0.9110 0.9130 0.9130 0.9150
680.949693 0.9150 0.9150 0.9170 0.9170 0.9170
687.973413 0.9170 0.9170 0.9190 0.9190 0.9190
694.997133 0.9190 0.9190 0.9190 0.9190 0.9190
702.020853 0.9190 0.9190 0.9190 0.9190 0.9190
709.044574 0.9190 0.9190 0.9190 0.9190 0.9210
716.068294 0.9210 0.9230 0.9230 0.9230 0.9210
723.092014 0.9190 0.9170 0.9170 0.9150 0.9110
730.115734 0.9100 0.9080 0.9020 0.9000 0.8980
737.139454 0.8970 0.8870 0.8820 0.8760 0.8700
744.163174 0.8650 0.8570 0.8530 0.8500 0.8380
751.186895 0.8270 0.8051 0.8010 0.8030 0.8100
758.210615 0.8160 0.8200 0.8220 0.8220 0.8220
765.234335 0.8230 0.8230 0.8270 0.8330 0.8380
772.258055 0.8480 0.8570 0.8680 0.8780 0.8850
779.281775 0.8980 0.9000 0.9040 0.9080 0.9110
786.305496 0.9130 0.9150 0.9170 0.9190 0.9190
793.329216 0.9210 0.9210 0.9210 0.9210 0.9210
800.352936 0.9230 0.9230 0.9230 0.9250 0.9250
807.376656 0.9250 0.9250 0.9260 0.9260 0.9260
814.400376 0.9260 0.9280 0.9280 0.9280 0.9280
821.424096 0.9280 0.9260 0.9260 0.9280 0.9280
828.447817 0.9280 0.9260 0.9260 0.9260 0.9260
835.471537 0.9260 0.9260 0.9280 0.9280 0.9280
842.495257 0.9280 0.9280 0.9300 0.9300 0.9300
849.518977 0.9300 0.9280 0.9280 0.9280 0.9280
856.542697 0.9280 0.9280 0.9280 0.9260 0.9260
863.566418 0.9260 0.9260 0.9250 0.9250 0.9250
870.590138 0.9250 0.9230 0.9230 0.9230 0.9230
877.613858 0.9230 0.9210 0.9210 0.9210 0.9210
884.637578 0.9190 0.9170 0.9170 0.9170 0.9170
891.661298 0.9170 0.9150 0.9130 0.9110 0.9110
898.685019 0.9100 0.9080 0.9060 0.9040 0.9000
905.708739 0.8980 0.8970 0.8950 0.8870 0.8820
912.732459 0.8780 0.8720 0.8650 0.8570 0.8520
919.756179 0.8420 0.8370 0.8270 0.8180 0.8081
926.779899 0.7990 0.7900 0.7790 0.7670 0.7600
933.803619 0.7490 0.7350 0.7240 0.7150 0.7021
940.827340 0.6980 0.6910 0.6870 0.6790 0.6760
947.851060 0.6760 0.6770 0.6770 0.6790 0.6790
954.874780 0.6790 0.6830 0.6940 0.6980 0.7090
961.898500 0.7170 0.7280 0.7409 0.7500 0.7649
968.922220 0.7770 0.7860 0.7950 0.8010 0.8080
975.945941 0.8120 0.8180 0.8220 0.8230 0.8250
982.969661 0.8270 0.8290 0.8310 0.8310 0.8330
989.993381 0.8350 0.8350 0.8370 0.8380 0.8380
997.017101 0.8400 0.8420 0.8440 0.8460 0.8480
1004.040821 0.8500 0.8520 0.8530 0.8530 0.8570
1011.064541 0.8630 0.8670 0.8700 0.8740 0.8760
1018.088262 0.8800 0.8800 0.8830 0.8850 0.8850
1025.111982 0.8870 0.8890 0.8910 0.8910 0.8930
1032.135702 0.8970 0.8970 0.8970 0.8970 0.8980
1039.159422 0.8980 0.8980 0.8980 0.8980 0.8980
1046.183142 0.8970 0.8970 0.8970 0.8970 0.8950
1053.206863 0.8930 0.8910 0.8890 0.8870 0.8850
1060.230583 0.8830 0.8820 0.8780 0.8760 0.8720
1067.254303 0.8680 0.8650 0.8590 0.8570 0.8530
1074.278023 0.8500 0.8460 0.8380 0.8310 0.8250
1081.301743 0.8200 0.8140 0.8070 0.8050 0.8070
1088.325464 0.8100 0.8180 0.8250 0.8290 0.8290
1095.349184 0.8270 0.8250 0.8250 0.8270 0.8290
1102.372904 0.8330 0.8380 0.8440 0.8520 0.8520
1109.396624 0.8530 0.8530 0.8550 0.8570 0.8590
1116.420344 0.8590 0.8610 0.8610 0.8590 0.8570
1123.444064 0.8570 0.8570 0.8550 0.8530 0.8500
1130.467785 0.8480 0.8460 0.8400 0.8370 0.8330
1137.491505 0.8270 0.8180 0.8100 0.8010 0.7880
1144.515225 0.7730 0.7501 0.7370 0.7022 0.6741
1151.538945 0.6548 0.5819 0.5390 0.4880 0.4490
1158.562665 0.4081 0.3821 0.3591 0.3291 0.3121
1165.586386 0.2950 0.2710 0.2470 0.2240 0.2090
1172.610106 0.2090 0.2070 0.2040 0.1980 0.1960
1179.633826 0.1980 0.2020 0.2070 0.2280 0.2520
1186.657546 0.2879 0.3070 0.3200 0.3439 0.3679
1193.681266 0.3971 0.4300 0.4550 0.4850 0.5030
1200.704986 0.5259 0.5479 0.5948 0.6159 0.6269
1207.728707 0.6400 0.6530 0.6620 0.6760 0.6890
1214.752427 0.7000 0.7110 0.7220 0.7369 0.7519
1221.776147 0.7670 0.7820 0.7990 0.8050 0.8180
1228.799867 0.8230 0.8290 0.8330 0.8370 0.8400
1235.823587 0.8460 0.8480 0.8500 0.8500 0.8500
1242.847308 0.8480 0.8480 0.8460 0.8440 0.8420
1249.871028 0.8400 0.8380 0.8370 0.8370 0.8350
1256.894748 0.8350 0.8350 0.8350 0.8350 0.8370
1263.918468 0.8370 0.8370 0.8380 0.8380 0.8400
1270.942188 0.8420 0.8420 0.8460 0.8480 0.8500
1277.965909 0.8520 0.8550 0.8570 0.8590 0.8610
1284.989629 0.8650 0.8670 0.8680 0.8680 0.8680
1292.013349 0.8670 0.8650 0.8610 0.8590 0.8570
1299.037069 0.8530 0.8500 0.8460 0.8380 0.8350
1306.060789 0.8290 0.8250 0.8180 0.8100 0.8070
1313.084509 0.8010 0.7950 0.7860 0.7800 0.7730
1320.108230 0.7670 0.7580 0.7520 0.7450 0.7350
1327.131950 0.7260 0.7190 0.7090 0.7000 0.6831
1334.155670 0.6770 0.6640 0.6490 0.6380 0.6290
1341.179390 0.6100 0.5950 0.5781 0.5561 0.5391
1348.203110 0.5279 0.5029 0.4510 0.4060 0.3830
1355.226831 0.3481 0.3201 0.2971 0.2582 0.2560
1362.250551 0.2580 0.2580 0.2540 0.2500 0.2260
1369.274271 0.2090 0.2469 0.2500 0.2500 0.2341
1376.297991 0.2340 0.2350 0.2470 0.2690 0.3140
1383.321711 0.3549 0.4019 0.4469 0.5107 0.5558
1390.345431 0.5950 0.6100 0.6170 0.6190 0.6230
1397.369152 0.6270 0.6320 0.6400 0.6470 0.6550
1404.392872 0.6550 0.6530 0.6490 0.6470 0.6400
1411.416592 0.6290 0.6190 0.6100 0.5990 0.5890
1418.440312 0.5820 0.5710 0.5710 0.5760 0.5860
1425.464032 0.5880 0.5860 0.5840 0.5710 0.5581
1432.487753 0.5440 0.5390 0.5430 0.5460 0.5500
1439.511473 0.5560 0.5630 0.5670 0.5690 0.5710
1446.535193 0.5710 0.5710 0.5690 0.5690 0.5740
1453.558913 0.5740 0.5710 0.5590 0.5311 0.4982
1460.582633 0.4790 0.4881 0.5180 0.5480 0.5520
1467.606354 0.5760 0.5970 0.5930 0.5890 0.5890
1474.630074 0.5910 0.5910 0.5970 0.5990 0.6080
1481.653794 0.6190 0.6380 0.6589 0.6769 0.6979
1488.677514 0.7170 0.7300 0.7450 0.7560 0.7690
1495.701234 0.7800 0.7900 0.7970 0.7970 0.8010
1502.724954 0.8080 0.8180 0.8220 0.8220 0.8160
1509.748675 0.8120 0.8120 0.8180 0.8220 0.8250
1516.772395 0.8250 0.8270 0.8250 0.8230 0.8220
1523.796115 0.8200 0.8200 0.8220 0.8230 0.8270
1530.819835 0.8290 0.8290 0.8310 0.8330 0.8350
1537.843555 0.8370 0.8400 0.8400 0.8370 0.8350
1544.867276 0.8370 0.8400 0.8460 0.8480 0.8520
1551.890996 0.8530 0.8550 0.8590 0.8590 0.8610
1558.914716 0.8590 0.8570 0.8520 0.8500 0.8520
1565.938436 0.8590 0.8670 0.8670 0.8680 0.8700
1572.962156 0.8720 0.8740 0.8760 0.8760 0.8740
1579.985877 0.8700 0.8700 0.8760 0.8780 0.8800
1587.009597 0.8800 0.8820 0.8820 0.8820 0.8830
1594.033317 0.8830 0.8850 0.8850 0.8870 0.8870
1601.057037 0.8890 0.8890 0.8910 0.8930 0.8930
1608.080757 0.8930 0.8930 0.8970 0.8970 0.8970
1615.104477 0.8970 0.8910 0.8890 0.8870 0.8870
1622.128198 0.8870 0.8890 0.8890 0.8890 0.8890
1629.151918 0.8890 0.8910 0.8970 0.8970 0.8950
1636.175638 0.8950 0.8910 0.8890 0.8850 0.8870
1643.199358 0.8910 0.8950 0.8950 0.8890 0.8870
1650.223078 0.8870 0.8870 0.8850 0.8850 0.8830
1657.246799 0.8820 0.8740 0.8740 0.8830 0.8850
1664.270519 0.8830 0.8820 0.8800 0.8800 0.8800
1671.294239 0.8780 0.8760 0.8720 0.8680 0.8670
1678.317959 0.8650 0.8590 0.8550 0.8550 0.8520
1685.341679 0.8480 0.8400 0.8290 0.8200 0.8120
1692.365399 0.8070 0.8030 0.7970 0.7880 0.7790
1699.389120 0.7670 0.7540 0.7430 0.7200 0.6890
1706.412840 0.6720 0.6530 0.6360 0.6041 0.5691
1713.436560 0.5409 0.4999 0.4510 0.4300 0.3780
1720.460280 0.3331 0.2991 0.2501 0.2131 0.1792
1727.484000 0.1379 0.1100 0.0910 0.0780 0.0590
1734.507721 0.0500 0.0430 0.0410 0.0410 0.0430
1741.531441 0.0520 0.0610 0.0610 0.0540 0.0410
1748.555161 0.0310 0.0310 0.0330 0.0410 0.0539
1755.578881 0.0671 0.0860 0.1040 0.1310 0.1550
1762.602601 0.2069 0.2499 0.2969 0.3329 0.3888
1769.626322 0.4341 0.4831 0.5410 0.5820 0.6310
1776.650042 0.6610 0.6999 0.7259 0.7469 0.7689
1783.673762 0.7900 0.8010 0.8180 0.8310 0.8420
1790.697482 0.8520 0.8570 0.8630 0.8680 0.8720
1797.721202 0.8800 0.8830 0.8870 0.8910 0.8970
1804.744922 0.8970 0.8980 0.8980 0.9000 0.9000
1811.768643 0.9000 0.9020 0.9020 0.9040 0.9060
1818.792363 0.9060 0.9080 0.9060 0.9060 0.9060
1825.816083 0.9060 0.9060 0.9060 0.9060 0.9060
1832.839803 0.9080 0.9100 0.9100 0.9110 0.9100
1839.863523 0.9080 0.9060 0.9040 0.9020 0.9040
1846.887244 0.9060 0.9080 0.9080 0.9080 0.9080
1853.910964 0.9080 0.9080 0.9080 0.9060 0.9060
1860.934684 0.9060 0.9060 0.9060 0.9040 0.9020
1867.958404 0.9020 0.9020 0.9020 0.9020 0.9020
1874.982124 0.9020 0.9020 0.9000 0.9000 0.9000
1882.005844 0.9000 0.9000 0.9000 0.9000 0.9000
1889.029565 0.9000 0.9000 0.9000 0.9000 0.9000
1896.053285 0.9000 0.9000 0.9000 0.9000 0.9020
1903.077005 0.9020 0.9040 0.9040 0.9040 0.9060
1910.100725 0.9060 0.9060 0.9060 0.9060 0.9060
1917.124445 0.9060 0.9060 0.9060 0.9080 0.9080
1924.148166 0.9100 0.9100 0.9100 0.9110 0.9110
1931.171886 0.9110 0.9110 0.9110 0.9110 0.9100
1938.195606 0.9100 0.9100 0.9100 0.9100 0.9100
1945.219326 0.9110 0.9110 0.9110 0.9110 0.9110
1952.243046 0.9110 0.9110 0.9100 0.9100 0.9100
1959.266767 0.9080 0.9080 0.9080 0.9080 0.9080
1966.290487 0.9100 0.9100 0.9110 0.9110 0.9110
1973.314207 0.9110 0.9110 0.9100 0.9100 0.9100
1980.337927 0.9100 0.9100 0.9100 0.9100 0.9100
1987.361647 0.9100 0.9080 0.9060 0.9020 0.9000
1994.385367 0.8980 0.9000 0.9060 0.9080 0.9100
2001.409088 0.9105 0.9110 0.9110 0.9110 0.9110
2008.432808 0.9110 0.9120 0.9130 0.9130 0.9130
2015.456528 0.9130 0.9130 0.9130 0.9130 0.9140
2022.480248 0.9150 0.9150 0.9150 0.9150 0.9150
2029.503968 0.9150 0.9150 0.9150 0.9150 0.9150
2036.527689 0.9150 0.9150 0.9150 0.9150 0.9150
2043.551409 0.9150 0.9150 0.9150 0.9150 0.9150
2050.575129 0.9150 0.9140 0.9130 0.9130 0.9129
2057.598849 0.9119 0.9110 0.9110 0.9110 0.9110
2064.622569 0.9110 0.9110 0.9110 0.9110 0.9110
2071.646289 0.9110 0.9110 0.9110 0.9110 0.9105
2078.670010 0.9099 0.9089 0.9080 0.9080 0.9079
2085.693730 0.9069 0.9060 0.9060 0.9059 0.9049
2092.717450 0.9039 0.9029 0.9019 0.9009 0.9000
2099.741170 0.9000 0.8999 0.8989 0.8980 0.8980
2106.764890 0.8980 0.8980 0.8979 0.8974 0.8970
2113.788611 0.8970 0.8970 0.8970 0.8970 0.8970
2120.812331 0.8971 0.8976 0.8980 0.8980 0.8980
2127.836051 0.8980 0.8981 0.8991 0.9000 0.9000
2134.859771 0.9001 0.9011 0.9020 0.9020 0.9025
2141.883491 0.9055 0.9080 0.9080 0.9082 0.9092
2148.907212 0.9100 0.9100 0.9100 0.9100 0.9100
2155.930932 0.9100 0.9100 0.9100 0.9100 0.9100
2162.954652 0.9100 0.9100 0.9100 0.9100 0.9100
2169.978372 0.9100 0.9100 0.9100 0.9101 0.9106
2177.002092 0.9110 0.9110 0.9110 0.9110 0.9110
2184.025812 0.9110 0.9112 0.9122 0.9130 0.9130
2191.049533 0.9130 0.9130 0.9130 0.9130 0.9132
2198.073253 0.9142 0.9150 0.9150 0.9150 0.9150
2205.096973 0.9150 0.9150 0.9150 0.9150 0.9150
2212.120693 0.9150 0.9150 0.9150 0.9150 0.9150
2219.144413 0.9150 0.9150 0.9150 0.9150 0.9153
2226.168134 0.9163 0.9170 0.9170 0.9173 0.9183
2233.191854 0.9190 0.9190 0.9190 0.9190 0.9190
2240.215574 0.9190 0.9190 0.9190 0.9190 0.9190
2247.239294 0.9187 0.9177 0.9170 0.9170 0.9170
2254.263014 0.9170 0.9170 0.9170 0.9170 0.9170
2261.286734 0.9170 0.9170 0.9170 0.9170 0.9167
2268.310455 0.9157 0.9150 0.9150 0.9144 0.9124
2275.334175 0.9109 0.9104 0.9100 0.9100 0.9097
2282.357895 0.9087 0.9080 0.9080 0.9083 0.9093
2289.381615 0.9100 0.9100 0.9102 0.9107 0.9110
2296.405335 0.9110 0.9113 0.9123 0.9136 0.9156
2303.429056 0.9173 0.9183 0.9193 0.9203 0.9214
2310.452776 0.9224 0.9239 0.9264 0.9287 0.9307
2317.476496 0.9331 0.9361 0.9385 0.9400 0.9414
2324.500216 0.9424 0.9430 0.9430 0.9434 0.9444
2331.523936 0.9450 0.9450 0.9446 0.9436 0.9430
2338.547657 0.9430 0.9430 0.9430 0.9426 0.9416
2345.571377 0.9410 0.9410 0.9410 0.9410 0.9410
2352.595097 0.9410 0.9410 0.9410 0.9408 0.9403
2359.618817 0.9396 0.9386 0.9376 0.9366 0.9352
2366.642537 0.9332 0.9312 0.9292 0.9274 0.9259
2373.666257 0.9242 0.9222 0.9202 0.9182 0.9166
2380.689978 0.9156 0.9142 0.9122 0.9110 0.9110
2387.713698 0.9110 0.9110 0.9110 0.9110 0.9110
2394.737418 0.9110 0.9119 0.9139 0.9150 0.9150
2401.761138 0.9150 0.9150 0.9146 0.9136 0.9130
2408.784858 0.9130 0.9130 0.9130 0.9130 0.9130
2415.808579 0.9130 0.9130 0.9130 0.9130 0.9130
2422.832299 0.9130 0.9130 0.9130 0.9130 0.9130
2429.856019 0.9135 0.9145 0.9150 0.9150 0.9150
2436.879739 0.9150 0.9155 0.9165 0.9170 0.9170
2443.903459 0.9165 0.9155 0.9150 0.9150 0.9150
2450.927179 0.9150 0.9150 0.9150 0.9150 0.9150
2457.950900 0.9150 0.9150 0.9150 0.9150 0.9145
2464.974620 0.9135 0.9130 0.9130 0.9130 0.9130
2471.998340 0.9135 0.9145 0.9150 0.9150 0.9150
2479.022060 0.9150 0.9155 0.9165 0.9170 0.9170
2486.045780 0.9165 0.9155 0.9150 0.9150 0.9150
2493.069501 0.9150 0.9150 0.9150 0.9150 0.9150
2500.093221 0.9145 0.9135 0.9130 0.9130 0.9124
2507.116941 0.9114 0.9107 0.9102 0.9100 0.9100
2514.140661 0.9100 0.9100 0.9100 0.9100 0.9100
2521.164381 0.9100 0.9100 0.9100 0.9100 0.9100
2528.188102 0.9100 0.9100 0.9103 0.9108 0.9110
2535.211822 0.9110 0.9116 0.9126 0.9130 0.9130
2542.235542 0.9130 0.9130 0.9130 0.9130 0.9130
2549.259262 0.9130 0.9130 0.9130 0.9130 0.9130
2556.282982 0.9130 0.9130 0.9136 0.9146 0.9150
2563.306702 0.9150 0.9150 0.9150 0.9150 0.9150
2570.330423 0.9150 0.9150 0.9156 0.9166 0.9170
2577.354143 0.9170 0.9170 0.9170 0.9170 0.9170
2584.377863 0.9170 0.9170 0.9164 0.9153 0.9150
2591.401583 0.9150 0.9150 0.9150 0.9137 0.9117
2598.425303 0.9110 0.9110 0.9117 0.9127 0.9130
2605.449024 0.9130 0.9130 0.9130 0.9137 0.9147
2612.472744 0.9150 0.9150 0.9157 0.9167 0.9170
2619.496464 0.9170 0.9170 0.9170 0.9170 0.9170
2626.520184 0.9170 0.9170 0.9170 0.9170 0.9163
2633.543904 0.9153 0.9150 0.9150 0.9150 0.9150
2640.567624 0.9150 0.9150 0.9150 0.9150 0.9150
2647.591345 0.9150 0.9150 0.9150 0.9150 0.9150
2654.615065 0.9143 0.9133 0.9123 0.9113 0.9110
2661.638785 0.9110 0.9106 0.9101 0.9093 0.9083
2668.662505 0.9080 0.9080 0.9080 0.9080 0.9080
2675.686225 0.9080 0.9080 0.9080 0.9080 0.9080
2682.709946 0.9080 0.9080 0.9080 0.9080 0.9080
2689.733666 0.9080 0.9088 0.9098 0.9100 0.9100
2696.757386 0.9100 0.9100 0.9100 0.9100 0.9100
2703.781106 0.9100 0.9100 0.9100 0.9100 0.9100
2710.804826 0.9092 0.9082 0.9080 0.9080 0.9080
2717.828547 0.9080 0.9072 0.9062 0.9060 0.9060
2724.852267 0.9060 0.9060 0.9060 0.9060 0.9052
2731.875987 0.9042 0.9032 0.9022 0.9020 0.9020
2738.899707 0.9003 0.8983 0.8980 0.8980 0.8976
2745.923427 0.8971 0.8970 0.8970 0.8970 0.8970
2752.947147 0.8970 0.8970 0.8970 0.8970 0.8974
2759.970868 0.8979 0.8980 0.8980 0.8989 0.8999
2766.994588 0.9000 0.9000 0.9000 0.9000 0.9000
2774.018308 0.9000 0.8991 0.8981 0.8980 0.8980
2781.042028 0.8976 0.8971 0.8970 0.8970 0.8943
2788.065748 0.8913 0.8892 0.8872 0.8861 0.8851
2795.089469 0.8837 0.8822 0.8802 0.8782 0.8762
2802.113189 0.8742 0.8709 0.8674 0.8643 0.8613
2809.136909 0.8592 0.8572 0.8547 0.8522 0.8502
2816.160629 0.8482 0.8462 0.8442 0.8422 0.8402
2823.184349 0.8391 0.8381 0.8366 0.8351 0.8322
2830.208069 0.8292 0.8272 0.8252 0.8236 0.8221
2837.231790 0.8211 0.8201 0.8191 0.8180 0.8170
2844.255510 0.8160 0.8141 0.8121 0.8110 0.8100
2851.279230 0.8086 0.8071 0.8041 0.8011 0.7991
2858.302950 0.7971 0.7937 0.7902 0.7871 0.7841
2865.326670 0.7821 0.7801 0.7756 0.7711 0.7666
2872.350391 0.7621 0.7507 0.7392 0.7233 0.7073
2879.374111 0.6834 0.6594 0.6457 0.6322 0.6222
2886.397831 0.6122 0.6036 0.5951 0.5812 0.5672
2893.421551 0.5483 0.5293 0.5180 0.5067 0.4887
2900.445271 0.4709 0.4654 0.4599 0.4564 0.4530
2907.468992 0.4510 0.4489 0.4444 0.4397 0.4187
2914.492712 0.3979 0.3904 0.3830 0.3850 0.3871
2921.516432 0.3936 0.4002 0.4144 0.4282 0.4332
2928.540152 0.4380 0.4380 0.4378 0.4338 0.4292
2935.563872 0.4132 0.3976 0.3896 0.3820 0.3825
2942.587592 0.3832 0.3872 0.3912 0.3947 0.3980
2949.611313 0.3990 0.4000 0.4000 0.3999 0.3989
2956.635033 0.3974 0.3899 0.3830 0.3825 0.3819
2963.658753 0.3809 0.3797 0.3757 0.3708 0.3558
2970.682473 0.3405 0.3220 0.3048 0.3018 0.2988
2977.706193 0.2963 0.2938 0.2918 0.2898 0.2878
2984.729914 0.2858 0.2838 0.2791 0.2531 0.2300
2991.753634 0.2300 0.2325 0.2550 0.2777 0.3017
2998.777354 0.3263 0.3558 0.3857 0.4192 0.4505
3005.801074 0.4635 0.4771 0.4953 0.5145 0.5395
3012.824794 0.5637 0.5827 0.6018 0.6213 0.6397
3019.848514 0.6517 0.6641 0.6791 0.6941 0.7091
3026.872235 0.7239 0.7374 0.7503 0.7593 0.7681
3033.895955 0.7756 0.7829 0.7890 0.7944 0.7969
3040.919675 0.7992 0.8002 0.8013 0.8033 0.8052
3047.943395 0.8062 0.8073 0.8088 0.8103 0.8123
3054.967115 0.8143 0.8163 0.8182 0.8192 0.8204
3061.990836 0.8229 0.8252 0.8262 0.8274 0.8294
3069.014556 0.8316 0.8346 0.8375 0.8400 0.8426
3076.038276 0.8456 0.8484 0.8504 0.8525 0.8550
3083.061996 0.8574 0.8594 0.8614 0.8634 0.8653
3090.085716 0.8668 0.8684 0.8704 0.8725 0.8745
3097.109437 0.8765 0.8785 0.8802 0.8812 0.8820
3104.133157 0.8820 0.8821 0.8826 0.8835 0.8855
3111.156877 0.8872 0.8882 0.8895 0.8915 0.8932
3118.180597 0.8942 0.8952 0.8963 0.8970 0.8970
3125.204317 0.8970 0.8970 0.8971 0.8976 0.8980
3132.228037 0.8980 0.8980 0.8980 0.8980 0.8980
3139.251758 0.8980 0.8980 0.8980 0.8980 0.8980
3146.275478 0.8980 0.8980 0.8980 0.8980 0.8980
3153.299198 0.8979 0.8974 0.8970 0.8970 0.8970
3160.322918 0.8970 0.8970 0.8970 0.8964 0.8944
3167.346638 0.8930 0.8930 0.8927 0.8917 0.8910
3174.370359 0.8910 0.8913 0.8923 0.8937 0.8957
3181.394079 0.8970 0.8970 0.8970 0.8970 0.8972
3188.417799 0.8977 0.8980 0.8980 0.8980 0.8980
3195.441519 0.8987 0.9007 0.9023 0.9033 0.9043
3202.465239 0.9053 0.9060 0.9060 0.9060 0.9060
3209.488959 0.9060 0.9060 0.9060 0.9060 0.9060
3216.512680 0.9060 0.9060 0.9060 0.9060 0.9060
3223.536400 0.9056 0.9046 0.9040 0.9040 0.9040
3230.560120 0.9040 0.9040 0.9040 0.9040 0.9040
3237.583840 0.9044 0.9054 0.9060 0.9060 0.9060
3244.607560 0.9060 0.9060 0.9060 0.9060 0.9060
3251.631281 0.9064 0.9074 0.9080 0.9080 0.9080
3258.655001 0.9080 0.9084 0.9094 0.9100 0.9100
3265.678721 0.9100 0.9100 0.9102 0.9107 0.9110
3272.702441 0.9110 0.9110 0.9110 0.9110 0.9110
3279.726161 0.9110 0.9110 0.9110 0.9110 0.9108
3286.749882 0.9103 0.9100 0.9100 0.9100 0.9100
3293.773602 0.9100 0.9100 0.9095 0.9085 0.9080
3300.797322 0.9080 0.9080 0.9080 0.9080 0.9080
3307.821042 0.9080 0.9080 0.9080 0.9080 0.9080
3314.844762 0.9080 0.9085 0.9095 0.9100 0.9100
3321.868482 0.9100 0.9100 0.9100 0.9100 0.9100
3328.892203 0.9100 0.9100 0.9100 0.9100 0.9100
3335.915923 0.9095 0.9085 0.9080 0.9080 0.9080
3342.939643 0.9080 0.9080 0.9080 0.9075 0.9065
3349.963363 0.9060 0.9060 0.9060 0.9060 0.9055
3356.987083 0.9045 0.9040 0.9040 0.9040 0.9040
3364.010804 0.9040 0.9040 0.9035 0.9025 0.9020
3371.034524 0.9020 0.9020 0.9020 0.9020 0.9020
3378.058244 0.9020 0.9020 0.9020 0.9020 0.9020
3385.081964 0.9020 0.9014 0.9004 0.9000 0.9000
3392.105684 0.9000 0.9000 0.9000 0.9000 0.9000
3399.129404 0.9000 0.8994 0.8984 0.8980 0.8980
3406.153125 0.8977 0.8972 0.8964 0.8954 0.8950
3413.176845 0.8950 0.8944 0.8934 0.8924 0.8914
3420.200565 0.8892 0.8862 0.8841 0.8826 0.8808
3427.224285 0.8788 0.8768 0.8748 0.8722 0.8692
3434.248005 0.8658 0.8623 0.8598 0.8578 0.8548
3441.271726 0.8513 0.8482 0.8452 0.8434 0.8424
3448.295446 0.8414 0.8404 0.8400 0.8400 0.8406
3455.319166 0.8416 0.8420 0.8420 0.8433 0.8453
3462.342886 0.8466 0.8476 0.8486 0.8496 0.8529
3469.366606 0.8574 0.8619 0.8664 0.8706 0.8746
3476.390327 0.8779 0.8809 0.8843 0.8878 0.8909
3483.414047 0.8939 0.8960 0.8975 0.8980 0.8980
3490.437767 0.8980 0.8980 0.8987 0.8997 0.9000
3497.461487 0.9000 0.9000 0.9000 0.9007 0.9017
3504.485207 0.9020 0.9020 0.9020 0.9020 0.9020
3511.508927 0.9020 0.9027 0.9037 0.9040 0.9040
3518.532648 0.9040 0.9040 0.9040 0.9040 0.9047
3525.556368 0.9057 0.9060 0.9060 0.9060 0.9060
3532.580088 0.9067 0.9077 0.9080 0.9080 0.9080
3539.603808 0.9080 0.9080 0.9080 0.9080 0.9080
3546.627528 0.9080 0.9080 0.9080 0.9080 0.9080
3553.651249 0.9080 0.9073 0.9063 0.9060 0.9060
3560.674969 0.9053 0.9043 0.9040 0.9040 0.9040
3567.698689 0.9040 0.9048 0.9058 0.9060 0.9060
3574.722409 0.9060 0.9060 0.9068 0.9078 0.9080
3581.746129 0.9080 0.9080 0.9080 0.9088 0.9098
3588.769849 0.9100 0.9100 0.9100 0.9100 0.9100
3595.793570 0.9100 0.9100 0.9100 0.9092 0.9082
3602.817290 0.9072 0.9062 0.9060 0.9060 0.9068
3609.841010 0.9078 0.9080 0.9080 0.9088 0.9098
3616.864730 0.9100 0.9100 0.9100 0.9100 0.9100
3623.888450 0.9100 0.9100 0.9100 0.9100 0.9100
3630.912171 0.9100 0.9100 0.9100 0.9100 0.9092
3637.935891 0.9082 0.9072 0.9062 0.9035 0.9005
3644.959611 0.9008 0.9018 0.9028 0.9038 0.9048
3651.983331 0.9058 0.9060 0.9060 0.9069 0.9079
3659.007051 0.9063 0.9043 0.9023 0.9003 0.9000
3666.030772 0.9000 0.9009 0.9019 0.9029 0.9039
3673.054492 0.9049 0.9059 0.9060 0.9060 0.9069
3680.078212 0.9079 0.9080 0.9080 0.9080 0.9080
3687.101932 0.9080 0.9080 0.9080 0.9080 0.9089
3694.125652 0.9099 0.9105 0.9110 0.9105 0.9101
3701.149372 0.9091 0.9081 0.9080 0.9080 0.9080
3708.173093 0.9080 0.9080 0.9080 0.9089 0.9099
3715.196813 0.9105 0.9110 0.9110 0.9110 0.9105
3722.220533 0.9100 0.9100 0.9100 0.9091 0.9081
3729.244253 0.9080 0.9080 0.9071 0.9061 0.9060
3736.267973 0.9060 0.9051 0.9040 0.9021 0.9001
3743.291694 0.8990 0.8980 0.8980 0.8980 0.8990
3750.315414 0.9000 0.9000 0.9000 0.9019 0.9039
3757.339134 0.9050 0.9060 0.9060 0.9060 0.9070
3764.362854 0.9080 0.9080 0.9080 0.9080 0.9080
3771.386574 0.9080 0.9080 0.9080 0.9080 0.9080
3778.410294 0.9080 0.9080 0.9080 0.9080 0.9080
3785.434015 0.9080 0.9080 0.9080 0.9080 0.9080
3792.457735 0.9080 0.9080 0.9080 0.9080 0.9080
3799.481455 0.9080 0.9080 0.9070 0.9060 0.9050
3806.505175 0.9040 0.9030 0.9020 0.9020 0.9020
3813.528895 0.9010 0.9000 0.9000 0.9000 0.9010
3820.552616 0.9020 0.9020 0.9021 0.9031 0.9040
3827.576336 0.9040 0.9040 0.9040 0.9039 0.9029
3834.600056 0.9019 0.9009 0.9000 0.9000 0.9000
3841.623776 0.9000 0.9001 0.9021 0.9040 0.9040
3848.647496 0.9039 0.9019 0.8999 0.8989 0.8980
3855.671217 0.8980 0.8980 0.8980 0.8981 0.8991
3862.694937 0.9000 0.9000 0.9000 0.9000 0.9000
3869.718657 0.9000 0.9001 0.9011 0.9020 0.9020
3876.742377 0.9019 0.9009 0.9000 0.9000 0.9000
3883.766097 0.9000 0.9000 0.9000 0.9000 0.9000
3890.789817 0.9000 0.9000 0.9001 0.9011 0.9020
3897.813538 0.9020 0.9021 0.9031 0.9040 0.9040
3904.837258 0.9040 0.9040 0.9042 0.9052 0.9060
3911.860978 0.9060 0.9060 0.9060 0.9060 0.9060
3918.884698 0.9060 0.9060 0.9058 0.9048 0.9040
3925.908418 0.9040 0.9040 0.9040 0.9040 0.9040
3932.932139 0.9040 0.9040 0.9040 0.9040 0.9040
3939.955859 0.9040 0.9040 0.9040 0.9040 0.9040
3946.979579 0.9038 0.9028 0.9020 0.9020 0.9020
3954.003299 0.9020 0.9020 0.9020 0.9020 0.9020
3961.027019 0.9020 0.9020 0.9022 0.9032 0.9038
3968.050740 0.9028 0.9018 0.9008 0.9000 0.9000
3975.074460 0.9000 0.9000 0.9000 0.9000 0.8998
3982.098180 0.8988 0.8980 0.8980 0.8979 0.8974
##END=
