##TITLE=2-PROPENOIC ACID
##JCAMP-DX=4.24
##DATA TYPE=INFRARED SPECTRUM
##CLASS=COBLENTZ III
##ORIGIN=DOW CORNING CORP.
##OWNER=COBLENTZ SOCIETY
Collection (C) 2018 copyright by the U.S. Secretary of Commerce
on behalf of the United States of America. All rights reserved.
##DATE=Not specified, most likely prior to 1970
##NAMES=acrylic acid
ACRYLIC ACID
##CAS REGISTRY NO=79-10-7
##MOLFORM=C3 H4 O2
##SOURCE REFERENCE=COBLENTZ NO. 4287
##$NIST SOURCE=COBLENTZ
##$NIST IMAGE=cob4287
##SPECTROMETER/DATA SYSTEM=PERKIN-ELMER 521 (GRATING)
##INSTRUMENT PARAMETERS=FILTERS AT 3150, 2500, 2000, 1150, 700, 410; GRATING CHANGES AT 2000, 630 CM^-^1
##STATE=SOLUTION (5% IN CCl4 FOR 3800-1300, 5% IN CS2 FOR 1300-650, AND 5% IN CCl4 FOR 650-240 CM^-^1) VERSUS SOLVENT
##PATH LENGTH=0.010, 0.010, AND 0.019 CM (CsBr CELL)
##SAMPLING PROCEDURE=TRANSMISSION
##RESOLUTION=4
##DATA PROCESSING=DIGITIZED BY NIST FROM HARD COPY (FROM TWO SEGMENTS)
##XUNITS=1/CM
##YUNITS=TRANSMITTANCE
##XFACTOR=1.000000
##YFACTOR=1
##DELTAX=1.019108
##FIRSTX=226.752
##LASTX=3809.94
##FIRSTY=0.899
##MAXX=3809.94
##MINX=226.752
##MAXY=0.94
##MINY=0.001
##NPOINTS=3517
##XYDATA=(X++(Y..Y))
226.752000 0.8990 0.8990 0.8990 0.8990 0.8990
231.847540 0.9000 0.9000 0.9000 0.9020 0.9020
236.943080 0.9020 0.9020 0.9020 0.9000 0.9000
242.038621 0.8990 0.8990 0.8990 0.8970 0.8960
247.134161 0.8960 0.8960 0.8950 0.8920 0.8910
252.229701 0.8880 0.8860 0.8850 0.8820 0.8800
257.325241 0.8780 0.8770 0.8750 0.8740 0.8740
262.420782 0.8740 0.8730 0.8730 0.8730 0.8730
267.516322 0.8730 0.8730 0.8730 0.8710 0.8710
272.611862 0.8710 0.8700 0.8700 0.8680 0.8670
277.707402 0.8660 0.8640 0.8630 0.8620 0.8620
282.802943 0.8600 0.8600 0.8620 0.8620 0.8630
287.898483 0.8630 0.8630 0.8630 0.8620 0.8600
292.994023 0.8600 0.8590 0.8570 0.8560 0.8550
298.089563 0.8510 0.8480 0.8450 0.8440 0.8420
303.185103 0.8410 0.8340 0.8260 0.8160 0.8090
308.280644 0.8020 0.7950 0.7900 0.7830 0.7770
313.376184 0.7710 0.7550 0.7440 0.7330 0.7240
318.471724 0.7130 0.7030 0.6850 0.6670 0.6380
323.567264 0.5682 0.5510 0.5331 0.4991 0.4890
328.662805 0.4490 0.4300 0.4130 0.3950 0.3870
333.758345 0.3660 0.3550 0.3540 0.3570 0.3680
338.853885 0.3790 0.4010 0.4170 0.4240 0.4479
343.949425 0.4709 0.4929 0.5687 0.6516 0.6530
349.044966 0.6680 0.7100 0.7110 0.7260 0.7420
354.140506 0.7570 0.7869 0.7870 0.7999 0.8119
359.236046 0.8270 0.8300 0.8330 0.8340 0.8510
364.331586 0.8530 0.8699 0.8740 0.8800 0.8810
369.427126 0.8850 0.8860 0.8880 0.8880 0.8910
374.522667 0.8930 0.8950 0.8950 0.8960 0.8960
379.618207 0.8960 0.8960 0.8950 0.8950 0.8950
384.713747 0.8970 0.9000 0.9030 0.9060 0.9070
389.809287 0.9080 0.9100 0.9100 0.9110 0.9130
394.904828 0.9140 0.9140 0.9150 0.9150 0.9170
400.000368 0.9170 0.9180 0.9180 0.9180 0.9200
405.095908 0.9180 0.9180 0.9180 0.9180 0.9170
410.191448 0.9170 0.9150 0.9150 0.9150 0.9140
415.286989 0.9140 0.9140 0.9130 0.9130 0.9130
420.382529 0.9100 0.9070 0.9060 0.9040 0.9000
425.478069 0.8960 0.8960 0.8950 0.8930 0.8930
430.573609 0.8920 0.8910 0.8850 0.8840 0.8840
435.669149 0.8820 0.8820 0.8810 0.8800 0.8780
440.764690 0.8770 0.8770 0.8750 0.8730 0.8660
445.860230 0.8600 0.8530 0.8520 0.8510 0.8490
450.955770 0.8480 0.8460 0.8460 0.8450 0.8440
456.051310 0.8370 0.8340 0.8330 0.8330 0.8310
461.146851 0.8310 0.8300 0.8300 0.8280 0.8270
466.242391 0.8260 0.8240 0.8230 0.8200 0.8190
471.337931 0.8170 0.8150 0.8120 0.8050 0.7980
476.433471 0.7970 0.7940 0.7820 0.7800 0.7790
481.529011 0.7770 0.7770 0.7760 0.7760 0.7750
486.624552 0.7660 0.7600 0.7550 0.7530 0.7510
491.720092 0.7480 0.7470 0.7460 0.7460 0.7440
496.815632 0.7400 0.7390 0.7370 0.7360 0.7350
501.911172 0.7330 0.7320 0.7310 0.7280 0.7260
507.006713 0.7250 0.7240 0.7220 0.7081 0.7060
512.102253 0.7020 0.7000 0.6970 0.6930 0.6910
517.197793 0.6860 0.6770 0.6631 0.6620 0.6560
522.293333 0.6510 0.6510 0.6450 0.6420 0.6410
527.388874 0.6380 0.6370 0.6370 0.6370 0.6380
532.484414 0.6380 0.6400 0.6400 0.6380 0.6350
537.579954 0.6310 0.6280 0.6240 0.6220 0.6130
542.675494 0.6080 0.6020 0.5950 0.5870 0.5640
547.771034 0.5391 0.5360 0.5250 0.5180 0.5130
552.866575 0.5110 0.5110 0.5130 0.5150 0.5220
557.962115 0.5509 0.5709 0.5879 0.5900 0.6039
563.057655 0.6170 0.6420 0.6440 0.6570 0.6710
568.153195 0.6850 0.7249 0.7260 0.7459 0.7470
573.248736 0.7510 0.7550 0.7600 0.7610 0.7620
578.344276 0.7720 0.7770 0.7790 0.7929 0.8000
583.439816 0.8010 0.8040 0.8060 0.8090 0.8120
588.535356 0.8170 0.8200 0.8230 0.8240 0.8280
593.630897 0.8300 0.8310 0.8330 0.8340 0.8370
598.726437 0.8380 0.8400 0.8420 0.8440 0.8450
603.821977 0.8460 0.8460 0.8460 0.8480 0.8480
608.917517 0.8480 0.8480 0.8480 0.8480 0.8460
614.013057 0.8450 0.8420 0.8400 0.8370 0.8330
619.108598 0.8190 0.8041 0.7911 0.7791 0.7681
624.204138 0.7550 0.7440 0.7310 0.7290 0.7310
629.299678 0.7350 0.7390 0.7400 0.7430 0.7440
634.395218 0.7460 0.7460 0.7460 0.7440 0.7430
639.490759 0.7330 0.7290 0.7071 0.6851 0.6810
644.586299 0.6480 0.6120 0.5760 0.5580 0.5400
649.681839 0.5041 0.5040 0.5548 0.5819 0.6079
654.777379 0.6340 0.6600 0.7220 0.8548 0.8570
659.872920 0.8630 0.8680 0.8740 0.8770 0.8800
664.968460 0.8860 0.8960 0.9020 0.9130 0.9150
670.064000 0.9220 0.9250 0.9250 0.9260 0.9260
675.159540 0.9260 0.9280 0.9280 0.9280 0.9290
680.255080 0.9320 0.9330 0.9350 0.9350 0.9350
685.350621 0.9350 0.9350 0.9350 0.9320 0.9310
690.446161 0.9310 0.9310 0.9310 0.9310 0.9310
695.541701 0.9320 0.9320 0.9330 0.9330 0.9350
700.637241 0.9360 0.9370 0.9370 0.9370 0.9390
705.732782 0.9390 0.9400 0.9400 0.9400 0.9400
710.828322 0.9390 0.9370 0.9370 0.9350 0.9350
715.923862 0.9320 0.9310 0.9290 0.9280 0.9280
721.019402 0.9260 0.9260 0.9250 0.9250 0.9250
726.114943 0.9250 0.9250 0.9250 0.9250 0.9260
731.210483 0.9260 0.9260 0.9280 0.9280 0.9280
736.306023 0.9280 0.9260 0.9260 0.9260 0.9250
741.401563 0.9250 0.9240 0.9220 0.9210 0.9200
746.497103 0.9180 0.9170 0.9150 0.9110 0.9110
751.592644 0.9100 0.9080 0.9070 0.9060 0.9040
756.688184 0.9030 0.9020 0.9000 0.8970 0.8960
761.783724 0.8960 0.8950 0.8950 0.8950 0.8930
766.879264 0.8930 0.8930 0.8920 0.8920 0.8910
771.974805 0.8910 0.8910 0.8890 0.8890 0.8890
777.070345 0.8880 0.8850 0.8840 0.8820 0.8810
782.165885 0.8810 0.8800 0.8780 0.8780 0.8770
787.261425 0.8770 0.8770 0.8750 0.8750 0.8750
792.356966 0.8750 0.8740 0.8730 0.8730 0.8710
797.452506 0.8670 0.8630 0.8590 0.8530 0.8510
802.548046 0.8480 0.8410 0.8370 0.8340 0.8151
807.643586 0.7690 0.7640 0.7610 0.7001 0.6401
812.739126 0.5901 0.5661 0.5421 0.4932 0.4452
817.834667 0.4220 0.3970 0.4460 0.5908 0.5930
822.930207 0.6559 0.6570 0.6670 0.6770 0.7069
828.025747 0.7080 0.7100 0.7100 0.7110 0.7110
833.121287 0.7100 0.7080 0.7080 0.7060 0.7030
838.216828 0.7000 0.7000 0.6990 0.6970 0.6920
843.312368 0.6880 0.6731 0.6680 0.6660 0.6630
848.407908 0.6560 0.6480 0.6280 0.6200 0.6120
853.503448 0.6040 0.5950 0.5870 0.5621 0.5530
858.598989 0.5430 0.5250 0.5070 0.4890 0.4710
863.694529 0.4531 0.4530 0.4699 0.4879 0.5039
868.790069 0.5220 0.5570 0.5870 0.6000 0.6010
873.885609 0.6010 0.5980 0.5950 0.5940 0.5910
878.981149 0.5860 0.5820 0.5680 0.5620 0.5550
884.076690 0.5530 0.5500 0.5460 0.5420 0.5370
889.172230 0.5310 0.5140 0.5080 0.5020 0.4910
894.267770 0.4840 0.4770 0.4730 0.4660 0.4590
899.363310 0.4520 0.4230 0.4150 0.4090 0.4040
904.458851 0.3980 0.3860 0.3800 0.3760 0.3720
909.554391 0.3570 0.3430 0.3310 0.3180 0.3000
914.649931 0.2920 0.2840 0.2770 0.2680 0.2620
919.745471 0.2560 0.2530 0.2480 0.2420 0.2400
924.841011 0.2370 0.2340 0.2330 0.2330 0.2310
929.936552 0.2310 0.2310 0.2310 0.2330 0.2340
935.032092 0.2350 0.2370 0.2400 0.2569 0.2670
940.127632 0.2680 0.2810 0.2880 0.2990 0.3150
945.223172 0.3200 0.3280 0.3350 0.3400 0.3579
950.318713 0.3720 0.3730 0.4010 0.4150 0.4230
955.414253 0.4240 0.4459 0.4480 0.4480 0.4450
960.509793 0.4400 0.4370 0.4270 0.4150 0.4020
965.605333 0.3970 0.3900 0.3731 0.2735 0.2452
970.700874 0.2160 0.1570 0.0991 0.0990 0.1209
975.796414 0.1429 0.1609 0.1640 0.2048 0.2050
980.891954 0.1430 0.1180 0.1060 0.0920 0.0890
985.987494 0.1109 0.1309 0.1499 0.1689 0.2983
991.083034 0.3020 0.4109 0.4639 0.6058 0.6080
996.178575 0.6240 0.6409 0.6559 0.6729 0.7038
1001.274115 0.7350 0.7360 0.7440 0.7510 0.7580
1006.369655 0.7680 0.7730 0.7750 0.7770 0.7790
1011.465195 0.7800 0.7820 0.7830 0.7830 0.7830
1016.560736 0.7830 0.7840 0.7860 0.7860 0.7860
1021.656276 0.7830 0.7830 0.7820 0.7730 0.7710
1026.751816 0.7690 0.7680 0.7680 0.7650 0.7610
1031.847356 0.7550 0.7480 0.7440 0.7370 0.7140
1036.942897 0.7060 0.6960 0.6223 0.5513 0.5172
1042.038437 0.4820 0.4110 0.3760 0.3400 0.3400
1047.133977 0.4268 0.5646 0.6328 0.7346 0.7360
1052.229517 0.7420 0.7470 0.7500 0.7530 0.7530
1057.325057 0.7510 0.7440 0.7350 0.7211 0.7001
1062.420598 0.6880 0.6750 0.6450 0.6020 0.6020
1067.516138 0.6599 0.7029 0.7837 0.7860 0.8019
1072.611678 0.8170 0.8340 0.8530 0.8560 0.8560
1077.707218 0.8570 0.8600 0.8640 0.8710 0.8730
1082.802759 0.8740 0.8750 0.8770 0.8780 0.8810
1087.898299 0.8820 0.8850 0.8850 0.8860 0.8880
1092.993839 0.8890 0.8890 0.8910 0.8920 0.8930
1098.089379 0.8930 0.8950 0.8960 0.8960 0.8960
1103.184920 0.8950 0.8950 0.8950 0.8950 0.8950
1108.280460 0.8950 0.8930 0.8930 0.8920 0.8920
1113.376000 0.8910 0.8880 0.8850 0.8840 0.8800
1118.471540 0.8730 0.8660 0.8590 0.8560 0.8550
1123.567080 0.8520 0.8510 0.8480 0.8450 0.8450
1128.662621 0.8560 0.8590 0.8600 0.8670 0.8730
1133.758161 0.8750 0.8800 0.8810 0.8820 0.8840
1138.853701 0.8850 0.8880 0.8880 0.8890 0.8890
1143.949241 0.8890 0.8860 0.8860 0.8850 0.8840
1149.044782 0.8810 0.8800 0.8770 0.8750 0.8750
1154.140322 0.8740 0.8710 0.8680 0.8640 0.8620
1159.235862 0.8570 0.8550 0.8530 0.8510 0.8460
1164.331402 0.8400 0.8340 0.8330 0.8300 0.8230
1169.426943 0.8160 0.8090 0.8000 0.8000 0.7970
1174.522483 0.7940 0.7930 0.7930 0.7910 0.7900
1179.618023 0.7900 0.7900 0.7880 0.7880 0.7880
1184.713563 0.7880 0.7870 0.7860 0.7830 0.7820
1189.809103 0.7800 0.7790 0.7790 0.7770 0.7770
1194.904644 0.7770 0.7760 0.7730 0.7720 0.7690
1200.000184 0.7680 0.7640 0.7580 0.7540 0.7470
1205.095724 0.7400 0.7360 0.7280 0.7220 0.7040
1210.191264 0.7000 0.6950 0.6821 0.6701 0.6591
1215.286805 0.6460 0.6350 0.6240 0.5601 0.5530
1220.382345 0.5500 0.5151 0.4801 0.4740 0.4402
1225.477885 0.4080 0.3910 0.3730 0.3391 0.2672
1230.573425 0.2152 0.1622 0.1391 0.1171 0.1061
1235.668966 0.0930 0.0710 0.0480 0.0260 0.0050
1240.764506 0.0020 0.0020 0.0040 0.0130 0.0220
1245.860046 0.0310 0.0400 0.0560 0.1618 0.2129
1250.955586 0.2668 0.3198 0.4764 0.4780 0.4949
1256.051126 0.5500 0.5640 0.5660 0.5640 0.5580
1261.146667 0.5530 0.5510 0.5480 0.5400 0.5291
1266.242207 0.5180 0.5080 0.4970 0.4880 0.4551
1271.337747 0.4221 0.4051 0.3881 0.3551 0.3003
1276.433287 0.2660 0.2460 0.2260 0.1611 0.2598
1281.528828 0.2630 0.2600 0.2570 0.2460 0.2341
1286.624368 0.2130 0.2020 0.1880 0.1101 0.0910
1291.719908 0.0701 0.0281 0.0240 0.0230 0.0230
1296.815448 0.0240 0.0260 0.0270 0.0330 0.0380
1301.910989 0.0400 0.0659 0.1168 0.1389 0.1599
1307.006529 0.1870 0.2530 0.2710 0.3329 0.3939
1312.102069 0.4299 0.4958 0.4970 0.5139 0.5608
1317.197609 0.5620 0.5860 0.6090 0.6300 0.6410
1322.293149 0.6669 0.6800 0.6840 0.6949 0.7109
1327.388690 0.7140 0.7250 0.7320 0.7370 0.7430
1332.484230 0.7470 0.7500 0.7540 0.7600 0.7620
1337.579770 0.7650 0.7660 0.7690 0.7710 0.7710
1342.675310 0.7710 0.7710 0.7710 0.7710 0.7710
1347.770851 0.7710 0.7710 0.7720 0.7720 0.7710
1352.866391 0.7690 0.7690 0.7680 0.7620 0.7610
1357.961931 0.7570 0.7530 0.7510 0.7480 0.7470
1363.057471 0.7460 0.7430 0.7420 0.7370 0.7360
1368.153011 0.7310 0.7140 0.7070 0.7020 0.6950
1373.248552 0.6860 0.6820 0.6511 0.6480 0.6440
1378.344092 0.6380 0.6130 0.6000 0.5940 0.5930
1383.439632 0.5940 0.5970 0.6040 0.6090 0.6170
1388.535172 0.6190 0.6150 0.6090 0.6040 0.5950
1393.630713 0.5840 0.5800 0.5790 0.5770 0.5790
1398.726253 0.5860 0.5980 0.6000 0.6000 0.5940
1403.821793 0.5900 0.5820 0.5710 0.5581 0.5530
1408.917333 0.5470 0.5240 0.5060 0.4850 0.4800
1414.012874 0.4710 0.4590 0.4451 0.4311 0.4161
1419.108414 0.4010 0.3800 0.3600 0.3250 0.3100
1424.203954 0.2781 0.2451 0.2410 0.1972 0.1373
1429.299494 0.1080 0.0740 0.0380 0.0300 0.0270
1434.395034 0.0260 0.0260 0.0270 0.0280 0.0310
1439.490575 0.0340 0.0410 0.0590 0.0750 0.0840
1444.586115 0.1030 0.1200 0.1359 0.1529 0.1689
1449.681655 0.2060 0.2090 0.2709 0.3029 0.3349
1454.777195 0.4267 0.4280 0.4569 0.4849 0.5526
1459.872736 0.5540 0.5830 0.6110 0.6639 0.6670
1464.968276 0.6750 0.6840 0.6999 0.7080 0.7170
1470.063816 0.7220 0.7390 0.7430 0.7460 0.7470
1475.159356 0.7480 0.7510 0.7600 0.7620 0.7640
1480.254897 0.7660 0.7680 0.7710 0.7710 0.7750
1485.350437 0.7760 0.7760 0.7790 0.7790 0.7800
1490.445977 0.7820 0.7870 0.7900 0.7910 0.7950
1495.541517 0.7950 0.7970 0.7970 0.7970 0.7970
1500.637057 0.7970 0.7950 0.7950 0.7950 0.7970
1505.732598 0.7980 0.8000 0.8010 0.8020 0.8020
1510.828138 0.8050 0.8090 0.8090 0.8110 0.8120
1515.923678 0.8130 0.8150 0.8150 0.8160 0.8170
1521.019218 0.8190 0.8200 0.8200 0.8220 0.8220
1526.114759 0.8230 0.8230 0.8230 0.8230 0.8230
1531.210299 0.8230 0.8230 0.8230 0.8220 0.8220
1536.305839 0.8220 0.8200 0.8200 0.8190 0.8170
1541.401379 0.8170 0.8160 0.8160 0.8150 0.8130
1546.496920 0.8130 0.8120 0.8090 0.8060 0.8040
1551.592460 0.8010 0.7980 0.7980 0.7970 0.7970
1556.688000 0.7950 0.7940 0.7900 0.7830 0.7770
1561.783540 0.7710 0.7620 0.7610 0.7580 0.7570
1566.879080 0.7550 0.7540 0.7530 0.7470 0.7430
1571.974621 0.7350 0.7310 0.7280 0.7170 0.7140
1577.070161 0.7110 0.7100 0.7000 0.6990 0.6960
1582.165701 0.6860 0.6800 0.6770 0.6700 0.6660
1587.261241 0.6620 0.6550 0.6490 0.6371 0.6310
1592.356782 0.6160 0.5970 0.5900 0.5800 0.5690
1597.452322 0.5600 0.5540 0.5480 0.5390 0.5072
1602.547862 0.4970 0.4840 0.4660 0.4590 0.4530
1607.643402 0.4301 0.4111 0.4020 0.3930 0.3731
1612.738943 0.3330 0.2920 0.2810 0.2710 0.2620
1617.834483 0.2520 0.2460 0.2410 0.2380 0.2519
1622.930023 0.2620 0.2810 0.2970 0.3140 0.3310
1628.025563 0.3709 0.3710 0.3640 0.3550 0.3470
1633.121103 0.2680 0.2450 0.2220 0.1751 0.1291
1638.216644 0.1061 0.0821 0.0372 0.0370 0.1494
1643.312184 0.3170 0.3180 0.3999 0.4399 0.4889
1648.407724 0.5040 0.5568 0.5759 0.5860 0.5870
1653.503264 0.5860 0.5830 0.5800 0.5770 0.5750
1658.598805 0.5720 0.5710 0.5580 0.5510 0.5500
1663.694345 0.5470 0.5430 0.5370 0.5260 0.5250
1668.789885 0.5150 0.5070 0.4911 0.4810 0.4730
1673.885425 0.4630 0.4560 0.4510 0.4370 0.4230
1678.980966 0.4130 0.4060 0.3980 0.3681 0.3252
1684.076506 0.3110 0.2810 0.2630 0.2510 0.2380
1689.172046 0.2121 0.1881 0.1332 0.0971 0.0602
1694.267586 0.0520 0.0440 0.0350 0.0270 0.0220
1699.363126 0.0170 0.0150 0.0090 0.0050 0.0020
1704.458667 0.0020 0.0010 0.0010 0.0010 0.0010
1709.554207 0.0020 0.0040 0.0040 0.0040 0.0060
1714.649747 0.0080 0.0080 0.0110 0.0120 0.0150
1719.745287 0.0190 0.0280 0.0330 0.0340 0.0350
1724.840828 0.0370 0.0380 0.0400 0.0410 0.0420
1729.936368 0.0450 0.0460 0.0510 0.0590 0.0590
1735.031908 0.0710 0.0840 0.1070 0.1180 0.1310
1740.127448 0.1420 0.1759 0.2676 0.2849 0.2949
1745.222989 0.3100 0.3180 0.3250 0.3320 0.3390
1750.318529 0.3619 0.3799 0.4308 0.4678 0.4700
1755.414069 0.4800 0.4890 0.4960 0.5020 0.5319
1760.509609 0.5330 0.5549 0.5660 0.5770 0.5879
1765.605149 0.5970 0.6010 0.6080 0.6150 0.6200
1770.700690 0.6270 0.6340 0.6410 0.6440 0.6460
1775.796230 0.6460 0.6480 0.6510 0.6520 0.6530
1780.891770 0.6570 0.6620 0.6640 0.6660 0.6660
1785.987310 0.6680 0.6680 0.6700 0.6700 0.6710
1791.082851 0.6730 0.6730 0.6740 0.6780 0.6840
1796.178391 0.6860 0.6880 0.6880 0.6890 0.6930
1801.273931 0.6950 0.7000 0.7020 0.7040 0.7060
1806.369471 0.7070 0.7080 0.7080 0.7100 0.7110
1811.465011 0.7140 0.7170 0.7180 0.7180 0.7200
1816.560552 0.7200 0.7200 0.7210 0.7240 0.7250
1821.656092 0.7290 0.7320 0.7350 0.7360 0.7370
1826.751632 0.7370 0.7390 0.7390 0.7390 0.7390
1831.847172 0.7390 0.7390 0.7390 0.7390 0.7390
1836.942713 0.7390 0.7390 0.7400 0.7400 0.7400
1842.038253 0.7420 0.7420 0.7420 0.7420 0.7430
1847.133793 0.7430 0.7440 0.7460 0.7460 0.7470
1852.229333 0.7480 0.7480 0.7500 0.7500 0.7500
1857.324874 0.7500 0.7500 0.7510 0.7510 0.7540
1862.420414 0.7550 0.7570 0.7570 0.7580 0.7600
1867.515954 0.7600 0.7600 0.7600 0.7610 0.7610
1872.611494 0.7610 0.7610 0.7610 0.7610 0.7610
1877.707034 0.7620 0.7620 0.7620 0.7620 0.7620
1882.802575 0.7610 0.7610 0.7610 0.7600 0.7600
1887.898115 0.7600 0.7600 0.7600 0.7610 0.7610
1892.993655 0.7620 0.7620 0.7620 0.7620 0.7620
1898.089195 0.7620 0.7610 0.7610 0.7600 0.7570
1903.184736 0.7540 0.7530 0.7510 0.7510 0.7500
1908.280276 0.7500 0.7500 0.7500 0.7500 0.7500
1913.375816 0.7500 0.7500 0.7500 0.7480 0.7480
1918.471356 0.7480 0.7470 0.7470 0.7470 0.7470
1923.566897 0.7460 0.7440 0.7430 0.7430 0.7420
1928.662437 0.7400 0.7370 0.7350 0.7330 0.7320
1933.757977 0.7310 0.7290 0.7280 0.7240 0.7200
1938.853517 0.7170 0.7150 0.7130 0.7100 0.7070
1943.949057 0.7040 0.7020 0.7000 0.6990 0.6960
1949.044598 0.7000 0.7040 0.7080 0.7100 0.7210
1954.140138 0.7250 0.7260 0.7260 0.7260 0.7260
1959.235678 0.7280 0.7350 0.7430 0.7440 0.7460
1964.331218 0.7510 0.7580 0.7610 0.7620 0.7620
1969.426759 0.7640 0.7650 0.7660 0.7680 0.7710
1974.522299 0.7720 0.7730 0.7730 0.7730 0.7730
1979.617839 0.7750 0.7750 0.7770 0.7790 0.7790
1984.713379 0.7770 0.7760 0.7760 0.7750 0.7750
1989.808920 0.7750 0.7750 0.7760 0.7760 0.7760
1994.904460 0.7770 0.7770 0.7790 0.7800 0.7800
2000.000000 0.7830 0.7845 0.7860 0.7880 0.7900
2005.095540 0.7921 0.7940 0.7956 0.7971 0.7986
2010.191080 0.8001 0.8011 0.8021 0.8031 0.8040
2015.286621 0.8040 0.8040 0.8045 0.8050 0.8056
2020.382161 0.8062 0.8077 0.8090 0.8090 0.8092
2025.477701 0.8107 0.8120 0.8120 0.8120 0.8120
2030.573241 0.8121 0.8126 0.8130 0.8130 0.8130
2035.668782 0.8130 0.8130 0.8130 0.8130 0.8130
2040.764322 0.8133 0.8143 0.8150 0.8150 0.8150
2045.859862 0.8150 0.8150 0.8150 0.8150 0.8150
2050.955402 0.8150 0.8150 0.8147 0.8137 0.8130
2056.050943 0.8130 0.8128 0.8123 0.8120 0.8120
2061.146483 0.8120 0.8120 0.8118 0.8113 0.8110
2066.242023 0.8110 0.8106 0.8096 0.8084 0.8069
2071.337563 0.8058 0.8053 0.8048 0.8043 0.8040
2076.433103 0.8040 0.8035 0.8025 0.8015 0.8005
2081.528644 0.7995 0.7985 0.7972 0.7957 0.7929
2086.624184 0.7889 0.7859 0.7839 0.7822 0.7807
2091.719724 0.7797 0.7792 0.7790 0.7790 0.7790
2096.815264 0.7790 0.7793 0.7798 0.7806 0.7816
2101.910805 0.7823 0.7828 0.7840 0.7855 0.7867
2107.006345 0.7877 0.7890 0.7905 0.7920 0.7935
2112.101885 0.7940 0.7940 0.7937 0.7931 0.7909
2117.197425 0.7879 0.7859 0.7844 0.7836 0.7831
2122.292966 0.7826 0.7821 0.7812 0.7802 0.7796
2127.388506 0.7791 0.7790 0.7790 0.7782 0.7772
2132.484046 0.7770 0.7770 0.7770 0.7770 0.7766
2137.579586 0.7761 0.7730 0.7695 0.7668 0.7643
2142.675126 0.7631 0.7621 0.7611 0.7601 0.7559
2147.770667 0.7514 0.7487 0.7462 0.7451 0.7441
2152.866207 0.7435 0.7430 0.7425 0.7420 0.7420
2157.961747 0.7420 0.7420 0.7420 0.7425 0.7431
2163.057287 0.7481 0.7533 0.7653 0.7770 0.7780
2168.152828 0.7790 0.7795 0.7801 0.7816 0.7830
2173.248368 0.7835 0.7840 0.7840 0.7841 0.7856
2178.343908 0.7870 0.7870 0.7871 0.7876 0.7881
2183.439448 0.7891 0.7901 0.7906 0.7912 0.7922
2188.534989 0.7930 0.7930 0.7931 0.7936 0.7941
2193.630529 0.7946 0.7950 0.7950 0.7952 0.7962
2198.726069 0.7970 0.7970 0.7968 0.7957 0.7950
2203.821609 0.7950 0.7949 0.7944 0.7940 0.7940
2208.917149 0.7939 0.7933 0.7930 0.7930 0.7925
2214.012690 0.7910 0.7897 0.7887 0.7878 0.7873
2219.108230 0.7868 0.7863 0.7856 0.7846 0.7832
2224.203770 0.7812 0.7798 0.7793 0.7786 0.7776
2229.299310 0.7768 0.7763 0.7751 0.7731 0.7713
2234.394851 0.7698 0.7688 0.7683 0.7673 0.7658
2239.490391 0.7643 0.7628 0.7618 0.7612 0.7607
2244.585931 0.7602 0.7595 0.7585 0.7577 0.7572
2249.681471 0.7570 0.7570 0.7564 0.7554 0.7550
2254.777011 0.7550 0.7550 0.7550 0.7550 0.7550
2259.872552 0.7550 0.7550 0.7550 0.7550 0.7556
2264.968092 0.7567 0.7570 0.7570 0.7573 0.7578
2270.063632 0.7580 0.7580 0.7577 0.7572 0.7563
2275.159172 0.7553 0.7543 0.7533 0.7512 0.7487
2280.254713 0.7476 0.7471 0.7459 0.7443 0.7436
2285.350253 0.7431 0.7426 0.7421 0.7420 0.7420
2290.445793 0.7412 0.7402 0.7400 0.7400 0.7400
2295.541333 0.7400 0.7400 0.7400 0.7400 0.7400
2300.636874 0.7400 0.7400 0.7400 0.7400 0.7395
2305.732414 0.7390 0.7390 0.7390 0.7390 0.7390
2310.827954 0.7381 0.7371 0.7365 0.7360 0.7360
2315.923494 0.7360 0.7355 0.7350 0.7340 0.7330
2321.019034 0.7330 0.7330 0.7325 0.7320 0.7305
2326.114575 0.7289 0.7269 0.7249 0.7229 0.7209
2331.210115 0.7194 0.7180 0.7175 0.7170 0.7170
2336.305655 0.7169 0.7159 0.7149 0.7139 0.7130
2341.401195 0.7130 0.7129 0.7119 0.7110 0.7110
2346.496736 0.7110 0.7110 0.7109 0.7104 0.7100
2351.592276 0.7100 0.7098 0.7088 0.7079 0.7074
2356.687816 0.7069 0.7064 0.7060 0.7060 0.7060
2361.783356 0.7060 0.7061 0.7066 0.7070 0.7070
2366.878897 0.7070 0.7070 0.7071 0.7077 0.7080
2371.974437 0.7080 0.7078 0.7073 0.7068 0.7063
2377.069977 0.7057 0.7047 0.7038 0.7033 0.7028
2382.165517 0.7023 0.7016 0.7006 0.6998 0.6993
2387.261057 0.6984 0.6969 0.6954 0.6939 0.6930
2392.356598 0.6930 0.6928 0.6923 0.6911 0.6891
2397.452138 0.6866 0.6836 0.6815 0.6805 0.6788
2402.547678 0.6763 0.6740 0.6720 0.6702 0.6687
2407.643218 0.6675 0.6665 0.6652 0.6637 0.6627
2412.738759 0.6622 0.6620 0.6620 0.6614 0.6604
2417.834299 0.6597 0.6592 0.6572 0.6542 0.6515
2422.929839 0.6489 0.6470 0.6455 0.6440 0.6425
2428.025379 0.6413 0.6403 0.6390 0.6375 0.6363
2433.120920 0.6353 0.6343 0.6333 0.6319 0.6304
2438.216460 0.6260 0.6205 0.6179 0.6164 0.6141
2443.312000 0.6116 0.6083 0.6048 0.6040 0.6040
2448.407540 0.6000 0.5950 0.5924 0.5904 0.5892
2453.503080 0.5882 0.5876 0.5871 0.5849 0.5824
2458.598621 0.5752 0.5671 0.5643 0.5623 0.5589
2463.694161 0.5554 0.5528 0.5502 0.5491 0.5481
2468.789701 0.5475 0.5470 0.5451 0.5431 0.5416
2473.885241 0.5401 0.5400 0.5400 0.5410 0.5420
2478.980782 0.5425 0.5430 0.5445 0.5460 0.5465
2484.076322 0.5470 0.5475 0.5480 0.5480 0.5480
2489.171862 0.5475 0.5469 0.5443 0.5418 0.5393
2494.267402 0.5368 0.5348 0.5327 0.5292 0.5254
2499.362943 0.5199 0.5145 0.5100 0.5053 0.4998
2504.458483 0.4943 0.4887 0.4832 0.4781 0.4736
2509.554023 0.4716 0.4698 0.4688 0.4661 0.4566
2514.649563 0.4483 0.4448 0.4398 0.4298 0.4209
2519.745103 0.4158 0.4108 0.4058 0.4006 0.3951
2524.840644 0.3898 0.3852 0.3817 0.3807 0.3805
2529.936184 0.3820 0.3857 0.3942 0.4010 0.4040
2535.031724 0.4075 0.4120 0.4152 0.4157 0.4160
2540.127264 0.4160 0.4145 0.4105 0.4076 0.4066
2545.222805 0.4048 0.4018 0.4000 0.4000 0.3996
2550.318345 0.3986 0.3958 0.3908 0.3869 0.3844
2555.413885 0.3816 0.3786 0.3742 0.3681 0.3626
2560.509425 0.3576 0.3528 0.3483 0.3452 0.3437
2565.604966 0.3427 0.3422 0.3420 0.3420 0.3420
2570.700506 0.3420 0.3414 0.3404 0.3397 0.3392
2575.796046 0.3381 0.3366 0.3357 0.3352 0.3344
2580.891586 0.3334 0.3327 0.3322 0.3317 0.3312
2585.987126 0.3310 0.3310 0.3310 0.3310 0.3337
2591.082667 0.3378 0.3418 0.3458 0.3548 0.3658
2596.178207 0.3697 0.3707 0.3685 0.3649 0.3618
2601.273747 0.3588 0.3561 0.3536 0.3466 0.3380
2606.369287 0.3348 0.3333 0.3330 0.3330 0.3326
2611.464828 0.3321 0.3320 0.3320 0.3324 0.3329
2616.560368 0.3330 0.3330 0.3343 0.3358 0.3373
2621.655908 0.3388 0.3394 0.3399 0.3400 0.3400
2626.751448 0.3400 0.3400 0.3395 0.3390 0.3390
2631.846989 0.3390 0.3362 0.3331 0.3311 0.3291
2636.942529 0.3256 0.3221 0.3176 0.3131 0.3095
2642.038069 0.3060 0.3045 0.3030 0.2974 0.2919
2647.133609 0.2863 0.2808 0.2778 0.2745 0.2665
2652.229149 0.2588 0.2558 0.2523 0.2432 0.2342
2657.324690 0.2251 0.2166 0.2126 0.2090 0.2090
2662.420230 0.2092 0.2113 0.2134 0.2164 0.2199
2667.515770 0.2260 0.2316 0.2351 0.2394 0.2470
2672.611310 0.2543 0.2608 0.2673 0.2733 0.2794
2677.706851 0.2860 0.2920 0.2966 0.3016 0.3081
2682.802391 0.3163 0.3293 0.3394 0.3409 0.3421
2687.897931 0.3426 0.3430 0.3430 0.3432 0.3437
2692.993471 0.3440 0.3440 0.3440 0.3440 0.3440
2698.089011 0.3440 0.3438 0.3433 0.3430 0.3430
2703.184552 0.3422 0.3402 0.3384 0.3369 0.3360
2708.280092 0.3360 0.3349 0.3324 0.3297 0.3267
2713.375632 0.3234 0.3199 0.3171 0.3151 0.3123
2718.471172 0.3088 0.3068 0.3063 0.3062 0.3068
2723.566713 0.3085 0.3115 0.3143 0.3168 0.3196
2728.662253 0.3226 0.3251 0.3271 0.3294 0.3319
2733.757793 0.3347 0.3378 0.3405 0.3430 0.3446
2738.853333 0.3456 0.3466 0.3476 0.3486 0.3496
2743.948874 0.3500 0.3500 0.3494 0.3484 0.3473
2749.044414 0.3463 0.3450 0.3435 0.3427 0.3421
2754.139954 0.3402 0.3377 0.3370 0.3370 0.3341
2759.235494 0.3301 0.3272 0.3246 0.3214 0.3179
2764.331034 0.3162 0.3152 0.3142 0.3132 0.3122
2769.426575 0.3112 0.3106 0.3101 0.3088 0.3073
2774.522115 0.3066 0.3061 0.3052 0.3041 0.3031
2779.617655 0.3021 0.3011 0.3001 0.2996 0.2991
2784.713195 0.2977 0.2962 0.2947 0.2931 0.2921
2789.808736 0.2911 0.2882 0.2852 0.2836 0.2821
2794.904276 0.2810 0.2800 0.2756 0.2711 0.2676
2799.999816 0.2640 0.2585 0.2530 0.2525 0.2520
2805.095356 0.2520 0.2520 0.2525 0.2530 0.2540
2810.190897 0.2550 0.2555 0.2560 0.2565 0.2571
2815.286437 0.2581 0.2590 0.2596 0.2600 0.2600
2820.381977 0.2600 0.2600 0.2601 0.2611 0.2620
2825.477517 0.2620 0.2620 0.2620 0.2620 0.2620
2830.573057 0.2618 0.2608 0.2599 0.2594 0.2584
2835.668598 0.2554 0.2528 0.2518 0.2504 0.2479
2840.764138 0.2454 0.2429 0.2401 0.2366 0.2325
2845.859678 0.2270 0.2215 0.2160 0.2104 0.2048
2850.955218 0.2005 0.1990 0.1973 0.1953 0.1928
2856.050759 0.1893 0.1856 0.1816 0.1777 0.1742
2861.146299 0.1700 0.1644 0.1599 0.1568 0.1548
2866.241839 0.1543 0.1534 0.1519 0.1504 0.1489
2871.337379 0.1480 0.1480 0.1478 0.1473 0.1454
2876.432920 0.1419 0.1390 0.1370 0.1358 0.1353
2881.528460 0.1343 0.1327 0.1312 0.1297 0.1280
2886.624000 0.1260 0.1250 0.1250 0.1247 0.1242
2891.719540 0.1240 0.1240 0.1243 0.1248 0.1259
2896.815080 0.1274 0.1301 0.1336 0.1408 0.1504
2901.910621 0.1543 0.1548 0.1556 0.1566 0.1570
2907.006161 0.1570 0.1570 0.1570 0.1570 0.1570
2912.101701 0.1563 0.1553 0.1532 0.1507 0.1478
2917.197241 0.1448 0.1433 0.1423 0.1401 0.1376
2922.292782 0.1355 0.1335 0.1315 0.1295 0.1275
2927.388322 0.1254 0.1238 0.1223 0.1216 0.1211
2932.483862 0.1210 0.1210 0.1214 0.1219 0.1233
2937.579402 0.1248 0.1263 0.1278 0.1319 0.1364
2942.674943 0.1392 0.1417 0.1442 0.1467 0.1488
2947.770483 0.1508 0.1519 0.1529 0.1539 0.1549
2952.866023 0.1560 0.1570 0.1570 0.1570 0.1560
2957.961563 0.1550 0.1525 0.1500 0.1470 0.1440
2963.057103 0.1415 0.1389 0.1319 0.1250 0.1245
2968.152644 0.1240 0.1245 0.1250 0.1255 0.1261
2973.248184 0.1271 0.1280 0.1280 0.1279 0.1263
2978.343724 0.1244 0.1189 0.1138 0.1123 0.1108
2983.439264 0.1093 0.1079 0.1074 0.1069 0.1064
2988.534805 0.1060 0.1060 0.1061 0.1066 0.1071
2993.630345 0.1076 0.1083 0.1098 0.1112 0.1122
2998.725885 0.1138 0.1173 0.1206 0.1231 0.1250
3003.821425 0.1250 0.1249 0.1244 0.1237 0.1227
3008.916966 0.1220 0.1220 0.1220 0.1220 0.1223
3014.012506 0.1233 0.1240 0.1240 0.1242 0.1247
3019.108046 0.1252 0.1257 0.1266 0.1281 0.1298
3024.203586 0.1318 0.1336 0.1351 0.1366 0.1381
3029.299126 0.1390 0.1390 0.1392 0.1397 0.1405
3034.394667 0.1415 0.1420 0.1420 0.1415 0.1405
3039.490207 0.1393 0.1378 0.1368 0.1362 0.1352
3044.585747 0.1337 0.1325 0.1315 0.1302 0.1287
3049.681287 0.1275 0.1265 0.1260 0.1260 0.1260
3054.776828 0.1260 0.1266 0.1276 0.1289 0.1304
3059.872368 0.1316 0.1326 0.1336 0.1346 0.1356
3064.967908 0.1366 0.1376 0.1387 0.1390 0.1390
3070.063448 0.1393 0.1398 0.1400 0.1400 0.1400
3075.158989 0.1400 0.1407 0.1417 0.1435 0.1455
3080.254529 0.1467 0.1477 0.1491 0.1506 0.1521
3085.350069 0.1537 0.1544 0.1549 0.1550 0.1550
3090.445609 0.1558 0.1568 0.1574 0.1579 0.1580
3095.541149 0.1580 0.1588 0.1599 0.1604 0.1609
3100.636690 0.1610 0.1610 0.1614 0.1619 0.1620
3105.732230 0.1620 0.1620 0.1620 0.1629 0.1639
3110.827770 0.1645 0.1650 0.1655 0.1660 0.1689
3115.923310 0.1719 0.1744 0.1770 0.1780 0.1790
3121.018851 0.1805 0.1820 0.1830 0.1840 0.1855
3126.114391 0.1870 0.1885 0.1900 0.1905 0.1911
3131.209931 0.1942 0.1970 0.1970 0.1971 0.1986
3136.305471 0.2002 0.2022 0.2041 0.2046 0.2054
3141.401011 0.2089 0.2123 0.2148 0.2171 0.2181
3146.496552 0.2192 0.2207 0.2223 0.2243 0.2261
3151.592092 0.2266 0.2273 0.2288 0.2304 0.2324
3156.687632 0.2345 0.2365 0.2382 0.2392 0.2405
3161.783172 0.2425 0.2450 0.2491 0.2524 0.2539
3166.878713 0.2551 0.2556 0.2566 0.2586 0.2606
3171.974253 0.2626 0.2649 0.2680 0.2709 0.2734
3177.069793 0.2759 0.2784 0.2804 0.2814 0.2837
3182.165333 0.2882 0.2918 0.2938 0.2958 0.2978
3187.260874 0.2992 0.2997 0.3012 0.3043 0.3064
3192.356414 0.3074 0.3091 0.3116 0.3151 0.3196
3197.451954 0.3242 0.3287 0.3315 0.3325 0.3345
3202.547494 0.3375 0.3398 0.3413 0.3425 0.3435
3207.643034 0.3456 0.3486 0.3508 0.3523 0.3533
3212.738575 0.3538 0.3543 0.3548 0.3568 0.3598
3217.834115 0.3619 0.3634 0.3652 0.3672 0.3705
3222.929655 0.3745 0.3773 0.3793 0.3810 0.3825
3228.025195 0.3843 0.3863 0.3890 0.3920 0.3967
3233.120736 0.4023 0.4047 0.4057 0.4093 0.4138
3238.216276 0.4165 0.4185 0.4205 0.4225 0.4272
3243.311816 0.4327 0.4344 0.4349 0.4358 0.4368
3248.407356 0.4402 0.4442 0.4462 0.4477 0.4512
3253.502897 0.4553 0.4564 0.4569 0.4583 0.4598
3258.598437 0.4630 0.4665 0.4683 0.4698 0.4744
3263.693977 0.4794 0.4818 0.4838 0.4849 0.4859
3268.789517 0.4869 0.4879 0.4894 0.4909 0.4961
3273.885057 0.5017 0.5025 0.5030 0.5079 0.5129
3278.980598 0.5140 0.5150 0.5195 0.5240 0.5275
3284.076138 0.5310 0.5330 0.5350 0.5360 0.5371
3289.171678 0.5401 0.5431 0.5451 0.5472 0.5507
3294.267218 0.5541 0.5556 0.5574 0.5609 0.5649
3299.362759 0.5729 0.5802 0.5817 0.5835 0.5870
3304.458299 0.5901 0.5906 0.5917 0.5962 0.6001
3309.553839 0.6006 0.6013 0.6028 0.6042 0.6052
3314.649379 0.6080 0.6181 0.6265 0.6285 0.6300
3319.744920 0.6300 0.6306 0.6331 0.6363 0.6413
3324.840460 0.6451 0.6456 0.6464 0.6479 0.6496
3329.936000 0.6516 0.6541 0.6576 0.6605 0.6620
3335.031540 0.6632 0.6637 0.6644 0.6654 0.6667
3340.127080 0.6687 0.6723 0.6783 0.6826 0.6841
3345.222621 0.6856 0.6871 0.6882 0.6887 0.6894
3350.318161 0.6904 0.6914 0.6924 0.6934 0.6944
3355.413701 0.6952 0.6957 0.6970 0.6990 0.7025
3360.509241 0.7075 0.7138 0.7213 0.7258 0.7273
3365.604782 0.7283 0.7288 0.7298 0.7313 0.7331
3370.700322 0.7351 0.7377 0.7407 0.7423 0.7428
3375.795862 0.7439 0.7454 0.7466 0.7476 0.7508
3380.891402 0.7553 0.7583 0.7603 0.7620 0.7635
3385.986943 0.7643 0.7648 0.7663 0.7683 0.7700
3391.082483 0.7715 0.7730 0.7745 0.7753 0.7759
3396.178023 0.7774 0.7795 0.7811 0.7826 0.7856
3401.273563 0.7891 0.7911 0.7926 0.7938 0.7948
3406.369103 0.7962 0.7977 0.7996 0.8016 0.8028
3411.464644 0.8038 0.8048 0.8058 0.8068 0.8078
3416.560184 0.8084 0.8089 0.8103 0.8118 0.8133
3421.655724 0.8148 0.8154 0.8159 0.8173 0.8189
3426.751264 0.8195 0.8200 0.8209 0.8219 0.8229
3431.846805 0.8239 0.8249 0.8259 0.8265 0.8270
3436.942345 0.8275 0.8280 0.8290 0.8300 0.8320
3442.037885 0.8340 0.8345 0.8351 0.8381 0.8410
3447.133425 0.8415 0.8420 0.8420 0.8420 0.8431
3452.228966 0.8440 0.8445 0.8450 0.8455 0.8460
3457.324506 0.8460 0.8461 0.8471 0.8482 0.8503
3462.420046 0.8520 0.8520 0.8521 0.8526 0.8532
3467.515586 0.8542 0.8550 0.8550 0.8551 0.8556
3472.611126 0.8561 0.8566 0.8570 0.8570 0.8572
3477.706667 0.8582 0.8590 0.8590 0.8591 0.8596
3482.802207 0.8600 0.8600 0.8603 0.8613 0.8621
3487.897747 0.8626 0.8631 0.8637 0.8640 0.8640
3492.993287 0.8640 0.8640 0.8640 0.8640 0.8640
3498.088828 0.8640 0.8640 0.8640 0.8640 0.8640
3503.184368 0.8640 0.8640 0.8640 0.8640 0.8638
3508.279908 0.8633 0.8630 0.8630 0.8630 0.8630
3513.375448 0.8630 0.8630 0.8630 0.8630 0.8623
3518.470989 0.8608 0.8598 0.8592 0.8585 0.8575
3523.566529 0.8567 0.8562 0.8552 0.8537 0.8525
3528.662069 0.8515 0.8505 0.8494 0.8487 0.8482
3533.757609 0.8463 0.8433 0.8414 0.8404 0.8400
3538.853149 0.8400 0.8406 0.8416 0.8455 0.8510
3543.948690 0.8540 0.8555 0.8570 0.8585 0.8600
3549.044230 0.8615 0.8627 0.8637 0.8661 0.8691
3554.139770 0.8710 0.8726 0.8734 0.8739 0.8744
3559.235310 0.8749 0.8772 0.8803 0.8825 0.8845
3564.330851 0.8854 0.8859 0.8860 0.8860 0.8860
3569.426391 0.8860 0.8868 0.8878 0.8880 0.8880
3574.521931 0.8892 0.8907 0.8914 0.8919 0.8924
3579.617471 0.8929 0.8939 0.8949 0.8954 0.8959
3584.713011 0.8960 0.8960 0.8955 0.8950 0.8941
3589.808552 0.8931 0.8930 0.8930 0.8925 0.8920
3594.904092 0.8920 0.8920 0.8920 0.8920 0.8920
3599.999632 0.8920 0.8920 0.8920 0.8920 0.8920
3605.095172 0.8920 0.8920 0.8925 0.8930 0.8930
3610.190713 0.8931 0.8941 0.8950 0.8950 0.8950
3615.286253 0.8950 0.8950 0.8955 0.8960 0.8966
3620.381793 0.8970 0.8970 0.8971 0.8981 0.8990
3625.477333 0.8990 0.8990 0.8990 0.8990 0.8990
3630.572874 0.8988 0.8978 0.8969 0.8964 0.8959
3635.668414 0.8954 0.8951 0.8956 0.8960 0.8960
3640.763954 0.8964 0.8979 0.8990 0.8990 0.8991
3645.859494 0.8996 0.9000 0.9000 0.9000 0.9000
3650.955034 0.8998 0.8993 0.8990 0.8990 0.8983
3656.050575 0.8963 0.8947 0.8937 0.8930 0.8930
3661.146115 0.8934 0.8944 0.8950 0.8950 0.8952
3666.241655 0.8957 0.8960 0.8960 0.8960 0.8960
3671.337195 0.8960 0.8960 0.8960 0.8960 0.8960
3676.432736 0.8960 0.8962 0.8967 0.8975 0.8985
3681.528276 0.8993 0.8998 0.9000 0.9000 0.8997
3686.623816 0.8992 0.8985 0.8975 0.8970 0.8970
3691.719356 0.8967 0.8962 0.8960 0.8960 0.8960
3696.814897 0.8960 0.8963 0.8968 0.8976 0.8986
3701.910437 0.9000 0.9015 0.9023 0.9028 0.9030
3707.005977 0.9030 0.9030 0.9030 0.9030 0.9030
3712.101517 0.9027 0.9022 0.9020 0.9020 0.9020
3717.197057 0.9020 0.9020 0.9020 0.9024 0.9029
3722.292598 0.9034 0.9039 0.9048 0.9058 0.9064
3727.388138 0.9069 0.9074 0.9079 0.9080 0.9080
3732.483678 0.9088 0.9098 0.9104 0.9109 0.9118
3737.579218 0.9128 0.9138 0.9149 0.9163 0.9178
3742.674759 0.9180 0.9180 0.9175 0.9170 0.9161
3747.770299 0.9151 0.9145 0.9140 0.9126 0.9111
3752.865839 0.9096 0.9081 0.9075 0.9070 0.9065
3757.961379 0.9060 0.9060 0.9060 0.9050 0.9040
3763.056920 0.9040 0.9040 0.9035 0.9030 0.9030
3768.152460 0.9030 0.9030 0.9030 0.9025 0.9019
3773.248000 0.9009 0.9000 0.9000 0.9000 0.9000
3778.343540 0.9000 0.9000 0.9000 0.9000 0.9000
3783.439080 0.9000 0.9000 0.9000 0.9002 0.9012
3788.534621 0.9021 0.9026 0.9030 0.9030 0.9031
3793.630161 0.9036 0.9042 0.9052 0.9061 0.9066
3798.725701 0.9071 0.9076 0.9074 0.9049 0.9031
3803.821241 0.9036 0.9043 0.9053 0.9061 0.9066
3808.916782 0.9071 0.9077
##END=
