##TITLE=NITROETHANE
##JCAMP-DX=4.24
##DATA TYPE=INFRARED SPECTRUM
##CLASS=COBLENTZ
##ORIGIN=DOW CORNING CORP.
##OWNER=COBLENTZ SOCIETY
Collection (C) 2018 copyright by the U.S. Secretary of Commerce
on behalf of the United States of America. All rights reserved.
##DATE=Not specified, most likely prior to 1970
##NAMES=1-nitroethane
##CAS REGISTRY NO=79-24-3
##MOLFORM=C2 H5 N O2
##SOURCE REFERENCE=COBLENTZ NO. 4296
##$NIST SOURCE=COBLENTZ
##$NIST IMAGE=cob4296
##SPECTROMETER/DATA SYSTEM=Not specified, most likely a grating or hybrid spectrometer.
##STATE=SOLUTION (10% IN CCl4 FOR 3800-1300, 10.1% IN CS2 FOR 1300-650, AND 10.1% IN CCl4 FOR 650-250 CM^-^1) VERSUS SOLVENT
##PATH LENGTH=0.0105, 0.0109, AND 0.0201 CM (CsBr CELL)
##SAMPLING PROCEDURE=TRANSMISSION
##RESOLUTION=4
##DATA PROCESSING=DIGITIZED BY NIST FROM HARD COPY (FROM TWO SEGMENTS)
##XUNITS=1/CM
##YUNITS=TRANSMITTANCE
##XFACTOR=1.000000
##YFACTOR=1
##DELTAX=1.277958
##FIRSTX=244.089
##LASTX=3787.87
##FIRSTY=0.737
##MAXX=3787.87
##MINX=244.089
##MAXY=0.897994
##MINY=0
##NPOINTS=2774
##XYDATA=(X++(Y..Y))
244.089000 0.7370 0.7370 0.7370 0.7370 0.7370
250.478791 0.7370 0.7360 0.7360 0.7360 0.7360
256.868582 0.7360 0.7340 0.7340 0.7290 0.7200
263.258373 0.7110 0.7090 0.6971 0.6871 0.6830
269.648164 0.6810 0.6730 0.6640 0.6530 0.6430
276.037955 0.6380 0.6340 0.6320 0.6270 0.6220
282.427746 0.6100 0.6040 0.5920 0.5900 0.5890
288.817536 0.5890 0.5900 0.5990 0.6099 0.6130
295.207327 0.6380 0.6450 0.6670 0.6830 0.7009
301.597118 0.7149 0.7319 0.7439 0.7480 0.7510
307.986909 0.7600 0.7620 0.7630 0.7650 0.7700
314.376700 0.7839 0.7900 0.7970 0.8000 0.8040
320.766491 0.8090 0.8180 0.8250 0.8260 0.8260
327.156282 0.8260 0.8280 0.8300 0.8300 0.8300
333.546073 0.8320 0.8320 0.8330 0.8330 0.8330
339.935864 0.8330 0.8330 0.8330 0.8330 0.8330
346.325655 0.8330 0.8330 0.8330 0.8330 0.8330
352.715446 0.8320 0.8320 0.8300 0.8280 0.8280
359.105237 0.8280 0.8250 0.8250 0.8230 0.8230
365.495027 0.8230 0.8190 0.8190 0.8180 0.8180
371.884818 0.8160 0.8160 0.8140 0.8140 0.8120
378.274609 0.8110 0.8090 0.8050 0.8020 0.8000
384.664400 0.7970 0.7950 0.7930 0.7930 0.7900
391.054191 0.7900 0.7900 0.7880 0.7880 0.7880
397.443982 0.7860 0.7860 0.7860 0.7860 0.7830
403.833773 0.7830 0.7790 0.7790 0.7770 0.7760
410.223564 0.7760 0.7720 0.7720 0.7690 0.7670
416.613355 0.7650 0.7650 0.7630 0.7620 0.7620
423.003146 0.7600 0.7600 0.7600 0.7600 0.7580
429.392937 0.7580 0.7580 0.7580 0.7580 0.7580
435.782728 0.7580 0.7580 0.7580 0.7580 0.7580
442.172518 0.7580 0.7580 0.7560 0.7560 0.7560
448.562309 0.7550 0.7510 0.7440 0.7410 0.7370
454.952100 0.7340 0.7300 0.7270 0.7250 0.7220
461.341891 0.7200 0.7180 0.7160 0.7150 0.7110
467.731682 0.7080 0.7020 0.6970 0.6871 0.6761
474.121473 0.6600 0.6530 0.6390 0.6320 0.6310
480.511264 0.6220 0.6180 0.6100 0.6060 0.6030
486.901055 0.5970 0.5960 0.5940 0.5940 0.5960
493.290846 0.5970 0.6030 0.6060 0.6169 0.6249
499.680637 0.6320 0.6450 0.6530 0.6570 0.6640
506.070428 0.6760 0.6800 0.6880 0.6940 0.7089
512.460219 0.7150 0.7160 0.7180 0.7200 0.7250
518.850009 0.7270 0.7270 0.7290 0.7300 0.7340
525.239800 0.7370 0.7370 0.7410 0.7430 0.7440
531.629591 0.7460 0.7480 0.7500 0.7500 0.7510
538.019382 0.7530 0.7530 0.7550 0.7550 0.7530
544.409173 0.7510 0.7510 0.7500 0.7500 0.7480
550.798964 0.7460 0.7430 0.7410 0.7390 0.7370
557.188755 0.7360 0.7320 0.7320 0.7300 0.7270
563.578546 0.7250 0.7220 0.7150 0.7090 0.7020
569.968337 0.6920 0.6880 0.6810 0.6760 0.6710
576.358128 0.6600 0.6530 0.6480 0.6340 0.6320
582.747919 0.6111 0.6030 0.5960 0.5890 0.5751
589.137710 0.5480 0.5400 0.5190 0.5130 0.4960
595.527500 0.4820 0.4700 0.4541 0.4351 0.4161
601.917291 0.4000 0.3790 0.3670 0.3630 0.3460
608.307082 0.3281 0.3161 0.3090 0.3040 0.3090
614.696873 0.3110 0.3280 0.3370 0.3470 0.3789
621.086664 0.3999 0.4209 0.4349 0.4469 0.4579
627.476455 0.4660 0.4730 0.4940 0.5100 0.5190
633.866246 0.5290 0.5479 0.5500 0.5500 0.5729
640.256037 0.5730 0.5800 0.5870 0.5940 0.6010
646.645828 0.6060 0.6130 0.6200 0.6270 0.6320
653.035619 0.6390 0.6460 0.6530 0.6660 0.6780
659.425410 0.6880 0.7129 0.7150 0.7200 0.7230
665.815201 0.7270 0.7320 0.7370 0.7460 0.7480
672.204991 0.7510 0.7600 0.7719 0.7760 0.7770
678.594782 0.7790 0.7810 0.7830 0.7860 0.7900
684.984573 0.7910 0.7930 0.7930 0.7950 0.7950
691.374364 0.7950 0.7970 0.7970 0.7970 0.7970
697.764155 0.7970 0.7980 0.7980 0.7980 0.8000
704.153946 0.8000 0.8020 0.8040 0.8050 0.8070
710.543737 0.8110 0.8120 0.8160 0.8180 0.8190
716.933528 0.8190 0.8210 0.8230 0.8250 0.8260
723.323319 0.8260 0.8280 0.8300 0.8320 0.8320
729.713110 0.8330 0.8350 0.8350 0.8370 0.8390
736.102901 0.8390 0.8390 0.8390 0.8370 0.8370
742.492692 0.8370 0.8370 0.8370 0.8370 0.8370
748.882483 0.8350 0.8350 0.8350 0.8350 0.8350
755.272273 0.8330 0.8330 0.8330 0.8330 0.8330
761.662064 0.8330 0.8330 0.8330 0.8320 0.8320
768.051855 0.8320 0.8300 0.8280 0.8260 0.8250
774.441646 0.8250 0.8230 0.8180 0.8160 0.8160
780.831437 0.8140 0.8120 0.8070 0.8040 0.8000
787.221228 0.8000 0.7980 0.7831 0.7770 0.7700
793.611019 0.7600 0.7530 0.7460 0.7410 0.7220
800.000810 0.6991 0.6761 0.6591 0.6391 0.6310
806.390601 0.6200 0.6200 0.6250 0.6460 0.6520
812.780392 0.6879 0.6950 0.7089 0.7219 0.7369
819.170183 0.7550 0.7620 0.7720 0.7790 0.7830
825.559974 0.7840 0.7860 0.7860 0.7880 0.7910
831.949764 0.7910 0.7910 0.7910 0.7930 0.7930
838.339555 0.7910 0.7880 0.7830 0.7810 0.7790
844.729346 0.7740 0.7670 0.7630 0.7600 0.7600
851.119137 0.7580 0.7550 0.7530 0.7361 0.7251
857.508928 0.7160 0.7090 0.6800 0.6620 0.6321
863.898719 0.6101 0.5263 0.4633 0.4033 0.3195
870.288510 0.2320 0.2230 0.1691 0.1670 0.2159
876.678301 0.5021 0.5409 0.5778 0.6546 0.6938
883.068092 0.7270 0.7370 0.7480 0.7600 0.7630
889.457883 0.7690 0.7720 0.7830 0.7840 0.7880
895.847674 0.7910 0.7950 0.8000 0.8020 0.8040
902.237465 0.8040 0.8050 0.8050 0.8050 0.8050
908.627255 0.8070 0.8070 0.8110 0.8120 0.8140
915.017046 0.8190 0.8230 0.8250 0.8260 0.8260
921.406837 0.8260 0.8260 0.8260 0.8260 0.8260
927.796628 0.8260 0.8260 0.8260 0.8260 0.8260
934.186419 0.8260 0.8260 0.8280 0.8280 0.8280
940.576210 0.8280 0.8280 0.8280 0.8280 0.8280
946.966001 0.8300 0.8280 0.8280 0.8260 0.8260
953.355792 0.8250 0.8250 0.8230 0.8210 0.8210
959.745583 0.8190 0.8190 0.8180 0.8160 0.8140
966.135374 0.8140 0.8120 0.8090 0.8040 0.7970
972.525165 0.7950 0.7950 0.7880 0.7830 0.7770
978.914956 0.7720 0.7600 0.7500 0.7430 0.7152
985.304746 0.6940 0.6570 0.6310 0.5891 0.5521
991.694537 0.5520 0.5968 0.6318 0.6569 0.7077
998.084328 0.7160 0.7250 0.7460 0.7580 0.7650
1004.474119 0.7690 0.7720 0.7740 0.7760 0.7760
1010.863910 0.7790 0.7810 0.7830 0.7830 0.7830
1017.253701 0.7840 0.7840 0.7840 0.7860 0.7880
1023.643492 0.7880 0.7880 0.7880 0.7880 0.7900
1030.033283 0.7900 0.7900 0.7910 0.7930 0.7930
1036.423074 0.7930 0.7930 0.7910 0.7910 0.7900
1042.812865 0.7900 0.7900 0.7880 0.7880 0.7880
1049.202656 0.7860 0.7840 0.7810 0.7790 0.7790
1055.592447 0.7770 0.7760 0.7720 0.7700 0.7690
1061.982237 0.7670 0.7650 0.7600 0.7580 0.7550
1068.372028 0.7480 0.7440 0.7410 0.7410 0.7360
1074.761819 0.7250 0.7200 0.7090 0.7010 0.6880
1081.151610 0.6800 0.6601 0.6500 0.6390 0.6221
1087.541401 0.6040 0.5890 0.5270 0.5010 0.4800
1093.931192 0.4401 0.4211 0.3911 0.3910 0.4069
1100.320983 0.4210 0.4450 0.4650 0.4800 0.5189
1106.710774 0.5240 0.5310 0.5340 0.5360 0.5360
1113.100565 0.5310 0.5270 0.5270 0.5270 0.5260
1119.490356 0.5051 0.4861 0.4750 0.4402 0.4191
1125.880147 0.4070 0.3860 0.3860 0.4369 0.4659
1132.269938 0.4909 0.5149 0.5339 0.5519 0.5759
1138.659728 0.6030 0.6250 0.6360 0.6690 0.6760
1145.049519 0.6920 0.6950 0.6990 0.7080 0.7110
1151.439310 0.7200 0.7270 0.7270 0.7360 0.7410
1157.829101 0.7460 0.7500 0.7510 0.7550 0.7580
1164.218892 0.7620 0.7620 0.7630 0.7630 0.7630
1170.608683 0.7650 0.7650 0.7650 0.7690 0.7720
1176.998474 0.7740 0.7740 0.7760 0.7760 0.7760
1183.388265 0.7760 0.7770 0.7770 0.7770 0.7790
1189.778056 0.7790 0.7770 0.7760 0.7740 0.7740
1196.167847 0.7720 0.7720 0.7720 0.7740 0.7740
1202.557638 0.7720 0.7720 0.7700 0.7690 0.7670
1208.947429 0.7670 0.7650 0.7580 0.7550 0.7530
1215.337220 0.7510 0.7500 0.7460 0.7460 0.7430
1221.727010 0.7410 0.7370 0.7270 0.7131 0.7090
1228.116801 0.7010 0.6970 0.6810 0.6760 0.6710
1234.506592 0.6640 0.6500 0.6341 0.6310 0.6250
1240.896383 0.5900 0.5870 0.5710 0.5430 0.5400
1247.286174 0.5330 0.5240 0.5220 0.5240 0.5290
1253.675965 0.5310 0.5400 0.5470 0.5540 0.5660
1260.065756 0.5760 0.5890 0.6079 0.6219 0.6320
1266.455547 0.6380 0.6460 0.6500 0.6600 0.6670
1272.845338 0.6740 0.6760 0.6780 0.6780 0.6800
1279.235129 0.6800 0.6800 0.6810 0.6810 0.6810
1285.624920 0.6800 0.6780 0.6740 0.6730 0.6710
1292.014711 0.6670 0.6660 0.6640 0.6600 0.6590
1298.404501 0.6570 0.6550 0.6500 0.6450 0.6390
1304.794292 0.6340 0.6270 0.6220 0.6170 0.6110
1311.184083 0.6060 0.5990 0.5940 0.5890 0.5830
1317.573874 0.5780 0.5640 0.5260 0.4870 0.4680
1323.963665 0.4371 0.4260 0.4260 0.4300 0.4579
1330.353456 0.5031 0.5330 0.5480 0.5570 0.5640
1336.743247 0.5710 0.5750 0.5750 0.5680 0.5620
1343.133038 0.5410 0.5260 0.5120 0.5030 0.4700
1349.522829 0.4401 0.4071 0.3751 0.3372 0.2952
1355.912620 0.2290 0.1990 0.1600 0.0611 0.0410
1362.302411 0.0410 0.0619 0.0730 0.0869 0.1009
1368.692202 0.1251 0.1811 0.2320 0.2720 0.2830
1375.081992 0.3000 0.3229 0.3230 0.3210 0.3021
1381.471783 0.2789 0.2390 0.1990 0.1500 0.0432
1387.861574 0.0240 0.0220 0.0240 0.0290 0.0330
1394.251365 0.0610 0.0820 0.1060 0.1310 0.1809
1400.641156 0.2389 0.2929 0.3458 0.3560 0.3809
1407.030947 0.4070 0.4260 0.4470 0.4560 0.4580
1413.420738 0.4590 0.4610 0.4610 0.4590 0.4590
1419.810529 0.4510 0.4400 0.4280 0.4160 0.4070
1426.200320 0.3840 0.3700 0.3560 0.3211 0.2772
1432.590111 0.2529 0.2080 0.1730 0.1570 0.1520
1438.979902 0.1520 0.1729 0.2228 0.2300 0.2509
1445.369693 0.2560 0.2690 0.2790 0.3000 0.3230
1451.759483 0.3320 0.3320 0.3230 0.3091 0.2831
1458.149274 0.2320 0.2320 0.2650 0.2810 0.3299
1464.539065 0.3979 0.4279 0.4589 0.4700 0.5028
1470.928856 0.5240 0.5260 0.5380 0.5450 0.5500
1477.318647 0.5550 0.5620 0.5640 0.5640 0.5660
1483.708438 0.5680 0.5680 0.5660 0.5640 0.5620
1490.098229 0.5620 0.5610 0.5451 0.5430 0.5410
1496.488020 0.5380 0.5310 0.5260 0.5190 0.5130
1502.877811 0.5060 0.4960 0.4840 0.4790 0.4730
1509.267602 0.4470 0.4400 0.4260 0.4160 0.4000
1515.657393 0.3950 0.3910 0.3531 0.3231 0.3091
1522.047184 0.2790 0.2670 0.2500 0.2370 0.2180
1528.436974 0.2040 0.1801 0.1551 0.1311 0.0992
1534.826765 0.0639 0.0400 0.0290 0.0150 0.0080
1541.216556 0.0010 0.0000 0.0000 0.0000 0.0000
1547.606347 0.0000 0.0000 0.0000 0.0000 0.0000
1553.996138 0.0000 0.0000 0.0000 0.0000 0.0000
1560.385929 0.0010 0.0010 0.0050 0.0080 0.0120
1566.775720 0.0220 0.0290 0.0310 0.0679 0.0760
1573.165511 0.0890 0.1010 0.1290 0.1450 0.1660
1579.555302 0.1989 0.2229 0.2689 0.2829 0.3178
1585.945093 0.3400 0.3540 0.3680 0.3980 0.4260
1592.334884 0.4310 0.4509 0.4580 0.4749 0.4909
1598.724675 0.5050 0.5200 0.5340 0.5470 0.5550
1605.114465 0.5620 0.5730 0.5820 0.5940 0.6010
1611.504256 0.6150 0.6360 0.6430 0.6450 0.6530
1617.894047 0.6660 0.6740 0.6800 0.6900 0.6990
1624.283838 0.7080 0.7130 0.7160 0.7250 0.7290
1630.673629 0.7410 0.7510 0.7530 0.7560 0.7620
1637.063420 0.7670 0.7690 0.7740 0.7790 0.7830
1643.453211 0.7830 0.7840 0.7880 0.7950 0.7970
1649.843002 0.7970 0.8000 0.8020 0.8020 0.8040
1656.232793 0.8090 0.8110 0.8120 0.8120 0.8140
1662.622584 0.8180 0.8210 0.8230 0.8250 0.8300
1669.012375 0.8320 0.8330 0.8330 0.8330 0.8330
1675.402166 0.8330 0.8330 0.8330 0.8330 0.8330
1681.791957 0.8350 0.8350 0.8390 0.8400 0.8440
1688.181747 0.8490 0.8510 0.8510 0.8510 0.8530
1694.571538 0.8540 0.8560 0.8560 0.8560 0.8580
1700.961329 0.8600 0.8610 0.8610 0.8630 0.8630
1707.351120 0.8670 0.8680 0.8680 0.8680 0.8670
1713.740911 0.8670 0.8650 0.8650 0.8650 0.8680
1720.130702 0.8700 0.8700 0.8700 0.8700 0.8700
1726.520493 0.8700 0.8700 0.8700 0.8700 0.8720
1732.910284 0.8720 0.8720 0.8720 0.8700 0.8700
1739.300075 0.8700 0.8680 0.8680 0.8680 0.8680
1745.689866 0.8680 0.8700 0.8700 0.8720 0.8720
1752.079657 0.8720 0.8720 0.8720 0.8720 0.8720
1758.469448 0.8720 0.8700 0.8700 0.8700 0.8700
1764.859238 0.8700 0.8700 0.8700 0.8700 0.8700
1771.249029 0.8700 0.8720 0.8720 0.8720 0.8720
1777.638820 0.8700 0.8700 0.8700 0.8700 0.8680
1784.028611 0.8680 0.8700 0.8720 0.8700 0.8700
1790.418402 0.8700 0.8720 0.8720 0.8720 0.8720
1796.808193 0.8720 0.8720 0.8720 0.8720 0.8720
1803.197984 0.8720 0.8740 0.8740 0.8740 0.8750
1809.587775 0.8770 0.8770 0.8770 0.8770 0.8770
1815.977566 0.8770 0.8750 0.8740 0.8740 0.8680
1822.367357 0.8680 0.8650 0.8670 0.8680 0.8700
1828.757148 0.8700 0.8700 0.8680 0.8680 0.8740
1835.146939 0.8740 0.8720 0.8720 0.8720 0.8700
1841.536729 0.8700 0.8680 0.8670 0.8670 0.8670
1847.926520 0.8650 0.8650 0.8610 0.8610 0.8630
1854.316311 0.8650 0.8680 0.8680 0.8700 0.8720
1860.706102 0.8720 0.8720 0.8700 0.8650 0.8650
1867.095893 0.8700 0.8720 0.8720 0.8720 0.8700
1873.485684 0.8700 0.8680 0.8700 0.8700 0.8700
1879.875475 0.8700 0.8720 0.8720 0.8720 0.8740
1886.265266 0.8720 0.8720 0.8700 0.8700 0.8700
1892.655057 0.8700 0.8700 0.8680 0.8630 0.8630
1899.044848 0.8670 0.8680 0.8700 0.8720 0.8720
1905.434639 0.8720 0.8740 0.8750 0.8750 0.8740
1911.824430 0.8720 0.8720 0.8720 0.8720 0.8720
1918.214220 0.8700 0.8700 0.8700 0.8770 0.8770
1924.604011 0.8750 0.8740 0.8720 0.8720 0.8700
1930.993802 0.8700 0.8700 0.8700 0.8680 0.8680
1937.383593 0.8680 0.8700 0.8700 0.8700 0.8680
1943.773384 0.8680 0.8680 0.8680 0.8680 0.8680
1950.163175 0.8680 0.8680 0.8700 0.8700 0.8720
1956.552966 0.8720 0.8720 0.8720 0.8700 0.8680
1962.942757 0.8680 0.8680 0.8680 0.8670 0.8670
1969.332548 0.8650 0.8650 0.8740 0.8740 0.8700
1975.722339 0.8670 0.8650 0.8650 0.8670 0.8670
1982.112130 0.8670 0.8670 0.8670 0.8680 0.8680
1988.501921 0.8680 0.8720 0.8740 0.8740 0.8720
1994.891711 0.8700 0.8680 0.8670 0.8650 0.8680
2001.281502 0.8700 0.8720 0.8745 0.8770 0.8780
2007.671293 0.8790 0.8790 0.8790 0.8790 0.8790
2014.061084 0.8765 0.8740 0.8740 0.8740 0.8774
2020.450875 0.8809 0.8810 0.8810 0.8800 0.8790
2026.840666 0.8790 0.8790 0.8780 0.8770 0.8755
2033.230457 0.8740 0.8740 0.8740 0.8730 0.8720
2039.620248 0.8720 0.8720 0.8720 0.8720 0.8745
2046.010039 0.8770 0.8790 0.8810 0.8810 0.8810
2052.399830 0.8800 0.8790 0.8790 0.8790 0.8780
2058.789621 0.8770 0.8760 0.8750 0.8745 0.8740
2065.179412 0.8740 0.8740 0.8740 0.8740 0.8730
2071.569202 0.8720 0.8720 0.8720 0.8720 0.8720
2077.958993 0.8720 0.8720 0.8720 0.8720 0.8720
2084.348784 0.8720 0.8720 0.8720 0.8720 0.8720
2090.738575 0.8720 0.8720 0.8720 0.8720 0.8720
2097.128366 0.8720 0.8720 0.8720 0.8720 0.8720
2103.518157 0.8720 0.8720 0.8720 0.8720 0.8720
2109.907948 0.8720 0.8720 0.8720 0.8730 0.8740
2116.297739 0.8745 0.8750 0.8750 0.8750 0.8745
2122.687530 0.8740 0.8740 0.8740 0.8740 0.8740
2129.077321 0.8740 0.8740 0.8730 0.8720 0.8710
2135.467112 0.8700 0.8690 0.8680 0.8680 0.8680
2141.856903 0.8690 0.8700 0.8700 0.8700 0.8690
2148.246694 0.8680 0.8700 0.8720 0.8720 0.8720
2154.636484 0.8720 0.8720 0.8720 0.8720 0.8710
2161.026275 0.8700 0.8700 0.8700 0.8700 0.8700
2167.416066 0.8685 0.8670 0.8670 0.8670 0.8660
2173.805857 0.8650 0.8660 0.8670 0.8675 0.8680
2180.195648 0.8680 0.8680 0.8690 0.8700 0.8700
2186.585439 0.8700 0.8700 0.8700 0.8700 0.8700
2192.975230 0.8700 0.8700 0.8700 0.8700 0.8690
2199.365021 0.8680 0.8675 0.8670 0.8670 0.8670
2205.754812 0.8670 0.8670 0.8660 0.8650 0.8650
2212.144603 0.8650 0.8650 0.8650 0.8650 0.8650
2218.534394 0.8660 0.8670 0.8670 0.8670 0.8660
2224.924185 0.8650 0.8650 0.8650 0.8650 0.8650
2231.313975 0.8650 0.8650 0.8640 0.8630 0.8630
2237.703766 0.8630 0.8620 0.8610 0.8620 0.8630
2244.093557 0.8630 0.8630 0.8630 0.8630 0.8640
2250.483348 0.8650 0.8650 0.8650 0.8660 0.8670
2256.873139 0.8675 0.8680 0.8680 0.8680 0.8690
2263.262930 0.8700 0.8700 0.8700 0.8700 0.8700
2269.652721 0.8700 0.8700 0.8700 0.8700 0.8700
2276.042512 0.8700 0.8700 0.8700 0.8700 0.8700
2282.432303 0.8700 0.8700 0.8700 0.8700 0.8700
2288.822094 0.8700 0.8690 0.8680 0.8680 0.8680
2295.211885 0.8675 0.8670 0.8660 0.8650 0.8650
2301.601676 0.8650 0.8640 0.8630 0.8620 0.8610
2307.991466 0.8605 0.8600 0.8600 0.8600 0.8600
2314.381257 0.8600 0.8605 0.8610 0.8620 0.8630
2320.771048 0.8630 0.8630 0.8630 0.8630 0.8640
2327.160839 0.8650 0.8650 0.8650 0.8640 0.8630
2333.550630 0.8630 0.8630 0.8630 0.8630 0.8630
2339.940421 0.8630 0.8630 0.8630 0.8630 0.8630
2346.330212 0.8630 0.8630 0.8630 0.8630 0.8630
2352.720003 0.8630 0.8630 0.8630 0.8630 0.8630
2359.109794 0.8630 0.8630 0.8630 0.8630 0.8630
2365.499585 0.8630 0.8630 0.8630 0.8630 0.8630
2371.889376 0.8620 0.8610 0.8610 0.8610 0.8610
2378.279167 0.8610 0.8610 0.8610 0.8605 0.8600
2384.668957 0.8600 0.8600 0.8600 0.8600 0.8600
2391.058748 0.8600 0.8590 0.8580 0.8570 0.8560
2397.448539 0.8545 0.8530 0.8500 0.8470 0.8465
2403.838330 0.8460 0.8450 0.8440 0.8415 0.8390
2410.228121 0.8370 0.8350 0.8305 0.8260 0.8220
2416.617912 0.8180 0.8125 0.8070 0.8055 0.8040
2423.007703 0.8040 0.8040 0.8099 0.8159 0.8239
2429.397494 0.8318 0.8354 0.8389 0.8425 0.8460
2435.787285 0.8485 0.8510 0.8520 0.8530 0.8535
2442.177076 0.8540 0.8550 0.8560 0.8560 0.8560
2448.566867 0.8560 0.8560 0.8550 0.8540 0.8540
2454.956658 0.8540 0.8535 0.8530 0.8520 0.8510
2461.346448 0.8500 0.8490 0.8490 0.8490 0.8490
2467.736239 0.8490 0.8500 0.8510 0.8510 0.8510
2474.126030 0.8520 0.8530 0.8535 0.8540 0.8540
2480.515821 0.8540 0.8540 0.8540 0.8540 0.8540
2486.905612 0.8540 0.8540 0.8540 0.8540 0.8550
2493.295403 0.8560 0.8570 0.8580 0.8580 0.8580
2499.685194 0.8590 0.8600 0.8605 0.8610 0.8610
2506.074985 0.8610 0.8610 0.8610 0.8610 0.8610
2512.464776 0.8605 0.8600 0.8600 0.8600 0.8590
2518.854567 0.8580 0.8570 0.8560 0.8550 0.8540
2525.244358 0.8540 0.8540 0.8535 0.8530 0.8530
2531.634149 0.8530 0.8520 0.8510 0.8500 0.8490
2538.023939 0.8480 0.8470 0.8465 0.8460 0.8460
2544.413730 0.8460 0.8465 0.8470 0.8480 0.8490
2550.803521 0.8500 0.8510 0.8510 0.8510 0.8520
2557.193312 0.8530 0.8535 0.8540 0.8550 0.8560
2563.583103 0.8570 0.8580 0.8580 0.8580 0.8580
2569.972894 0.8580 0.8590 0.8600 0.8605 0.8610
2576.362685 0.8610 0.8610 0.8610 0.8610 0.8620
2582.752476 0.8630 0.8630 0.8630 0.8630 0.8630
2589.142267 0.8640 0.8650 0.8650 0.8650 0.8650
2595.532058 0.8650 0.8650 0.8650 0.8640 0.8630
2601.921849 0.8630 0.8630 0.8630 0.8630 0.8630
2608.311640 0.8630 0.8630 0.8630 0.8630 0.8630
2614.701431 0.8620 0.8610 0.8610 0.8610 0.8610
2621.091221 0.8610 0.8610 0.8610 0.8605 0.8600
2627.481012 0.8600 0.8600 0.8600 0.8600 0.8590
2633.870803 0.8580 0.8580 0.8580 0.8580 0.8580
2640.260594 0.8580 0.8580 0.8580 0.8580 0.8590
2646.650385 0.8600 0.8600 0.8600 0.8605 0.8610
2653.040176 0.8610 0.8610 0.8620 0.8630 0.8630
2659.429967 0.8630 0.8620 0.8610 0.8605 0.8600
2665.819758 0.8600 0.8600 0.8600 0.8600 0.8600
2672.209549 0.8600 0.8590 0.8580 0.8580 0.8580
2678.599340 0.8570 0.8560 0.8560 0.8560 0.8560
2684.989131 0.8560 0.8560 0.8560 0.8560 0.8560
2691.378922 0.8560 0.8560 0.8560 0.8560 0.8550
2697.768712 0.8540 0.8535 0.8530 0.8510 0.8490
2704.158503 0.8475 0.8460 0.8440 0.8420 0.8410
2710.548294 0.8400 0.8395 0.8390 0.8390 0.8390
2716.938085 0.8380 0.8370 0.8370 0.8370 0.8370
2723.327876 0.8370 0.8370 0.8370 0.8360 0.8350
2729.717667 0.8340 0.8330 0.8325 0.8320 0.8320
2736.107458 0.8320 0.8188 0.8053 0.8045 0.8040
2742.497249 0.8045 0.8050 0.8105 0.8160 0.8205
2748.887040 0.8250 0.8255 0.8260 0.8290 0.8320
2755.276831 0.8325 0.8330 0.8340 0.8350 0.8360
2761.666622 0.8370 0.8370 0.8370 0.8380 0.8390
2768.056413 0.8390 0.8390 0.8390 0.8390 0.8390
2774.446203 0.8390 0.8395 0.8400 0.8400 0.8400
2780.835994 0.8400 0.8400 0.8400 0.8400 0.8400
2787.225785 0.8400 0.8400 0.8400 0.8400 0.8400
2793.615576 0.8400 0.8400 0.8410 0.8420 0.8420
2800.005367 0.8420 0.8430 0.8440 0.8440 0.8440
2806.395158 0.8440 0.8440 0.8440 0.8440 0.8440
2812.784949 0.8440 0.8430 0.8420 0.8405 0.8390
2819.174740 0.8390 0.8390 0.8380 0.8370 0.8370
2825.564531 0.8370 0.8360 0.8350 0.8350 0.8350
2831.954322 0.8350 0.8350 0.8350 0.8350 0.8350
2838.344113 0.8350 0.8340 0.8330 0.8315 0.8300
2844.733904 0.8290 0.8280 0.8265 0.8250 0.8215
2851.123694 0.8180 0.8160 0.8140 0.8130 0.8120
2857.513485 0.8051 0.7981 0.7965 0.7950 0.7896
2863.903276 0.7841 0.7801 0.7761 0.7740 0.7720
2870.293067 0.7650 0.7580 0.7505 0.7430 0.7375
2876.682858 0.7320 0.7305 0.7290 0.7280 0.7270
2883.072649 0.7260 0.7250 0.7250 0.7250 0.7240
2889.462440 0.7230 0.7215 0.7200 0.7190 0.7180
2895.852231 0.7100 0.7020 0.6935 0.6850 0.6745
2902.242022 0.6640 0.6501 0.6361 0.6201 0.6042
2908.631813 0.5902 0.5762 0.5760 0.5760 0.5824
2915.021604 0.5889 0.6032 0.6177 0.6314 0.6450
2921.411395 0.6545 0.6640 0.6735 0.6830 0.6840
2927.801185 0.6850 0.6830 0.6810 0.6795 0.6780
2934.190976 0.6770 0.6760 0.6129 0.5490 0.5224
2940.580767 0.4965 0.4867 0.4772 0.4770 0.4771
2946.970558 0.4946 0.5120 0.5215 0.5310 0.5499
2953.360349 0.5689 0.5874 0.6059 0.6119 0.6179
2959.750140 0.6244 0.6309 0.6349 0.6389 0.6419
2966.139931 0.6449 0.6465 0.6480 0.6490 0.6500
2972.529722 0.6510 0.6520 0.6510 0.6500 0.6395
2978.919513 0.6290 0.6126 0.5961 0.5717 0.5472
2985.309304 0.5297 0.5122 0.4913 0.4703 0.4612
2991.699095 0.4522 0.4520 0.4520 0.4634 0.4751
2998.088886 0.4916 0.5080 0.5280 0.5480 0.5585
3004.478677 0.5690 0.5789 0.5889 0.6054 0.6218
3010.868467 0.6314 0.6409 0.6504 0.6599 0.6703
3017.258258 0.6808 0.6942 0.7077 0.7184 0.7290
3023.648049 0.7385 0.7480 0.7515 0.7550 0.7610
3030.037840 0.7670 0.7720 0.7770 0.7849 0.7929
3036.427631 0.7950 0.7970 0.8009 0.8049 0.8114
3042.817422 0.8179 0.8195 0.8210 0.8235 0.8260
3049.207213 0.8290 0.8320 0.8335 0.8350 0.8360
3055.597004 0.8370 0.8380 0.8390 0.8405 0.8420
3061.986795 0.8445 0.8470 0.8490 0.8510 0.8520
3068.376586 0.8530 0.8530 0.8530 0.8530 0.8530
3074.766377 0.8535 0.8540 0.8540 0.8540 0.8550
3081.156168 0.8560 0.8560 0.8560 0.8570 0.8580
3087.545958 0.8580 0.8580 0.8580 0.8580 0.8580
3093.935749 0.8580 0.8580 0.8580 0.8580 0.8580
3100.325540 0.8580 0.8580 0.8590 0.8600 0.8605
3106.715331 0.8610 0.8620 0.8630 0.8640 0.8650
3113.105122 0.8650 0.8650 0.8650 0.8650 0.8650
3119.494913 0.8650 0.8660 0.8670 0.8675 0.8680
3125.884704 0.8680 0.8680 0.8690 0.8700 0.8700
3132.274495 0.8700 0.8710 0.8720 0.8720 0.8720
3138.664286 0.8720 0.8720 0.8720 0.8720 0.8720
3145.054077 0.8720 0.8720 0.8720 0.8720 0.8720
3151.443868 0.8720 0.8720 0.8720 0.8720 0.8730
3157.833659 0.8740 0.8740 0.8740 0.8740 0.8740
3164.223449 0.8740 0.8740 0.8740 0.8740 0.8740
3170.613240 0.8740 0.8740 0.8740 0.8740 0.8740
3177.003031 0.8740 0.8740 0.8740 0.8740 0.8740
3183.392822 0.8740 0.8740 0.8740 0.8740 0.8740
3189.782613 0.8740 0.8740 0.8740 0.8740 0.8740
3196.172404 0.8740 0.8740 0.8740 0.8740 0.8740
3202.562195 0.8730 0.8720 0.8720 0.8720 0.8710
3208.951986 0.8700 0.8700 0.8700 0.8700 0.8700
3215.341777 0.8700 0.8700 0.8700 0.8700 0.8700
3221.731568 0.8700 0.8700 0.8700 0.8710 0.8720
3228.121359 0.8720 0.8720 0.8730 0.8740 0.8740
3234.511150 0.8740 0.8745 0.8750 0.8750 0.8750
3240.900940 0.8760 0.8770 0.8770 0.8770 0.8780
3247.290731 0.8790 0.8790 0.8790 0.8790 0.8790
3253.680522 0.8790 0.8790 0.8790 0.8790 0.8790
3260.070313 0.8790 0.8790 0.8790 0.8790 0.8790
3266.460104 0.8780 0.8770 0.8770 0.8770 0.8760
3272.849895 0.8750 0.8745 0.8740 0.8740 0.8740
3279.239686 0.8740 0.8740 0.8740 0.8740 0.8745
3285.629477 0.8750 0.8750 0.8750 0.8760 0.8770
3292.019268 0.8770 0.8770 0.8780 0.8790 0.8800
3298.409059 0.8810 0.8810 0.8810 0.8815 0.8820
3304.798850 0.8830 0.8840 0.8840 0.8840 0.8825
3311.188641 0.8810 0.8810 0.8810 0.8800 0.8790
3317.578431 0.8790 0.8790 0.8780 0.8770 0.8760
3323.968222 0.8750 0.8750 0.8750 0.8760 0.8770
3330.358013 0.8770 0.8770 0.8780 0.8790 0.8790
3336.747804 0.8790 0.8790 0.8790 0.8790 0.8790
3343.137595 0.8790 0.8790 0.8790 0.8790 0.8790
3349.527386 0.8790 0.8790 0.8790 0.8790 0.8790
3355.917177 0.8800 0.8810 0.8810 0.8810 0.8810
3362.306968 0.8810 0.8810 0.8810 0.8815 0.8820
3368.696759 0.8820 0.8820 0.8820 0.8820 0.8820
3375.086550 0.8820 0.8820 0.8820 0.8820 0.8820
3381.476341 0.8820 0.8820 0.8820 0.8820 0.8815
3387.866132 0.8810 0.8815 0.8820 0.8820 0.8820
3394.255922 0.8820 0.8820 0.8820 0.8820 0.8820
3400.645713 0.8820 0.8830 0.8840 0.8840 0.8840
3407.035504 0.8840 0.8840 0.8830 0.8820 0.8820
3413.425295 0.8820 0.8815 0.8810 0.8815 0.8820
3419.815086 0.8830 0.8840 0.8840 0.8840 0.8840
3426.204877 0.8840 0.8830 0.8820 0.8815 0.8810
3432.594668 0.8815 0.8820 0.8820 0.8820 0.8820
3438.984459 0.8820 0.8830 0.8840 0.8840 0.8840
3445.374250 0.8840 0.8840 0.8850 0.8860 0.8860
3451.764041 0.8860 0.8860 0.8860 0.8850 0.8840
3458.153832 0.8830 0.8820 0.8820 0.8820 0.8820
3464.543623 0.8820 0.8830 0.8840 0.8840 0.8840
3470.933414 0.8850 0.8860 0.8860 0.8860 0.8850
3477.323204 0.8840 0.8840 0.8840 0.8830 0.8820
3483.712995 0.8805 0.8790 0.8790 0.8790 0.8835
3490.102786 0.8880 0.8895 0.8910 0.8875 0.8840
3496.492577 0.8830 0.8820 0.8820 0.8820 0.8820
3502.882368 0.8820 0.8830 0.8840 0.8840 0.8840
3509.272159 0.8840 0.8840 0.8840 0.8840 0.8850
3515.661950 0.8860 0.8885 0.8910 0.8910 0.8910
3522.051741 0.8875 0.8840 0.8830 0.8820 0.8820
3528.441532 0.8820 0.8820 0.8820 0.8815 0.8810
3534.831323 0.8810 0.8810 0.8825 0.8840 0.8860
3541.221114 0.8880 0.8895 0.8910 0.8910 0.8910
3547.610905 0.8865 0.8821 0.8820 0.8820 0.8830
3554.000695 0.8840 0.8860 0.8880 0.8880 0.8880
3560.390486 0.8870 0.8860 0.8850 0.8840 0.8850
3566.780277 0.8860 0.8860 0.8860 0.8870 0.8880
3573.170068 0.8895 0.8910 0.8910 0.8910 0.8920
3579.559859 0.8930 0.8920 0.8910 0.8875 0.8840
3585.949650 0.8830 0.8820 0.8820 0.8820 0.8820
3592.339441 0.8820 0.8815 0.8810 0.8810 0.8810
3598.729232 0.8835 0.8860 0.8875 0.8890 0.8900
3605.119023 0.8910 0.8910 0.8910 0.8865 0.8820
3611.508814 0.8820 0.8820 0.8840 0.8860 0.8885
3617.898605 0.8910 0.8920 0.8930 0.8920 0.8910
3624.288396 0.8895 0.8880 0.8880 0.8880 0.8870
3630.678186 0.8860 0.8860 0.8860 0.8860 0.8860
3637.067977 0.8875 0.8890 0.8900 0.8910 0.8900
3643.457768 0.8890 0.8885 0.8880 0.8870 0.8860
3649.847559 0.8860 0.8860 0.8850 0.8840 0.8830
3656.237350 0.8820 0.8830 0.8840 0.8875 0.8910
3662.627141 0.8930 0.8950 0.8950 0.8950 0.8895
3669.016932 0.8840 0.8830 0.8820 0.8820 0.8820
3675.406723 0.8820 0.8820 0.8820 0.8820 0.8820
3681.796514 0.8820 0.8815 0.8810 0.8790 0.8770
3688.186305 0.8770 0.8770 0.8770 0.8770 0.8770
3694.576096 0.8770 0.8780 0.8790 0.8815 0.8840
3700.965887 0.8899 0.8959 0.8960 0.8960 0.8911
3707.355677 0.8861 0.8850 0.8840 0.8840 0.8840
3713.745468 0.8850 0.8860 0.8875 0.8890 0.8890
3720.135259 0.8890 0.8900 0.8910 0.8930 0.8950
3726.525050 0.8950 0.8950 0.8930 0.8910 0.8910
3732.914841 0.8910 0.8930 0.8950 0.8965 0.8980
3739.304632 0.8970 0.8960 0.8945 0.8930 0.8910
3745.694423 0.8890 0.8885 0.8880 0.8870 0.8860
3752.084214 0.8860 0.8860 0.8850 0.8840 0.8840
3758.474005 0.8840 0.8840 0.8840 0.8840 0.8840
3764.863796 0.8840 0.8840 0.8850 0.8860 0.8870
3771.253587 0.8880 0.8860 0.8840 0.8825 0.8810
3777.643378 0.8790 0.8770 0.8770 0.8770 0.8795
3784.033168 0.8820 0.8840 0.8860 0.8870
##END=
