##TITLE=2,3-DIMETHYLBUTANE
##JCAMP-DX=4.24
##DATA TYPE=INFRARED SPECTRUM
##CLASS=COBLENTZ III
##ORIGIN=DOW CHEMICAL COMPANY
##OWNER=COBLENTZ SOCIETY
Collection (C) 2018 copyright by the U.S. Secretary of Commerce
on behalf of the United States of America. All rights reserved.
##DATE=1960/12/30
##CAS REGISTRY NO=79-29-8
##MOLFORM=C6 H14
##SOURCE REFERENCE=COBLENTZ NO. 6477
##$NIST SOURCE=COBLENTZ
##$NIST IMAGE=cob6477
##SPECTROMETER/DATA SYSTEM=DOW KBr FOREPRISM-GRATING
##INSTRUMENT PARAMETERS=BLAZED AT 3.5, 12.0, 20.0 MICRON AND CHANGED AT 5.0, 7.5, 14.9 MICRON
##STATE=SOLUTION (10% CCl4 FOR 3800-1330, 10% CS2 FOR 1330-450 CM^-^1)
##PATH LENGTH=0.012 CM, 0.011 CM
$$SPECTRAL CONTAMINATION DUE TO CS2 AROUND 850, AND CCl4 AROUND 1550 CM^-^1
$$ SEE SPECTRUM NO. 6554 FOR "LIQUID(NEAT)" RUN
##SAMPLING PROCEDURE=TRANSMISSION
##RESOLUTION=2
##DATA PROCESSING=DIGITIZED BY NIST FROM HARD COPY (FROM TWO SEGMENTS)
##XUNITS=1/CM
##YUNITS=TRANSMITTANCE
##XFACTOR=1.000000
##YFACTOR=1
##DELTAX=0.875657
##FIRSTX=441.331
##LASTX=3800.35
##FIRSTY=0.964
##MAXX=3800.35
##MINX=441.331
##MAXY=1.076
##MINY=0.004
##NPOINTS=3837
##XYDATA=(X++(Y..Y))
441.331000 0.9640 0.9640 0.9650 0.9650 0.9670
445.709284 0.9670 0.9680 0.9680 0.9690 0.9690
450.087567 0.9710 0.9710 0.9720 0.9720 0.9730
454.465851 0.9730 0.9730 0.9750 0.9750 0.9760
458.844135 0.9760 0.9780 0.9780 0.9780 0.9790
463.222419 0.9800 0.9820 0.9820 0.9830 0.9840
467.600702 0.9840 0.9860 0.9870 0.9870 0.9890
471.978986 0.9900 0.9900 0.9910 0.9930 0.9930
476.357270 0.9940 0.9940 0.9950 0.9950 0.9970
480.735553 0.9980 1.0000 1.0000 1.0010 1.0010
485.113837 1.0020 1.0040 1.0040 1.0050 1.0050
489.492121 1.0060 1.0060 1.0080 1.0080 1.0090
493.870404 1.0090 1.0100 1.0100 1.0120 1.0120
498.248688 1.0130 1.0130 1.0160 1.0160 1.0170
502.626972 1.0170 1.0190 1.0190 1.0200 1.0200
507.005256 1.0200 1.0200 1.0200 1.0200 1.0200
511.383539 1.0200 1.0200 1.0200 1.0200 1.0200
515.761823 1.0200 1.0200 1.0200 1.0200 1.0200
520.140107 1.0200 1.0200 1.0200 1.0200 1.0210
524.518390 1.0200 1.0200 1.0190 1.0200 1.0200
528.896674 1.0190 1.0170 1.0150 1.0100 1.0060
533.274958 1.0010 0.9970 0.9930 0.9731 0.9720
537.653242 0.9730 0.9860 0.9890 1.0060 1.0150
542.031525 1.0230 1.0300 1.0310 1.0350 1.0360
546.409809 1.0410 1.0410 1.0420 1.0420 1.0420
550.788093 1.0430 1.0430 1.0430 1.0430 1.0430
555.166376 1.0430 1.0430 1.0420 1.0420 1.0420
559.544660 1.0420 1.0420 1.0420 1.0420 1.0420
563.922944 1.0420 1.0420 1.0420 1.0420 1.0420
568.301228 1.0430 1.0420 1.0420 1.0420 1.0420
572.679511 1.0420 1.0420 1.0420 1.0420 1.0410
577.057795 1.0410 1.0390 1.0390 1.0390 1.0390
581.436079 1.0390 1.0390 1.0390 1.0390 1.0410
585.814362 1.0420 1.0420 1.0420 1.0420 1.0430
590.192646 1.0450 1.0430 1.0450 1.0450 1.0450
594.570930 1.0450 1.0450 1.0460 1.0460 1.0460
598.949213 1.0460 1.0460 1.0470 1.0470 1.0470
603.327497 1.0470 1.0470 1.0470 1.0470 1.0470
607.705781 1.0470 1.0470 1.0460 1.0460 1.0460
612.084065 1.0460 1.0450 1.0430 1.0430 1.0430
616.462348 1.0430 1.0420 1.0420 1.0420 1.0420
620.840632 1.0420 1.0420 1.0420 1.0420 1.0420
625.218916 1.0410 1.0410 1.0390 1.0380 1.0380
629.597199 1.0360 1.0340 1.0320 1.0310 1.0300
633.975483 1.0280 1.0270 1.0260 1.0240 1.0210
638.353767 1.0200 1.0200 1.0200 1.0190 1.0190
642.732051 1.0160 1.0160 1.0160 1.0160 1.0160
647.110334 1.0160 1.0170 1.0170 1.0190 1.0190
651.488618 1.0200 1.0210 1.0230 1.0240 1.0260
655.866902 1.0280 1.0300 1.0310 1.0340 1.0350
660.245185 1.0380 1.0390 1.0410 1.0430 1.0460
664.623469 1.0490 1.0520 1.0560 1.0570 1.0580
669.001753 1.0600 1.0610 1.0630 1.0640 1.0650
673.380037 1.0650 1.0650 1.0650 1.0650 1.0650
677.758320 1.0650 1.0650 1.0650 1.0650 1.0650
682.136604 1.0650 1.0650 1.0650 1.0650 1.0650
686.514888 1.0650 1.0640 1.0640 1.0640 1.0640
690.893171 1.0640 1.0640 1.0630 1.0630 1.0630
695.271455 1.0630 1.0610 1.0610 1.0610 1.0610
699.649739 1.0610 1.0610 1.0610 1.0610 1.0600
704.028022 1.0600 1.0580 1.0580 1.0570 1.0570
708.406306 1.0570 1.0560 1.0560 1.0540 1.0540
712.784590 1.0540 1.0540 1.0540 1.0540 1.0530
717.162874 1.0490 1.0450 1.0410 1.0360 1.0340
721.541157 1.0310 1.0300 1.0310 1.0380 1.0430
725.919441 1.0490 1.0580 1.0670 1.0680 1.0690
730.297725 1.0690 1.0710 1.0720 1.0720 1.0720
734.676008 1.0730 1.0730 1.0730 1.0750 1.0750
739.054292 1.0760 1.0760 1.0760 1.0760 1.0760
743.432576 1.0760 1.0760 1.0760 1.0760 1.0760
747.810860 1.0760 1.0760 1.0760 1.0760 1.0760
752.189143 1.0760 1.0760 1.0760 1.0760 1.0760
756.567427 1.0760 1.0760 1.0760 1.0760 1.0760
760.945711 1.0760 1.0760 1.0760 1.0760 1.0750
765.323994 1.0750 1.0750 1.0750 1.0730 1.0730
769.702278 1.0730 1.0720 1.0720 1.0720 1.0690
774.080562 1.0690 1.0680 1.0680 1.0670 1.0650
778.458846 1.0650 1.0650 1.0650 1.0650 1.0650
782.837129 1.0650 1.0650 1.0650 1.0670 1.0670
787.215413 1.0670 1.0670 1.0670 1.0670 1.0670
791.593697 1.0670 1.0680 1.0680 1.0680 1.0680
795.971980 1.0680 1.0680 1.0670 1.0670 1.0650
800.350264 1.0640 1.0640 1.0640 1.0640 1.0640
804.728548 1.0640 1.0640 1.0640 1.0640 1.0640
809.106831 1.0650 1.0650 1.0650 1.0650 1.0640
813.485115 1.0640 1.0630 1.0630 1.0630 1.0630
817.863399 1.0630 1.0630 1.0610 1.0610 1.0600
822.241683 1.0600 1.0580 1.0580 1.0560 1.0560
826.619966 1.0540 1.0530 1.0500 1.0470 1.0460
830.998250 1.0430 1.0420 1.0360 1.0320 1.0300
835.376534 1.0240 1.0210 1.0160 1.0080 1.0020
839.754817 1.0000 0.9970 0.9910 0.9840 0.9780
844.133101 0.9670 0.9540 0.9360 0.9270 0.9170
848.511385 0.9080 0.9010 0.8940 0.8890 0.8830
852.889669 0.8800 0.8780 0.8750 0.8750 0.8730
857.267952 0.8720 0.8710 0.8680 0.8640 0.8580
861.646236 0.8530 0.8470 0.8420 0.8350 0.8310
866.024520 0.8300 0.8310 0.8469 0.8560 0.8938
870.402803 0.9210 0.9310 0.9450 0.9530 0.9600
874.781087 0.9680 0.9730 0.9760 0.9790 0.9870
879.159371 0.9940 0.9950 1.0040 1.0090 1.0130
883.537654 1.0170 1.0200 1.0240 1.0270 1.0280
887.915938 1.0280 1.0300 1.0310 1.0310 1.0320
892.294222 1.0310 1.0310 1.0310 1.0310 1.0300
896.672506 1.0280 1.0270 1.0260 1.0240 1.0240
901.050789 1.0240 1.0230 1.0200 1.0150 1.0040
905.429073 1.0010 0.9980 0.9940 0.9840 0.9820
909.807357 0.9820 0.9820 0.9820 0.9820 0.9830
914.185640 0.9830 0.9840 0.9860 0.9870 0.9930
918.563924 1.0000 1.0000 1.0060 1.0100 1.0130
922.942208 1.0170 1.0190 1.0190 1.0210 1.0230
927.320492 1.0240 1.0260 1.0260 1.0260 1.0260
931.698775 1.0270 1.0280 1.0280 1.0300 1.0310
936.077059 1.0310 1.0310 1.0310 1.0310 1.0310
940.455343 1.0310 1.0300 1.0300 1.0280 1.0270
944.833626 1.0260 1.0210 1.0200 1.0190 1.0190
949.211910 1.0190 1.0190 1.0210 1.0230 1.0240
953.590194 1.0260 1.0270 1.0300 1.0310 1.0320
957.968478 1.0340 1.0340 1.0340 1.0340 1.0340
962.346761 1.0340 1.0340 1.0340 1.0340 1.0340
966.725045 1.0340 1.0340 1.0320 1.0320 1.0320
971.103329 1.0310 1.0300 1.0280 1.0270 1.0210
975.481612 1.0200 1.0190 1.0160 1.0000 0.9950
979.859896 0.9910 0.9780 0.9601 0.8804 0.8720
984.238180 0.8640 0.8500 0.8470 0.8500 0.8560
988.616463 0.8610 0.8730 0.9378 0.9629 0.9829
992.994747 1.0080 1.0150 1.0200 1.0240 1.0260
997.373031 1.0280 1.0310 1.0340 1.0340 1.0350
1001.751315 1.0360 1.0360 1.0350 1.0360 1.0360
1006.129598 1.0360 1.0360 1.0350 1.0350 1.0340
1010.507882 1.0320 1.0310 1.0300 1.0270 1.0230
1014.886166 1.0210 1.0190 1.0150 1.0021 0.9980
1019.264449 0.9940 0.9890 0.9830 0.9750 0.9610
1023.642733 0.9490 0.9231 0.9041 0.8891 0.8761
1028.021017 0.8670 0.8570 0.8470 0.8360 0.8210
1032.399301 0.8021 0.7581 0.7421 0.7380 0.7360
1036.777584 0.7380 0.7750 0.8579 0.9079 0.9419
1041.155868 0.9729 0.9939 1.0060 1.0100 1.0160
1045.534152 1.0170 1.0170 1.0170 1.0170 1.0170
1049.912435 1.0170 1.0170 1.0160 1.0130 1.0130
1054.290719 1.0060 1.0000 0.9980 0.9950 0.9800
1058.669003 0.9720 0.9640 0.9560 0.9530 0.9540
1063.047287 0.9610 0.9680 0.9760 0.9830 0.9900
1067.425570 1.0100 1.0160 1.0190 1.0200 1.0210
1071.803854 1.0240 1.0260 1.0270 1.0300 1.0320
1076.182138 1.0340 1.0340 1.0350 1.0360 1.0360
1080.560421 1.0360 1.0360 1.0360 1.0360 1.0360
1084.938705 1.0360 1.0360 1.0360 1.0360 1.0360
1089.316989 1.0360 1.0360 1.0360 1.0360 1.0360
1093.695272 1.0360 1.0360 1.0350 1.0340 1.0320
1098.073556 1.0300 1.0270 1.0230 1.0210 1.0190
1102.451840 1.0190 1.0170 1.0160 1.0150 1.0080
1106.830124 1.0040 1.0010 0.9970 0.9940 0.9790
1111.208407 0.9710 0.9560 0.9421 0.9211 0.9041
1115.586691 0.8830 0.8580 0.8310 0.8011 0.7641
1119.964975 0.7241 0.6792 0.6272 0.5952 0.5940
1124.343258 0.5950 0.6130 0.6430 0.6939 0.7409
1128.721542 0.7829 0.8189 0.8519 0.8779 0.8999
1133.099826 0.9160 0.9270 0.9310 0.9320 0.9320
1137.478110 0.9320 0.9310 0.9270 0.9210 0.9170
1141.856393 0.9130 0.9080 0.9010 0.8930 0.8800
1146.234677 0.8640 0.8431 0.8350 0.8230 0.8210
1150.612961 0.8230 0.8410 0.8600 0.8820 0.9020
1154.991244 0.9190 0.9349 0.9489 0.9600 0.9709
1159.369528 0.9790 0.9840 0.9890 0.9940 0.9950
1163.747812 1.0000 1.0020 1.0060 1.0080 1.0100
1168.126096 1.0120 1.0150 1.0150 1.0160 1.0160
1172.504379 1.0190 1.0190 1.0190 1.0200 1.0200
1176.882663 1.0200 1.0210 1.0210 1.0230 1.0230
1181.260947 1.0230 1.0240 1.0240 1.0240 1.0240
1185.639230 1.0240 1.0260 1.0260 1.0260 1.0240
1190.017514 1.0260 1.0260 1.0270 1.0270 1.0280
1194.395798 1.0300 1.0300 1.0310 1.0340 1.0380
1198.774081 1.0410 1.0410 1.0420 1.0430 1.0430
1203.152365 1.0430 1.0450 1.0450 1.0450 1.0460
1207.530649 1.0460 1.0460 1.0460 1.0470 1.0470
1211.908933 1.0470 1.0470 1.0470 1.0470 1.0470
1216.287216 1.0470 1.0470 1.0470 1.0470 1.0470
1220.665500 1.0470 1.0470 1.0470 1.0470 1.0470
1225.043784 1.0470 1.0470 1.0470 1.0470 1.0460
1229.422067 1.0460 1.0450 1.0430 1.0430 1.0420
1233.800351 1.0410 1.0410 1.0410 1.0390 1.0390
1238.178635 1.0390 1.0380 1.0360 1.0340 1.0280
1242.556919 1.0240 1.0230 1.0230 1.0230 1.0230
1246.935202 1.0230 1.0210 1.0210 1.0210 1.0210
1251.313486 1.0210 1.0210 1.0200 1.0200 1.0200
1255.691770 1.0200 1.0200 1.0190 1.0190 1.0190
1260.070053 1.0170 1.0160 1.0120 1.0090 1.0060
1264.448337 1.0050 1.0010 1.0000 0.9970 0.9940
1268.826621 0.9890 0.9800 0.9790 0.9760 0.9690
1273.204904 0.9540 0.9380 0.9310 0.9230 0.9210
1277.583188 0.9230 0.9260 0.9320 0.9420 0.9490
1281.961472 0.9530 0.9570 0.9580 0.9580 0.9580
1286.339756 0.9580 0.9570 0.9520 0.9490 0.9420
1290.718039 0.9350 0.9280 0.9230 0.9190 0.9120
1295.096323 0.9090 0.9060 0.9060 0.9060 0.9060
1299.474607 0.9080 0.9080 0.9090 0.9120 0.9130
1303.852890 0.9150 0.9150 0.9160 0.9190 0.9200
1308.231174 0.9210 0.9270 0.9280 0.9310 0.9310
1312.609458 0.9320 0.9340 0.9380 0.9390 0.9410
1316.987742 0.9410 0.9420 0.9420 0.9410 0.9390
1321.366025 0.9380 0.9360 0.9350 0.9340 0.9320
1325.744309 0.9320 0.9310 0.9310 0.9300 0.9310
1330.122593 0.9300 0.9300 0.9300 0.9280 0.9280
1334.500876 0.9260 0.9230 0.9230 0.9210 0.9210
1338.879160 0.9200 0.9170 0.9130 0.9090 0.9050
1343.257444 0.9010 0.8980 0.8950 0.8910 0.8840
1347.635728 0.8780 0.8710 0.8650 0.8610 0.8600
1352.014011 0.8540 0.8490 0.8420 0.8350 0.8260
1356.392295 0.8150 0.8000 0.7731 0.7501 0.7261
1360.770579 0.6900 0.6411 0.5671 0.4413 0.3911
1365.148862 0.3531 0.2345 0.1105 0.1090 0.1100
1369.527146 0.1150 0.1490 0.2559 0.3339 0.3340
1373.905430 0.3340 0.3320 0.3320 0.1846 0.1084
1378.283713 0.1080 0.1080 0.1090 0.1339 0.1789
1382.661997 0.2418 0.4144 0.4150 0.4100 0.4050
1387.040281 0.4040 0.4000 0.3930 0.3900 0.3900
1391.418565 0.3910 0.4668 0.6892 0.7308 0.7579
1395.796848 0.7780 0.7910 0.8060 0.8230 0.8360
1400.175132 0.8460 0.8490 0.8520 0.8520 0.8560
1404.553416 0.8580 0.8600 0.8600 0.8600 0.8600
1408.931699 0.8600 0.8580 0.8570 0.8540 0.8500
1413.309983 0.8490 0.8490 0.8470 0.8470 0.8460
1417.688267 0.8430 0.8390 0.8310 0.8300 0.8270
1422.066551 0.8230 0.8170 0.8120 0.8050 0.8000
1426.444834 0.7930 0.7840 0.7760 0.7651 0.7561
1430.823118 0.7460 0.7380 0.7310 0.7230 0.7160
1435.201402 0.7060 0.6970 0.6840 0.6711 0.6541
1439.579685 0.6350 0.6120 0.5860 0.5541 0.5171
1443.957969 0.4831 0.4800 0.4800 0.4790 0.4790
1448.336253 0.4750 0.4540 0.4310 0.4050 0.3781
1452.714537 0.3461 0.3121 0.2731 0.2312 0.1862
1457.092820 0.1340 0.1120 0.0890 0.0461 0.0430
1461.471104 0.0430 0.0430 0.0430 0.0430 0.0430
1465.849388 0.0450 0.0540 0.1210 0.1609 0.2009
1470.227671 0.2389 0.2749 0.3089 0.3359 0.3599
1474.605955 0.3760 0.3910 0.4130 0.4429 0.4759
1478.984239 0.5119 0.5459 0.5799 0.6089 0.6319
1483.362522 0.6540 0.6730 0.6910 0.7080 0.7230
1487.740806 0.7350 0.7450 0.7530 0.7570 0.7570
1492.119090 0.7560 0.7570 0.7570 0.7570 0.7580
1496.497374 0.7580 0.7580 0.7580 0.7580 0.7600
1500.875657 0.7580 0.7580 0.7570 0.7560 0.7570
1505.253941 0.7570 0.7540 0.7520 0.7470 0.7430
1509.632225 0.7410 0.7380 0.7360 0.7360 0.7300
1514.010508 0.7260 0.7260 0.7240 0.7240 0.7200
1518.388792 0.7200 0.7190 0.7170 0.7150 0.7100
1522.767076 0.7060 0.7010 0.6970 0.6900 0.6840
1527.145360 0.6780 0.6710 0.6630 0.6540 0.6470
1531.523643 0.6390 0.6310 0.6210 0.6130 0.6050
1535.901927 0.5950 0.5860 0.5750 0.5640 0.5520
1540.280211 0.5420 0.5310 0.5230 0.5130 0.5060
1544.658494 0.5010 0.4970 0.4940 0.4930 0.4900
1549.036778 0.4890 0.4900 0.4930 0.4940 0.4980
1553.415062 0.5020 0.5080 0.5130 0.5210 0.5300
1557.793346 0.5410 0.5530 0.5669 0.5680 0.5730
1562.171629 0.5820 0.5930 0.6080 0.6160 0.6240
1566.549913 0.6360 0.6390 0.6450 0.6609 0.6680
1570.928197 0.6760 0.6780 0.6860 0.6910 0.6930
1575.306480 0.6940 0.6940 0.6950 0.6970 0.7000
1579.684764 0.7040 0.7060 0.7060 0.7080 0.7090
1584.063048 0.7130 0.7170 0.7230 0.7280 0.7350
1588.441331 0.7420 0.7500 0.7570 0.7650 0.7730
1592.819615 0.7820 0.7900 0.7980 0.8060 0.8150
1597.197899 0.8230 0.8310 0.8410 0.8520 0.8630
1601.576183 0.8730 0.8750 0.8840 0.8870 0.8940
1605.954466 0.9010 0.9090 0.9160 0.9210 0.9280
1610.332750 0.9320 0.9340 0.9340 0.9380 0.9390
1614.711034 0.9410 0.9420 0.9430 0.9450 0.9450
1619.089317 0.9460 0.9460 0.9460 0.9460 0.9460
1623.467601 0.9460 0.9460 0.9460 0.9460 0.9460
1627.845885 0.9460 0.9460 0.9460 0.9460 0.9460
1632.224169 0.9460 0.9460 0.9460 0.9460 0.9460
1636.602452 0.9460 0.9470 0.9470 0.9470 0.9470
1640.980736 0.9470 0.9470 0.9490 0.9490 0.9500
1645.359020 0.9500 0.9520 0.9520 0.9520 0.9530
1649.737303 0.9530 0.9540 0.9560 0.9560 0.9570
1654.115587 0.9570 0.9570 0.9580 0.9580 0.9600
1658.493871 0.9600 0.9610 0.9630 0.9630 0.9640
1662.872154 0.9640 0.9650 0.9670 0.9670 0.9680
1667.250438 0.9680 0.9690 0.9720 0.9720 0.9720
1671.628722 0.9730 0.9730 0.9730 0.9750 0.9750
1676.007006 0.9750 0.9750 0.9750 0.9760 0.9760
1680.385289 0.9760 0.9760 0.9780 0.9780 0.9760
1684.763573 0.9760 0.9760 0.9760 0.9760 0.9760
1689.141857 0.9760 0.9760 0.9760 0.9760 0.9760
1693.520140 0.9760 0.9760 0.9760 0.9760 0.9760
1697.898424 0.9780 0.9800 0.9820 0.9830 0.9820
1702.276708 0.9830 0.9830 0.9840 0.9840 0.9840
1706.654992 0.9840 0.9840 0.9840 0.9840 0.9860
1711.033275 0.9860 0.9870 0.9870 0.9870 0.9870
1715.411559 0.9870 0.9890 0.9890 0.9900 0.9900
1719.789843 0.9890 0.9890 0.9890 0.9870 0.9860
1724.168126 0.9840 0.9830 0.9830 0.9830 0.9830
1728.546410 0.9840 0.9830 0.9830 0.9830 0.9820
1732.924694 0.9820 0.9800 0.9820 0.9820 0.9830
1737.302978 0.9830 0.9840 0.9860 0.9870 0.9870
1741.681261 0.9890 0.9890 0.9900 0.9900 0.9910
1746.059545 0.9910 0.9930 0.9940 0.9950 0.9950
1750.437829 0.9970 0.9970 0.9970 0.9980 0.9980
1754.816112 0.9980 0.9980 0.9980 0.9980 0.9980
1759.194396 0.9980 0.9970 0.9950 0.9940 0.9930
1763.572680 0.9930 0.9930 0.9930 0.9940 0.9950
1767.950963 0.9950 0.9970 0.9970 0.9980 0.9980
1772.329247 0.9980 0.9980 0.9980 0.9980 0.9980
1776.707531 0.9980 0.9980 0.9980 0.9980 0.9980
1781.085815 0.9980 0.9980 0.9980 0.9980 0.9980
1785.464098 0.9980 0.9980 0.9980 0.9980 0.9980
1789.842382 0.9980 0.9980 0.9970 0.9970 0.9970
1794.220666 0.9970 0.9970 0.9970 0.9970 0.9970
1798.598949 0.9970 0.9970 0.9970 0.9970 0.9970
1802.977233 0.9970 0.9970 0.9970 0.9970 0.9970
1807.355517 0.9970 0.9970 0.9970 0.9970 0.9970
1811.733801 0.9970 0.9950 0.9950 0.9950 0.9950
1816.112084 0.9950 0.9950 0.9950 0.9950 0.9950
1820.490368 0.9950 0.9950 0.9950 0.9950 0.9950
1824.868652 0.9950 0.9950 0.9950 0.9950 0.9950
1829.246935 0.9950 0.9950 0.9950 0.9950 0.9950
1833.625219 0.9950 0.9950 0.9950 0.9950 0.9950
1838.003503 0.9950 0.9940 0.9940 0.9940 0.9940
1842.381787 0.9940 0.9940 0.9940 0.9940 0.9940
1846.760070 0.9930 0.9930 0.9930 0.9900 0.9900
1851.138354 0.9900 0.9900 0.9900 0.9900 0.9900
1855.516638 0.9900 0.9900 0.9900 0.9900 0.9900
1859.894921 0.9900 0.9900 0.9900 0.9930 0.9910
1864.273205 0.9930 0.9940 0.9940 0.9950 0.9950
1868.651489 0.9970 0.9980 0.9980 1.0000 1.0000
1873.029772 1.0000 1.0000 1.0000 1.0000 1.0000
1877.408056 1.0000 1.0000 0.9980 0.9950 0.9950
1881.786340 0.9940 0.9940 0.9940 0.9930 0.9930
1886.164624 0.9930 0.9930 0.9940 0.9940 0.9940
1890.542907 0.9950 0.9950 0.9970 0.9970 0.9970
1894.921191 0.9970 0.9980 0.9980 0.9980 0.9980
1899.299475 1.0000 1.0000 1.0000 1.0010 1.0010
1903.677758 1.0010 1.0010 1.0010 1.0010 1.0020
1908.056042 1.0020 1.0020 1.0020 1.0020 1.0020
1912.434326 1.0020 1.0020 1.0020 1.0020 1.0020
1916.812610 1.0020 1.0020 1.0020 1.0020 1.0020
1921.190893 1.0020 1.0020 1.0020 1.0020 1.0020
1925.569177 1.0020 1.0020 1.0020 1.0020 1.0020
1929.947461 1.0020 1.0020 1.0020 1.0020 1.0020
1934.325744 1.0020 1.0020 1.0020 1.0020 1.0020
1938.704028 1.0020 1.0020 1.0020 1.0020 1.0020
1943.082312 1.0020 1.0020 1.0020 1.0020 1.0020
1947.460596 1.0010 1.0010 1.0010 1.0010 1.0010
1951.838879 1.0010 1.0010 1.0010 1.0010 1.0010
1956.217163 1.0010 1.0010 1.0010 1.0010 1.0010
1960.595447 1.0010 1.0010 1.0010 1.0010 1.0010
1964.973730 1.0000 1.0000 1.0000 0.9980 0.9980
1969.352014 0.9980 0.9970 0.9970 0.9950 0.9950
1973.730298 0.9950 0.9940 0.9940 0.9930 0.9930
1978.108581 0.9930 0.9910 0.9900 0.9900 0.9900
1982.486865 0.9900 0.9900 0.9890 0.9890 0.9890
1986.865149 0.9890 0.9870 0.9870 0.9870 0.9870
1991.243433 0.9860 0.9860 0.9860 0.9860 0.9840
1995.621716 0.9840 0.9840 0.9830 0.9830 0.9830
2000.000000 0.9830 0.9830 0.9830 0.9830 0.9830
2004.378284 0.9830 0.9830 0.9830 0.9830 0.9830
2008.756567 0.9830 0.9830 0.9830 0.9830 0.9830
2013.134851 0.9835 0.9840 0.9840 0.9840 0.9840
2017.513135 0.9840 0.9840 0.9840 0.9840 0.9840
2021.891419 0.9840 0.9840 0.9840 0.9840 0.9840
2026.269702 0.9840 0.9840 0.9840 0.9850 0.9860
2030.647986 0.9860 0.9860 0.9860 0.9860 0.9865
2035.026270 0.9871 0.9881 0.9890 0.9890 0.9889
2039.404553 0.9879 0.9871 0.9881 0.9890 0.9890
2043.782837 0.9890 0.9890 0.9890 0.9890 0.9890
2048.161121 0.9895 0.9900 0.9900 0.9900 0.9900
2052.539404 0.9900 0.9900 0.9900 0.9900 0.9900
2056.917688 0.9900 0.9900 0.9900 0.9900 0.9900
2061.295972 0.9900 0.9900 0.9900 0.9895 0.9890
2065.674256 0.9890 0.9890 0.9890 0.9890 0.9890
2070.052539 0.9890 0.9890 0.9890 0.9890 0.9890
2074.430823 0.9890 0.9890 0.9890 0.9890 0.9890
2078.809107 0.9890 0.9890 0.9890 0.9890 0.9890
2083.187390 0.9890 0.9890 0.9890 0.9890 0.9890
2087.565674 0.9890 0.9890 0.9890 0.9890 0.9890
2091.943958 0.9890 0.9891 0.9896 0.9901 0.9906
2096.322242 0.9910 0.9910 0.9910 0.9910 0.9912
2100.700525 0.9922 0.9928 0.9918 0.9910 0.9910
2105.078809 0.9910 0.9910 0.9910 0.9910 0.9910
2109.457093 0.9910 0.9910 0.9910 0.9909 0.9904
2113.835376 0.9900 0.9900 0.9900 0.9900 0.9900
2118.213660 0.9900 0.9900 0.9900 0.9900 0.9900
2122.591944 0.9900 0.9900 0.9900 0.9900 0.9900
2126.970228 0.9900 0.9901 0.9906 0.9910 0.9910
2131.348511 0.9910 0.9910 0.9910 0.9910 0.9910
2135.726795 0.9910 0.9910 0.9910 0.9910 0.9910
2140.105079 0.9910 0.9910 0.9910 0.9910 0.9909
2144.483362 0.9904 0.9900 0.9900 0.9900 0.9900
2148.861646 0.9899 0.9894 0.9890 0.9890 0.9887
2153.239930 0.9877 0.9869 0.9864 0.9860 0.9860
2157.618213 0.9860 0.9860 0.9860 0.9860 0.9860
2161.996497 0.9860 0.9857 0.9847 0.9840 0.9840
2166.374781 0.9840 0.9840 0.9840 0.9840 0.9839
2170.753065 0.9834 0.9830 0.9830 0.9830 0.9830
2175.131348 0.9830 0.9830 0.9832 0.9837 0.9840
2179.509632 0.9840 0.9840 0.9840 0.9840 0.9840
2183.887916 0.9843 0.9853 0.9860 0.9860 0.9857
2188.266199 0.9847 0.9840 0.9840 0.9840 0.9840
2192.644483 0.9838 0.9833 0.9830 0.9830 0.9828
2197.022767 0.9823 0.9820 0.9820 0.9817 0.9807
2201.401051 0.9800 0.9800 0.9798 0.9793 0.9790
2205.779334 0.9790 0.9790 0.9790 0.9790 0.9790
2210.157618 0.9790 0.9790 0.9784 0.9769 0.9760
2214.535902 0.9760 0.9760 0.9760 0.9760 0.9760
2218.914185 0.9760 0.9760 0.9760 0.9760 0.9760
2223.292469 0.9760 0.9758 0.9753 0.9750 0.9750
2227.670753 0.9750 0.9750 0.9750 0.9750 0.9750
2232.049037 0.9750 0.9750 0.9750 0.9750 0.9750
2236.427320 0.9750 0.9750 0.9750 0.9750 0.9750
2240.805604 0.9750 0.9750 0.9750 0.9746 0.9736
2245.183888 0.9730 0.9730 0.9730 0.9730 0.9730
2249.562171 0.9730 0.9728 0.9723 0.9718 0.9713
2253.940455 0.9706 0.9696 0.9688 0.9683 0.9678
2258.318739 0.9673 0.9666 0.9656 0.9650 0.9650
2262.697022 0.9648 0.9643 0.9640 0.9640 0.9638
2267.075306 0.9633 0.9625 0.9615 0.9610 0.9610
2271.453590 0.9608 0.9603 0.9595 0.9585 0.9580
2275.831874 0.9580 0.9578 0.9573 0.9568 0.9563
2280.210157 0.9560 0.9560 0.9555 0.9545 0.9538
2284.588441 0.9533 0.9530 0.9530 0.9528 0.9523
2288.966725 0.9520 0.9520 0.9515 0.9505 0.9500
2293.345008 0.9500 0.9497 0.9493 0.9490 0.9490
2297.723292 0.9490 0.9490 0.9493 0.9498 0.9505
2302.101576 0.9515 0.9530 0.9550 0.9560 0.9560
2306.479860 0.9563 0.9568 0.9573 0.9578 0.9580
2310.858143 0.9580 0.9580 0.9580 0.9580 0.9580
2315.236427 0.9580 0.9580 0.9577 0.9572 0.9570
2319.614711 0.9570 0.9562 0.9547 0.9534 0.9524
2323.992994 0.9514 0.9504 0.9497 0.9492 0.9490
2328.371278 0.9490 0.9490 0.9490 0.9490 0.9490
2332.749562 0.9490 0.9490 0.9493 0.9498 0.9506
2337.127846 0.9516 0.9520 0.9520 0.9523 0.9528
2341.506129 0.9533 0.9538 0.9546 0.9556 0.9560
2345.884413 0.9560 0.9560 0.9560 0.9563 0.9568
2350.262697 0.9570 0.9570 0.9573 0.9578 0.9586
2354.640980 0.9596 0.9600 0.9600 0.9603 0.9608
2359.019264 0.9616 0.9626 0.9630 0.9630 0.9633
2363.397548 0.9638 0.9643 0.9648 0.9650 0.9650
2367.775831 0.9656 0.9666 0.9670 0.9670 0.9673
2372.154115 0.9678 0.9680 0.9680 0.9683 0.9688
2376.532399 0.9690 0.9690 0.9690 0.9690 0.9697
2380.910683 0.9707 0.9710 0.9710 0.9713 0.9718
2385.288966 0.9720 0.9720 0.9723 0.9728 0.9730
2389.667250 0.9730 0.9737 0.9747 0.9750 0.9750
2394.045534 0.9753 0.9758 0.9760 0.9760 0.9760
2398.423817 0.9760 0.9757 0.9752 0.9750 0.9750
2402.802101 0.9754 0.9759 0.9760 0.9760 0.9760
2407.180385 0.9760 0.9760 0.9760 0.9767 0.9777
2411.558669 0.9780 0.9780 0.9773 0.9763 0.9760
2415.936952 0.9760 0.9760 0.9760 0.9760 0.9760
2420.315236 0.9760 0.9760 0.9760 0.9760 0.9771
2424.693520 0.9786 0.9794 0.9799 0.9800 0.9800
2429.071803 0.9807 0.9817 0.9820 0.9820 0.9824
2433.450087 0.9829 0.9826 0.9821 0.9820 0.9820
2437.828371 0.9820 0.9820 0.9812 0.9802 0.9796
2442.206654 0.9791 0.9786 0.9781 0.9772 0.9762
2446.584938 0.9760 0.9760 0.9760 0.9760 0.9760
2450.963222 0.9760 0.9768 0.9778 0.9780 0.9780
2455.341506 0.9780 0.9780 0.9780 0.9780 0.9784
2459.719789 0.9789 0.9790 0.9790 0.9786 0.9781
2464.098073 0.9784 0.9789 0.9790 0.9790 0.9790
2468.476357 0.9790 0.9790 0.9790 0.9790 0.9790
2472.854640 0.9790 0.9790 0.9790 0.9790 0.9790
2477.232924 0.9790 0.9790 0.9790 0.9790 0.9790
2481.611208 0.9790 0.9790 0.9790 0.9790 0.9790
2485.989492 0.9790 0.9790 0.9790 0.9790 0.9790
2490.367775 0.9790 0.9790 0.9790 0.9790 0.9790
2494.746059 0.9790 0.9790 0.9790 0.9790 0.9790
2499.124343 0.9794 0.9799 0.9800 0.9800 0.9800
2503.502626 0.9800 0.9809 0.9819 0.9820 0.9820
2507.880910 0.9820 0.9820 0.9820 0.9820 0.9820
2512.259194 0.9820 0.9820 0.9820 0.9820 0.9820
2516.637478 0.9820 0.9820 0.9820 0.9820 0.9820
2521.015761 0.9820 0.9820 0.9820 0.9820 0.9820
2525.394045 0.9811 0.9801 0.9800 0.9800 0.9800
2529.772329 0.9800 0.9795 0.9790 0.9790 0.9790
2534.150612 0.9785 0.9780 0.9780 0.9780 0.9780
2538.528896 0.9780 0.9771 0.9761 0.9755 0.9750
2542.907180 0.9750 0.9750 0.9750 0.9750 0.9750
2547.285463 0.9750 0.9740 0.9730 0.9730 0.9730
2551.663747 0.9730 0.9730 0.9730 0.9730 0.9725
2556.042031 0.9720 0.9715 0.9710 0.9700 0.9690
2560.420315 0.9685 0.9680 0.9665 0.9650 0.9645
2564.798598 0.9640 0.9625 0.9610 0.9605 0.9600
2569.176882 0.9580 0.9560 0.9530 0.9500 0.9441
2573.555166 0.9381 0.9345 0.9310 0.9250 0.9189
2577.933449 0.9124 0.9059 0.8999 0.8940 0.8905
2582.311733 0.8870 0.8865 0.8860 0.8865 0.8870
2586.690017 0.8870 0.8870 0.8885 0.8900 0.8915
2591.068301 0.8930 0.8940 0.8950 0.8965 0.8981
2595.446584 0.8996 0.9011 0.9031 0.9050 0.9055
2599.824868 0.9060 0.9055 0.9050 0.9045 0.9039
2604.203152 0.9024 0.9009 0.8994 0.8980 0.8975
2608.581435 0.8970 0.8959 0.8951 0.8961 0.8971
2612.959719 0.8986 0.9006 0.9086 0.9163 0.9203
2617.338003 0.9243 0.9283 0.9321 0.9331 0.9340
2621.716287 0.9340 0.9340 0.9340 0.9340 0.9345
2626.094570 0.9350 0.9350 0.9350 0.9355 0.9360
2630.472854 0.9360 0.9361 0.9371 0.9380 0.9380
2634.851138 0.9380 0.9380 0.9380 0.9380 0.9380
2639.229421 0.9380 0.9380 0.9380 0.9380 0.9380
2643.607705 0.9380 0.9380 0.9379 0.9369 0.9360
2647.985989 0.9360 0.9359 0.9354 0.9349 0.9344
2652.364272 0.9339 0.9329 0.9320 0.9320 0.9319
2656.742556 0.9314 0.9304 0.9264 0.9228 0.9213
2661.120840 0.9195 0.9160 0.9122 0.9067 0.9010
2665.499124 0.8950 0.8897 0.8877 0.8858 0.8848
2669.877407 0.8842 0.8852 0.8867 0.8907 0.8950
2674.255691 0.9010 0.9068 0.9113 0.9155 0.9185
2678.633975 0.9213 0.9228 0.9245 0.9276 0.9300
2683.012258 0.9300 0.9300 0.9300 0.9300 0.9300
2687.390542 0.9300 0.9300 0.9298 0.9288 0.9280
2691.768826 0.9280 0.9278 0.9268 0.9260 0.9260
2696.147110 0.9258 0.9248 0.9240 0.9240 0.9237
2700.525393 0.9222 0.9205 0.9185 0.9165 0.9145
2704.903677 0.9129 0.9124 0.9118 0.9108 0.9093
2709.281961 0.9063 0.9025 0.8960 0.8896 0.8836
2713.660244 0.8776 0.8716 0.8662 0.8626 0.8597
2718.038528 0.8587 0.8583 0.8593 0.8606 0.8631
2722.416812 0.8655 0.8675 0.8695 0.8715 0.8738
2726.795096 0.8768 0.8797 0.8822 0.8848 0.8878
2731.173379 0.8904 0.8919 0.8931 0.8936 0.8946
2735.551663 0.8966 0.8980 0.8980 0.8983 0.8993
2739.929947 0.9000 0.9000 0.9000 0.9000 0.9000
2744.308230 0.9000 0.9000 0.9000 0.9000 0.9000
2748.686514 0.8996 0.8981 0.8954 0.8898 0.8849
2753.064798 0.8814 0.8788 0.8783 0.8780 0.8780
2757.443081 0.8782 0.8787 0.8790 0.8790 0.8792
2761.821365 0.8797 0.8803 0.8813 0.8822 0.8827
2766.199649 0.8836 0.8857 0.8875 0.8890 0.8902
2770.577933 0.8907 0.8910 0.8910 0.8910 0.8910
2774.956216 0.8910 0.8910 0.8910 0.8910 0.8910
2779.334500 0.8910 0.8910 0.8910 0.8908 0.8903
2783.712784 0.8875 0.8805 0.8753 0.8733 0.8718
2788.091067 0.8713 0.8702 0.8682 0.8649 0.8594
2792.469351 0.8543 0.8498 0.8460 0.8435 0.8418
2796.847635 0.8413 0.8385 0.8320 0.8236 0.8121
2801.225919 0.8009 0.7904 0.7793 0.7672 0.7594
2805.604202 0.7579 0.7570 0.7570 0.7568 0.7563
2809.982486 0.7556 0.7546 0.7540 0.7540 0.7538
2814.360770 0.7533 0.7528 0.7523 0.7510 0.7485
2818.739053 0.7466 0.7456 0.7444 0.7429 0.7413
2823.117337 0.7398 0.7383 0.7368 0.7360 0.7360
2827.495621 0.7314 0.7209 0.7097 0.6977 0.6859
2831.873904 0.6744 0.6624 0.6499 0.6381 0.6271
2836.252188 0.6165 0.6065 0.5969 0.5878 0.5797
2840.630472 0.5727 0.5659 0.5594 0.5485 0.5324
2845.008756 0.5136 0.4916 0.4674 0.4409 0.4132
2849.387039 0.3842 0.3550 0.3254 0.2966 0.2686
2853.765323 0.2425 0.2185 0.1968 0.1776 0.1618
2858.143607 0.1493 0.1362 0.1227 0.1087 0.0942
2862.521890 0.0719 0.0419 0.0252 0.0217 0.0182
2866.900174 0.0147 0.0122 0.0107 0.0100 0.0100
2871.278458 0.0100 0.0100 0.0105 0.0115 0.0120
2875.656742 0.0120 0.0133 0.0158 0.0186 0.0216
2880.035025 0.0251 0.0291 0.0329 0.0364 0.0391
2884.413309 0.0411 0.0423 0.0428 0.0446 0.0476
2888.791593 0.0530 0.0605 0.0643 0.0648 0.0650
2893.169876 0.0650 0.0650 0.0650 0.0650 0.0650
2897.548160 0.0650 0.0650 0.0650 0.0650 0.0644
2901.926444 0.0634 0.0624 0.0614 0.0601 0.0586
2906.304728 0.0574 0.0564 0.0543 0.0512 0.0488
2910.683011 0.0468 0.0439 0.0404 0.0381 0.0366
2915.061295 0.0354 0.0344 0.0331 0.0316 0.0307
2919.439579 0.0302 0.0282 0.0252 0.0231 0.0216
2923.817862 0.0207 0.0202 0.0197 0.0192 0.0181
2928.196146 0.0166 0.0151 0.0136 0.0130 0.0130
2932.574430 0.0127 0.0122 0.0120 0.0120 0.0114
2936.952713 0.0104 0.0097 0.0092 0.0090 0.0090
2941.330997 0.0081 0.0066 0.0060 0.0060 0.0060
2945.709281 0.0060 0.0057 0.0052 0.0050 0.0050
2950.087565 0.0047 0.0042 0.0040 0.0040 0.0040
2954.465848 0.0040 0.0040 0.0040 0.0040 0.0040
2958.844132 0.0043 0.0048 0.0050 0.0050 0.0053
2963.222416 0.0058 0.0060 0.0060 0.0060 0.0060
2967.600699 0.0067 0.0077 0.0087 0.0097 0.0107
2971.978983 0.0117 0.0123 0.0128 0.0140 0.0155
2976.357267 0.0163 0.0168 0.0181 0.0196 0.0211
2980.735551 0.0226 0.0234 0.0239 0.0648 0.1219
2985.113834 0.1462 0.1578 0.1685 0.1791 0.1942
2989.492118 0.2112 0.2376 0.2676 0.2901 0.3096
2993.870402 0.3237 0.3357 0.3496 0.3643 0.3829
2998.248685 0.4029 0.4222 0.4412 0.4602 0.4792
3002.626969 0.4990 0.5190 0.5401 0.5616 0.6038
3007.005253 0.6528 0.6718 0.6808 0.6875 0.6935
3011.383537 0.7116 0.7336 0.7447 0.7523 0.7552
3015.761820 0.7567 0.7617 0.7677 0.7741 0.7806
3020.140104 0.7851 0.7891 0.7970 0.8060 0.8131
3024.518388 0.8196 0.8253 0.8308 0.8355 0.8400
3028.896671 0.8434 0.8464 0.8494 0.8524 0.8570
3033.274955 0.8620 0.8646 0.8666 0.8678 0.8688
3037.653239 0.8702 0.8717 0.8744 0.8774 0.8812
3042.031522 0.8852 0.8876 0.8896 0.8912 0.8927
3046.409806 0.8934 0.8939 0.8965 0.8995 0.9021
3050.788090 0.9046 0.9071 0.9096 0.9113 0.9128
3055.166374 0.9143 0.9158 0.9173 0.9188 0.9194
3059.544657 0.9199 0.9213 0.9228 0.9251 0.9276
3063.922941 0.9293 0.9308 0.9314 0.9319 0.9329
3068.301225 0.9339 0.9344 0.9349 0.9367 0.9387
3072.679508 0.9416 0.9446 0.9450 0.9450 0.9454
3077.057792 0.9459 0.9464 0.9469 0.9479 0.9489
3081.436076 0.9490 0.9490 0.9494 0.9499 0.9500
3085.814360 0.9500 0.9500 0.9500 0.9500 0.9500
3090.192643 0.9500 0.9500 0.9500 0.9500 0.9500
3094.570927 0.9500 0.9509 0.9519 0.9520 0.9520
3098.949211 0.9511 0.9501 0.9500 0.9500 0.9500
3103.327494 0.9500 0.9500 0.9500 0.9500 0.9500
3107.705778 0.9495 0.9490 0.9490 0.9490 0.9481
3112.084062 0.9471 0.9465 0.9460 0.9460 0.9460
3116.462346 0.9455 0.9450 0.9441 0.9430 0.9430
3120.840629 0.9430 0.9425 0.9420 0.9415 0.9410
3125.218913 0.9400 0.9390 0.9390 0.9390 0.9385
3129.597197 0.9380 0.9366 0.9351 0.9345 0.9340
3133.975480 0.9330 0.9320 0.9320 0.9320 0.9315
3138.353764 0.9310 0.9305 0.9300 0.9285 0.9270
3142.732048 0.9265 0.9260 0.9250 0.9240 0.9235
3147.110331 0.9230 0.9210 0.9190 0.9175 0.9160
3151.488615 0.9160 0.9160 0.9155 0.9150 0.9140
3155.866899 0.9130 0.9130 0.9130 0.9125 0.9120
3160.245183 0.9110 0.9100 0.9100 0.9100 0.9100
3164.623466 0.9100 0.9100 0.9100 0.9100 0.9100
3169.001750 0.9100 0.9100 0.9110 0.9120 0.9120
3173.380034 0.9120 0.9120 0.9120 0.9125 0.9131
3177.758317 0.9141 0.9150 0.9150 0.9150 0.9155
3182.136601 0.9160 0.9160 0.9160 0.9165 0.9171
3186.514885 0.9181 0.9190 0.9195 0.9200 0.9205
3190.893169 0.9211 0.9221 0.9230 0.9235 0.9241
3195.271452 0.9251 0.9260 0.9260 0.9260 0.9265
3199.649736 0.9271 0.9286 0.9301 0.9311 0.9321
3204.028020 0.9331 0.9341 0.9351 0.9361 0.9371
3208.406303 0.9381 0.9386 0.9392 0.9407 0.9422
3212.784587 0.9437 0.9451 0.9456 0.9461 0.9466
3217.162871 0.9471 0.9481 0.9492 0.9507 0.9521
3221.541154 0.9526 0.9531 0.9536 0.9542 0.9557
3225.919438 0.9570 0.9570 0.9571 0.9576 0.9580
3230.297722 0.9580 0.9581 0.9591 0.9600 0.9600
3234.676006 0.9601 0.9606 0.9611 0.9621 0.9630
3239.054289 0.9630 0.9631 0.9636 0.9641 0.9646
3243.432573 0.9650 0.9650 0.9652 0.9662 0.9671
3247.810857 0.9676 0.9680 0.9680 0.9681 0.9686
3252.189140 0.9690 0.9690 0.9690 0.9690 0.9692
3256.567424 0.9702 0.9710 0.9710 0.9710 0.9710
3260.945708 0.9711 0.9716 0.9720 0.9720 0.9720
3265.323992 0.9720 0.9720 0.9720 0.9721 0.9726
3269.702275 0.9730 0.9730 0.9730 0.9730 0.9730
3274.080559 0.9730 0.9730 0.9730 0.9730 0.9730
3278.458843 0.9730 0.9730 0.9730 0.9730 0.9730
3282.837126 0.9730 0.9729 0.9724 0.9719 0.9714
3287.215410 0.9708 0.9698 0.9689 0.9684 0.9680
3291.593694 0.9680 0.9679 0.9674 0.9670 0.9670
3295.971978 0.9670 0.9670 0.9670 0.9670 0.9670
3300.350261 0.9670 0.9670 0.9670 0.9670 0.9670
3304.728545 0.9670 0.9670 0.9670 0.9670 0.9670
3309.106829 0.9670 0.9670 0.9670 0.9670 0.9670
3313.485112 0.9670 0.9670 0.9670 0.9670 0.9670
3317.863396 0.9670 0.9670 0.9670 0.9670 0.9670
3322.241680 0.9670 0.9670 0.9670 0.9670 0.9670
3326.619963 0.9670 0.9670 0.9670 0.9672 0.9677
3330.998247 0.9680 0.9680 0.9680 0.9680 0.9680
3335.376531 0.9680 0.9680 0.9680 0.9680 0.9680
3339.754815 0.9680 0.9680 0.9680 0.9680 0.9680
3344.133098 0.9680 0.9680 0.9680 0.9678 0.9673
3348.511382 0.9665 0.9650 0.9635 0.9620 0.9610
3352.889666 0.9610 0.9610 0.9610 0.9610 0.9610
3357.267949 0.9610 0.9610 0.9614 0.9624 0.9630
3361.646233 0.9630 0.9632 0.9637 0.9640 0.9640
3366.024517 0.9642 0.9647 0.9650 0.9650 0.9650
3370.402801 0.9650 0.9650 0.9650 0.9650 0.9650
3374.781084 0.9650 0.9650 0.9650 0.9650 0.9650
3379.159368 0.9650 0.9650 0.9650 0.9650 0.9650
3383.537652 0.9650 0.9650 0.9650 0.9650 0.9654
3387.915935 0.9664 0.9672 0.9677 0.9680 0.9680
3392.294219 0.9682 0.9687 0.9690 0.9690 0.9694
3396.672503 0.9704 0.9710 0.9710 0.9712 0.9717
3401.050787 0.9722 0.9727 0.9730 0.9730 0.9735
3405.429070 0.9745 0.9750 0.9750 0.9752 0.9757
3409.807354 0.9760 0.9760 0.9760 0.9760 0.9760
3414.185638 0.9760 0.9760 0.9760 0.9760 0.9760
3418.563921 0.9760 0.9760 0.9760 0.9760 0.9760
3422.942205 0.9760 0.9760 0.9760 0.9765 0.9775
3427.320489 0.9780 0.9780 0.9782 0.9787 0.9790
3431.698772 0.9790 0.9792 0.9798 0.9800 0.9800
3436.077056 0.9805 0.9815 0.9820 0.9820 0.9823
3440.455340 0.9828 0.9830 0.9830 0.9830 0.9830
3444.833624 0.9833 0.9838 0.9840 0.9840 0.9840
3449.211907 0.9840 0.9845 0.9855 0.9860 0.9860
3453.590191 0.9860 0.9860 0.9863 0.9868 0.9870
3457.968475 0.9870 0.9870 0.9870 0.9875 0.9885
3462.346758 0.9890 0.9890 0.9890 0.9890 0.9893
3466.725042 0.9898 0.9900 0.9900 0.9900 0.9900
3471.103326 0.9900 0.9900 0.9900 0.9900 0.9903
3475.481610 0.9908 0.9910 0.9910 0.9910 0.9910
3479.859893 0.9910 0.9910 0.9916 0.9926 0.9930
3484.238177 0.9930 0.9930 0.9930 0.9930 0.9930
3488.616461 0.9933 0.9938 0.9940 0.9940 0.9940
3492.994744 0.9940 0.9943 0.9948 0.9950 0.9950
3497.373028 0.9950 0.9950 0.9950 0.9950 0.9956
3501.751312 0.9966 0.9970 0.9970 0.9970 0.9970
3506.129596 0.9970 0.9970 0.9970 0.9970 0.9973
3510.507879 0.9978 0.9980 0.9980 0.9980 0.9980
3514.886163 0.9980 0.9980 0.9980 0.9980 0.9986
3519.264447 0.9996 1.0000 1.0000 1.0000 1.0000
3523.642730 1.0000 1.0000 1.0000 1.0000 1.0003
3528.021014 1.0008 1.0010 1.0010 1.0010 1.0010
3532.399298 1.0010 1.0010 1.0010 1.0010 1.0010
3536.777581 1.0010 1.0010 1.0010 1.0010 1.0010
3541.155865 1.0010 1.0010 1.0010 1.0010 1.0010
3545.534149 1.0010 1.0010 1.0010 1.0010 1.0010
3549.912433 1.0010 1.0010 1.0010 1.0010 1.0010
3554.290716 1.0010 1.0010 1.0010 1.0010 1.0010
3558.669000 1.0010 1.0010 1.0010 1.0010 1.0010
3563.047284 1.0010 1.0010 1.0010 1.0010 1.0010
3567.425567 1.0010 1.0010 1.0010 1.0010 1.0010
3571.803851 1.0010 1.0010 1.0010 1.0010 1.0010
3576.182135 1.0010 1.0010 1.0010 1.0010 1.0010
3580.560419 1.0010 1.0010 1.0010 1.0010 1.0010
3584.938702 1.0010 1.0010 1.0010 1.0010 1.0010
3589.316986 1.0010 1.0010 1.0010 1.0006 1.0001
3593.695270 1.0000 1.0000 1.0000 1.0000 1.0000
3598.073553 1.0000 1.0004 1.0009 1.0010 1.0010
3602.451837 1.0010 1.0010 1.0010 1.0010 1.0010
3606.830121 1.0010 1.0010 1.0010 1.0010 1.0010
3611.208404 1.0010 1.0010 1.0010 1.0010 1.0010
3615.586688 1.0010 1.0010 1.0010 1.0010 1.0010
3619.964972 1.0010 1.0010 1.0010 1.0010 1.0010
3624.343256 1.0010 1.0010 1.0010 1.0010 1.0010
3628.721539 1.0010 1.0010 1.0010 1.0010 1.0010
3633.099823 1.0010 1.0010 1.0010 1.0010 1.0010
3637.478107 1.0010 1.0010 1.0010 1.0010 1.0010
3641.856390 1.0010 1.0010 1.0010 1.0010 1.0010
3646.234674 1.0010 1.0010 1.0010 1.0010 1.0010
3650.612958 1.0010 1.0010 1.0010 1.0010 1.0010
3654.991242 1.0010 1.0010 1.0010 1.0010 1.0010
3659.369525 1.0010 1.0010 1.0010 1.0010 1.0010
3663.747809 1.0010 1.0010 1.0010 1.0010 1.0010
3668.126093 1.0010 1.0010 1.0010 1.0010 1.0010
3672.504376 1.0010 1.0010 1.0010 1.0010 1.0010
3676.882660 1.0010 1.0005 1.0000 1.0000 1.0000
3681.260944 0.9991 0.9981 0.9980 0.9980 0.9975
3685.639228 0.9970 0.9970 0.9970 0.9970 0.9970
3690.017511 0.9970 0.9970 0.9970 0.9970 0.9975
3694.395795 0.9980 0.9990 1.0000 1.0005 1.0010
3698.774079 1.0015 1.0020 1.0030 1.0040 1.0045
3703.152362 1.0050 1.0050 1.0050 1.0050 1.0050
3707.530646 1.0055 1.0060 1.0060 1.0060 1.0060
3711.908930 1.0060 1.0060 1.0060 1.0060 1.0060
3716.287213 1.0055 1.0050 1.0050 1.0050 1.0050
3720.665497 1.0050 1.0045 1.0040 1.0040 1.0040
3725.043781 1.0040 1.0040 1.0040 1.0040 1.0030
3729.422065 1.0020 1.0020 1.0020 1.0020 1.0020
3733.800348 1.0020 1.0020 1.0015 1.0010 1.0010
3738.178632 1.0010 1.0010 1.0010 1.0010 1.0010
3742.556916 1.0005 1.0000 1.0000 1.0000 1.0000
3746.935199 1.0000 0.9989 0.9980 0.9980 0.9980
3751.313483 0.9980 0.9980 0.9980 0.9980 0.9980
3755.691767 0.9980 0.9980 0.9980 0.9975 0.9970
3760.070051 0.9970 0.9970 0.9970 0.9970 0.9970
3764.448334 0.9969 0.9959 0.9950 0.9950 0.9950
3768.826618 0.9950 0.9950 0.9950 0.9950 0.9950
3773.204902 0.9950 0.9950 0.9950 0.9950 0.9950
3777.583185 0.9945 0.9940 0.9940 0.9940 0.9940
3781.961469 0.9940 0.9940 0.9940 0.9940 0.9940
3786.339753 0.9940 0.9940 0.9940 0.9939 0.9934
3790.718037 0.9930 0.9930 0.9930 0.9930 0.9930
3795.096320 0.9930 0.9930 0.9930 0.9930 0.9930
3799.474604 0.9930 0.9930
##END=
