##TITLE=2-PROPENOIC ACID, 2-METHYL-
##JCAMP-DX=4.24
##DATA TYPE=INFRARED SPECTRUM
##CLASS=COBLENTZ III
##ORIGIN=DOW CORNING CORP.
##OWNER=COBLENTZ SOCIETY
Collection (C) 2018 copyright by the U.S. Secretary of Commerce
on behalf of the United States of America. All rights reserved.
##DATE=Not specified, most likely prior to 1970
##NAMES=2-methylacrylic acid
METHACRYLIC ACID
##CAS REGISTRY NO=79-41-4
##MOLFORM=C4 H6 O2
##SOURCE REFERENCE=COBLENTZ NO. 4288
##$NIST SOURCE=COBLENTZ
##$NIST IMAGE=cob4288
##SPECTROMETER/DATA SYSTEM=PERKIN-ELMER 521 (GRATING)
##INSTRUMENT PARAMETERS=FILTERS AT 3150, 2500, 2000, 1150, 700, 410; GRATING CHANGES AT 2000, 630 CM^-^1
##STATE=SOLUTION (5% IN CCl4 FOR 3800-1300, 5% IN CS2 FOR 1300-650, AND 5% IN CCl4 FOR 650-240 CM^-^1) VERSUS SOLVENT
##PATH LENGTH=0.010, 0.010, AND 0.019 CM (CsBr CELL)
##SAMPLING PROCEDURE=TRANSMISSION
##RESOLUTION=4
##DATA PROCESSING=DIGITIZED BY NIST FROM HARD COPY (FROM TWO SEGMENTS)
##XUNITS=1/CM
##YUNITS=TRANSMITTANCE
##XFACTOR=1.000000
##YFACTOR=1
##DELTAX=1.016520
##FIRSTX=228.208
##LASTX=3799.24
##FIRSTY=0.792
##MAXX=3799.24
##MINX=228.208
##MAXY=0.913
##MINY=0.001
##NPOINTS=3514
##XYDATA=(X++(Y..Y))
228.208000 0.7920 0.7920 0.7920 0.7920 0.7920
233.290600 0.7920 0.7920 0.7920 0.7920 0.7920
238.373200 0.7920 0.7920 0.7920 0.7900 0.7900
243.455800 0.7900 0.7900 0.7900 0.7900 0.7900
248.538399 0.7890 0.7890 0.7890 0.7890 0.7890
253.620999 0.7890 0.7890 0.7880 0.7880 0.7880
258.703599 0.7880 0.7880 0.7860 0.7860 0.7850
263.786199 0.7850 0.7850 0.7820 0.7810 0.7770
268.868799 0.7750 0.7750 0.7750 0.7750 0.7750
273.951399 0.7750 0.7740 0.7730 0.7730 0.7710
279.033998 0.7680 0.7670 0.7640 0.7600 0.7590
284.116598 0.7560 0.7560 0.7550 0.7550 0.7530
289.199198 0.7510 0.7440 0.7380 0.7370 0.7310
294.281798 0.7270 0.7240 0.7180 0.7130 0.7070
299.364398 0.7000 0.6940 0.6870 0.6800 0.6750
304.446998 0.6640 0.6511 0.6391 0.6271 0.6141
309.529598 0.6020 0.5770 0.5620 0.5550 0.5480
314.612197 0.5350 0.5151 0.5001 0.4851 0.4701
319.694797 0.4550 0.4400 0.4250 0.4090 0.3960
324.777397 0.3940 0.3960 0.4050 0.4179 0.4329
329.859997 0.4490 0.4670 0.4840 0.5149 0.5170
334.942597 0.5569 0.5769 0.6427 0.6599 0.6640
340.025197 0.6690 0.6760 0.6850 0.6870 0.6890
345.107796 0.6900 0.6910 0.6930 0.6930 0.6890
350.190396 0.6780 0.6720 0.6650 0.6610 0.6570
355.272996 0.6540 0.6530 0.6540 0.6580 0.6620
360.355596 0.6650 0.6710 0.6820 0.6970 0.7080
365.438196 0.7180 0.7379 0.7450 0.7510 0.7818
370.520796 0.7850 0.7950 0.7960 0.7960 0.7960
375.603395 0.7950 0.7920 0.7900 0.7890 0.7850
380.685995 0.7840 0.7770 0.7750 0.7730 0.7620
385.768595 0.7550 0.7530 0.7550 0.7640 0.7779
390.851195 0.7840 0.7890 0.7900 0.7920 0.7920
395.933795 0.7930 0.7960 0.7990 0.8010 0.8040
401.016395 0.8060 0.8070 0.8100 0.8110 0.8120
406.098995 0.8140 0.8150 0.8180 0.8180 0.8210
411.181594 0.8210 0.8210 0.8190 0.8190 0.8190
416.264194 0.8180 0.8180 0.8170 0.8150 0.8150
421.346794 0.8140 0.8140 0.8140 0.8140 0.8140
426.429394 0.8120 0.8120 0.8110 0.8100 0.8100
431.511994 0.8100 0.8080 0.8080 0.8080 0.8080
436.594594 0.8080 0.8070 0.8060 0.8060 0.8060
441.677193 0.8060 0.8040 0.8030 0.8010 0.8000
446.759793 0.7990 0.7990 0.7970 0.7970 0.7960
451.842393 0.7950 0.7950 0.7950 0.7950 0.7950
456.924993 0.7950 0.7950 0.7950 0.7960 0.7960
462.007593 0.7970 0.7970 0.7990 0.7990 0.8010
467.090193 0.8040 0.8060 0.8080 0.8110 0.8110
472.172793 0.8120 0.8120 0.8140 0.8140 0.8150
477.255392 0.8150 0.8150 0.8150 0.8150 0.8170
482.337992 0.8170 0.8180 0.8210 0.8210 0.8230
487.420592 0.8250 0.8260 0.8280 0.8290 0.8300
492.503192 0.8300 0.8320 0.8330 0.8330 0.8330
497.585792 0.8330 0.8330 0.8320 0.8320 0.8320
502.668392 0.8300 0.8300 0.8300 0.8280 0.8280
507.750991 0.8260 0.8230 0.8220 0.8180 0.8120
512.833591 0.8110 0.8100 0.8030 0.7960 0.7930
517.916191 0.7920 0.7900 0.7890 0.7860 0.7840
522.998791 0.7820 0.7780 0.7730 0.7670 0.7630
528.081391 0.7590 0.7441 0.7340 0.7240 0.7220
533.163991 0.7220 0.7200 0.7190 0.7180 0.7130
538.246591 0.6901 0.6830 0.6601 0.6461 0.6291
543.329190 0.6130 0.5950 0.5790 0.5720 0.5550
548.411790 0.5370 0.5001 0.4631 0.3704 0.3451
553.494390 0.3340 0.3210 0.2970 0.2950 0.2970
558.576990 0.3349 0.3559 0.3749 0.4089 0.4269
563.659590 0.4450 0.4640 0.5000 0.5140 0.5649
568.742190 0.5830 0.6009 0.6199 0.6379 0.6748
573.824789 0.6760 0.6800 0.6860 0.6910 0.6980
578.907389 0.7010 0.7040 0.7050 0.7070 0.7070
583.989989 0.7050 0.6910 0.6540 0.6181 0.5831
589.072589 0.4863 0.3893 0.3531 0.3172 0.3170
594.155189 0.3250 0.3250 0.3030 0.2810 0.2790
599.237789 0.2581 0.1922 0.4082 0.5822 0.5840
604.320389 0.6170 0.6490 0.7120 0.7130 0.7260
609.402988 0.7380 0.7619 0.7630 0.7670 0.7700
614.485588 0.7770 0.7820 0.7840 0.7860 0.7880
619.568188 0.7890 0.7900 0.7920 0.7920 0.7930
624.650788 0.7950 0.7960 0.7960 0.7960 0.7960
629.733388 0.7960 0.7960 0.7950 0.7930 0.7930
634.815988 0.7920 0.7890 0.7860 0.7840 0.7810
639.898587 0.7770 0.7730 0.7640 0.7550 0.7421
644.981187 0.7400 0.7340 0.7260 0.7150 0.7110
650.063787 0.7070 0.7050 0.7070 0.7120 0.7150
655.146387 0.7180 0.7240 0.7340 0.7450 0.7510
660.228987 0.7640 0.7849 0.7890 0.7920 0.7950
665.311587 0.7990 0.8010 0.8140 0.8300 0.8320
670.394186 0.8340 0.8340 0.8360 0.8360 0.8360
675.476786 0.8360 0.8360 0.8370 0.8390 0.8390
680.559386 0.8400 0.8430 0.8430 0.8440 0.8440
685.641986 0.8440 0.8440 0.8440 0.8440 0.8440
690.724586 0.8440 0.8440 0.8440 0.8440 0.8440
695.807186 0.8440 0.8440 0.8440 0.8450 0.8450
700.889786 0.8480 0.8500 0.8520 0.8540 0.8540
705.972385 0.8540 0.8540 0.8540 0.8540 0.8540
711.054985 0.8520 0.8520 0.8510 0.8500 0.8500
716.137585 0.8480 0.8480 0.8470 0.8470 0.8470
721.220185 0.8470 0.8450 0.8450 0.8440 0.8440
726.302785 0.8440 0.8440 0.8450 0.8450 0.8450
731.385385 0.8470 0.8470 0.8470 0.8470 0.8470
736.467984 0.8470 0.8470 0.8470 0.8450 0.8450
741.550584 0.8450 0.8440 0.8440 0.8440 0.8430
746.633184 0.8430 0.8410 0.8410 0.8400 0.8360
751.715784 0.8320 0.8300 0.8290 0.8280 0.8230
756.798384 0.8190 0.8180 0.8150 0.8150 0.8140
761.880984 0.8140 0.8120 0.8110 0.8100 0.8080
766.963584 0.8070 0.8040 0.8010 0.8000 0.7990
772.046183 0.7970 0.7960 0.7950 0.7920 0.7890
777.128783 0.7860 0.7840 0.7810 0.7790 0.7770
782.211383 0.7750 0.7740 0.7680 0.7620 0.7590
787.293983 0.7590 0.7570 0.7560 0.7510 0.7450
792.376583 0.7420 0.7400 0.7340 0.7231 0.7160
797.459183 0.7050 0.6940 0.6800 0.6580 0.6380
802.541782 0.6171 0.5961 0.5761 0.5541 0.5460
807.624382 0.5370 0.4780 0.4780 0.4910 0.5150
812.706982 0.5190 0.5499 0.5540 0.5580 0.5580
817.789582 0.5610 0.5680 0.5800 0.6060 0.6070
822.872182 0.6270 0.6639 0.6650 0.6779 0.6899
827.954782 0.7040 0.7080 0.7090 0.7110 0.7110
833.037382 0.7110 0.7110 0.7110 0.7110 0.7110
838.119981 0.7110 0.7110 0.7090 0.7070 0.7040
843.202581 0.7010 0.6960 0.6910 0.6890 0.6860
848.285181 0.6830 0.6800 0.6780 0.6750 0.6650
853.367781 0.6640 0.6620 0.6610 0.6580 0.6530
858.450381 0.6460 0.6400 0.6360 0.6310 0.6270
863.532981 0.6210 0.6170 0.6120 0.6070 0.6020
868.615580 0.5980 0.5910 0.5870 0.5840 0.5810
873.698180 0.5800 0.5790 0.5760 0.5740 0.5650
878.780780 0.5620 0.5500 0.5470 0.5440 0.5360
883.863380 0.5320 0.5280 0.5240 0.5170 0.5110
888.945980 0.5020 0.4970 0.4880 0.4800 0.4700
894.028580 0.4660 0.4600 0.4550 0.4490 0.4470
899.111180 0.4440 0.4070 0.4040 0.4030 0.3960
904.193779 0.3890 0.3790 0.3740 0.3700 0.3670
909.276379 0.3630 0.3540 0.3430 0.3370 0.3310
914.358979 0.3280 0.3240 0.3190 0.3160 0.3140
919.441579 0.3130 0.3120 0.3080 0.3010 0.2970
924.524179 0.2950 0.2920 0.2910 0.2880 0.2860
929.606779 0.2860 0.2810 0.2790 0.2720 0.2660
934.689378 0.2620 0.2580 0.2540 0.2480 0.2460
939.771978 0.2280 0.1810 0.1620 0.1400 0.1180
944.854578 0.1080 0.0970 0.0751 0.0551 0.0311
949.937178 0.0310 0.0640 0.1219 0.1510 0.1799
955.019778 0.2089 0.2439 0.2440 0.2699 0.3755
960.102378 0.3760 0.4010 0.4260 0.4520 0.4730
965.184977 0.4820 0.4890 0.4910 0.5059 0.5568
970.267577 0.5840 0.5850 0.6100 0.6160 0.6310
975.350177 0.6320 0.6400 0.6540 0.6640 0.6750
980.432777 0.6870 0.6930 0.6960 0.7040 0.7070
985.515377 0.7110 0.7130 0.7190 0.7200 0.7220
990.597977 0.7230 0.7200 0.7190 0.7160 0.7150
995.680577 0.7120 0.7090 0.7050 0.6970 0.6721
1000.763176 0.6460 0.6160 0.5850 0.5550 0.5400
1005.845776 0.5250 0.4951 0.4800 0.4641 0.4640
1010.928376 0.5020 0.5210 0.5830 0.6489 0.6500
1016.010976 0.6799 0.7089 0.7369 0.7480 0.7589
1021.093576 0.7620 0.7750 0.7770 0.7770 0.7780
1026.176176 0.7780 0.7790 0.7820 0.7850 0.7860
1031.258775 0.7860 0.7880 0.7880 0.7860 0.7860
1036.341375 0.7850 0.7850 0.7850 0.7850 0.7850
1041.423975 0.7860 0.7860 0.7860 0.7880 0.7880
1046.506575 0.7890 0.7900 0.7920 0.7970 0.8010
1051.589175 0.8060 0.8070 0.8070 0.8080 0.8080
1056.671775 0.8100 0.8100 0.8110 0.8110 0.8110
1061.754375 0.8120 0.8150 0.8150 0.8180 0.8190
1066.836974 0.8210 0.8210 0.8210 0.8220 0.8220
1071.919574 0.8230 0.8230 0.8230 0.8250 0.8260
1077.002174 0.8260 0.8260 0.8260 0.8280 0.8290
1082.084774 0.8300 0.8300 0.8300 0.8320 0.8320
1087.167374 0.8320 0.8320 0.8330 0.8330 0.8330
1092.249974 0.8330 0.8330 0.8330 0.8320 0.8320
1097.332573 0.8320 0.8320 0.8320 0.8300 0.8290
1102.415173 0.8290 0.8260 0.8220 0.8210 0.8170
1107.497773 0.8120 0.8110 0.8080 0.8000 0.7950
1112.580373 0.7790 0.7780 0.7710 0.7640 0.7600
1117.662973 0.7590 0.7590 0.7590 0.7600 0.7640
1122.745573 0.7660 0.7770 0.7780 0.7840 0.7890
1127.828173 0.7920 0.7930 0.7930 0.7950 0.7960
1132.910772 0.7960 0.7950 0.7950 0.7920 0.7920
1137.993372 0.7900 0.7900 0.7890 0.7880 0.7860
1143.075972 0.7840 0.7770 0.7750 0.7740 0.7730
1148.158572 0.7640 0.7600 0.7600 0.7530 0.7460
1153.241172 0.7410 0.7380 0.7340 0.7270 0.7230
1158.323772 0.7050 0.6940 0.6800 0.6571 0.6431
1163.406371 0.6310 0.6180 0.6060 0.5810 0.5520
1168.488971 0.5410 0.5290 0.5031 0.4751 0.4620
1173.571571 0.4470 0.4420 0.4330 0.4300 0.4270
1178.654171 0.4260 0.4250 0.4230 0.4200 0.4190
1183.736771 0.4110 0.4050 0.3980 0.3920 0.3850
1188.819371 0.3591 0.3351 0.3200 0.3031 0.2811
1193.901971 0.2620 0.2420 0.2210 0.1441 0.1080
1198.984570 0.0920 0.0740 0.0411 0.0410 0.0529
1204.067170 0.0590 0.0740 0.1150 0.1160 0.1480
1209.149770 0.2069 0.2090 0.2359 0.2330 0.2151
1214.232370 0.2000 0.1880 0.1440 0.1190 0.1030
1219.314970 0.1000 0.1030 0.1329 0.1629 0.1949
1224.397570 0.2250 0.2550 0.2790 0.3610 0.3750
1229.480169 0.4269 0.4749 0.5718 0.6199 0.6648
1234.562769 0.6760 0.6940 0.6970 0.7180 0.7290
1239.645369 0.7350 0.7440 0.7460 0.7520 0.7550
1244.727969 0.7560 0.7570 0.7570 0.7570 0.7590
1249.810569 0.7590 0.7560 0.7530 0.7520 0.7510
1254.893169 0.7490 0.7490 0.7460 0.7460 0.7450
1259.975768 0.7420 0.7370 0.7290 0.7240 0.7111
1265.058368 0.7090 0.6980 0.6870 0.6780 0.6680
1270.140968 0.6570 0.6470 0.6380 0.6340 0.6181
1275.223568 0.5980 0.5900 0.5770 0.5590 0.5370
1280.306168 0.5140 0.4920 0.4661 0.4401 0.4151
1285.388768 0.3890 0.3630 0.3370 0.3170 0.2980
1290.471368 0.2401 0.2131 0.1851 0.1581 0.1301
1295.553967 0.1260 0.1040 0.1030 0.1040 0.1190
1300.636567 0.1340 0.1490 0.1650 0.1799 0.1949
1305.719167 0.2070 0.2100 0.2180 0.2400 0.2440
1310.801767 0.2470 0.2460 0.2440 0.2420 0.2390
1315.884367 0.2350 0.2320 0.2310 0.2310 0.2320
1320.966967 0.2360 0.2510 0.2610 0.2660 0.2799
1326.049566 0.2870 0.3190 0.3480 0.3750 0.4290
1331.132166 0.4300 0.4520 0.4749 0.4969 0.5408
1336.214766 0.5570 0.5700 0.5980 0.6100 0.6120
1341.297366 0.6280 0.6430 0.6560 0.6620 0.6670
1346.379966 0.6760 0.6800 0.6870 0.7070 0.7120
1351.462566 0.7180 0.7300 0.7310 0.7340 0.7340
1356.545166 0.7350 0.7350 0.7350 0.7340 0.7330
1361.627765 0.7310 0.7310 0.7290 0.7230 0.7160
1366.710365 0.7130 0.6940 0.6740 0.6350 0.6060
1371.792965 0.5721 0.5361 0.4772 0.4192 0.3632
1376.875565 0.3631 0.4000 0.4360 0.4730 0.5080
1381.958165 0.6428 0.6739 0.6790 0.6800 0.6790
1387.040765 0.6780 0.6670 0.6620 0.6460 0.6360
1392.123364 0.6290 0.6180 0.6090 0.5980 0.5950
1397.205964 0.5900 0.5840 0.5610 0.5480 0.5350
1402.288564 0.5240 0.5180 0.5110 0.5040 0.5030
1407.371164 0.5000 0.4990 0.4840 0.4690 0.4590
1412.453764 0.4370 0.4121 0.3851 0.3571 0.3301
1417.536364 0.3160 0.3020 0.2750 0.2360 0.2210
1422.618964 0.2090 0.1960 0.1910 0.1880 0.1870
1427.701563 0.1810 0.1780 0.1760 0.1710 0.1700
1432.784163 0.1700 0.1710 0.1730 0.1760 0.1820
1437.866763 0.1960 0.2131 0.2620 0.3270 0.3560
1442.949363 0.3760 0.3820 0.3960 0.3960 0.3850
1448.031963 0.3380 0.2900 0.2320 0.1740 0.1400
1453.114563 0.1150 0.1150 0.1688 0.1949 0.2219
1458.197162 0.2481 0.3450 0.3750 0.4110 0.4470
1463.279762 0.5139 0.5170 0.5609 0.5720 0.5840
1468.362362 0.5920 0.6020 0.6030 0.6130 0.6200
1473.444962 0.6230 0.6320 0.6340 0.6420 0.6490
1478.527562 0.6580 0.6760 0.6930 0.6960 0.7240
1483.610162 0.7260 0.7300 0.7440 0.7570 0.7620
1488.692762 0.7810 0.7950 0.7960 0.8070 0.8080
1493.775361 0.8110 0.8110 0.8110 0.8120 0.8120
1498.857961 0.8120 0.8120 0.8110 0.8110 0.8110
1503.940561 0.8110 0.8110 0.8100 0.8100 0.8100
1509.023161 0.8100 0.8110 0.8110 0.8110 0.8110
1514.105761 0.8110 0.8100 0.8100 0.8080 0.8080
1519.188361 0.8070 0.8070 0.8070 0.8060 0.8060
1524.270960 0.8060 0.8040 0.8030 0.8030 0.8010
1529.353560 0.8000 0.8000 0.7990 0.7990 0.7990
1534.436160 0.7990 0.7970 0.7970 0.7970 0.7960
1539.518760 0.7960 0.7950 0.7930 0.7880 0.7880
1544.601360 0.7860 0.7860 0.7850 0.7850 0.7840
1549.683960 0.7810 0.7810 0.7790 0.7790 0.7790
1554.766559 0.7790 0.7790 0.7790 0.7780 0.7780
1559.849159 0.7780 0.7780 0.7770 0.7750 0.7750
1564.931759 0.7740 0.7730 0.7730 0.7710 0.7700
1570.014359 0.7670 0.7640 0.7630 0.7620 0.7600
1575.096959 0.7590 0.7590 0.7570 0.7570 0.7570
1580.179559 0.7560 0.7550 0.7530 0.7460 0.7410
1585.262159 0.7310 0.7290 0.7260 0.7240 0.7230
1590.344758 0.7120 0.7080 0.6940 0.6900 0.6870
1595.427358 0.6830 0.6790 0.6760 0.6710 0.6620
1600.509958 0.6510 0.6380 0.6320 0.6200 0.6180
1605.592558 0.6100 0.6030 0.5980 0.5920 0.5770
1610.675158 0.5510 0.5460 0.5390 0.5290 0.5240
1615.757758 0.4930 0.4890 0.4820 0.4690 0.4042
1620.840357 0.4000 0.3750 0.3560 0.3280 0.3140
1625.922957 0.2990 0.2571 0.2530 0.2141 0.1632
1631.005557 0.1510 0.1230 0.1010 0.0960 0.0890
1636.088157 0.0860 0.0830 0.0820 0.0810 0.0790
1641.170757 0.0810 0.1000 0.1210 0.1400 0.1600
1646.253357 0.2149 0.3538 0.3889 0.4299 0.4878
1651.335957 0.5540 0.5550 0.5540 0.5520 0.5500
1656.418556 0.5480 0.5470 0.5460 0.5430 0.5400
1661.501156 0.5300 0.5260 0.5130 0.5040 0.5020
1666.583756 0.5000 0.4930 0.4910 0.4840 0.4581
1671.666356 0.4560 0.4250 0.4090 0.4070 0.3870
1676.748956 0.3710 0.3560 0.3430 0.3161 0.2881
1681.831556 0.2570 0.2310 0.1960 0.1660 0.1320
1686.914155 0.1210 0.0821 0.0441 0.0300 0.0170
1691.996755 0.0050 0.0040 0.0020 0.0010 0.0010
1697.079355 0.0010 0.0010 0.0010 0.0010 0.0010
1702.161955 0.0010 0.0010 0.0010 0.0020 0.0020
1707.244555 0.0040 0.0060 0.0110 0.0120 0.0339
1712.327155 0.0450 0.0530 0.0850 0.1140 0.1300
1717.409755 0.1550 0.1959 0.2070 0.2499 0.2789
1722.492354 0.3380 0.3530 0.3600 0.3720 0.3890
1727.574954 0.4000 0.4120 0.4230 0.4300 0.4330
1732.657554 0.4330 0.4330 0.4340 0.4340 0.4340
1737.740154 0.4340 0.4340 0.4360 0.4400 0.4470
1742.822754 0.4560 0.4640 0.4800 0.4920 0.5040
1747.905354 0.5130 0.5210 0.5499 0.5650 0.5730
1752.987953 0.5840 0.6010 0.6050 0.6160 0.6170
1758.070553 0.6230 0.6290 0.6310 0.6320 0.6390
1763.153153 0.6490 0.6570 0.6610 0.6620 0.6680
1768.235753 0.6760 0.6800 0.6870 0.6900 0.6940
1773.318353 0.7010 0.7040 0.7070 0.7080 0.7080
1778.400953 0.7090 0.7110 0.7120 0.7160 0.7190
1783.483553 0.7200 0.7220 0.7230 0.7240 0.7260
1788.566152 0.7270 0.7270 0.7290 0.7290 0.7300
1793.648752 0.7310 0.7330 0.7330 0.7330 0.7340
1798.731352 0.7340 0.7340 0.7340 0.7340 0.7330
1803.813952 0.7330 0.7330 0.7340 0.7340 0.7340
1808.896552 0.7350 0.7350 0.7380 0.7380 0.7400
1813.979152 0.7400 0.7410 0.7420 0.7440 0.7440
1819.061751 0.7460 0.7480 0.7490 0.7490 0.7520
1824.144351 0.7530 0.7530 0.7550 0.7550 0.7560
1829.226951 0.7560 0.7570 0.7590 0.7600 0.7620
1834.309551 0.7630 0.7640 0.7640 0.7660 0.7660
1839.392151 0.7670 0.7670 0.7680 0.7700 0.7710
1844.474751 0.7730 0.7740 0.7740 0.7750 0.7750
1849.557350 0.7750 0.7770 0.7770 0.7780 0.7780
1854.639950 0.7780 0.7780 0.7790 0.7810 0.7810
1859.722550 0.7810 0.7810 0.7790 0.7790 0.7790
1864.805150 0.7790 0.7790 0.7780 0.7780 0.7780
1869.887750 0.7780 0.7770 0.7770 0.7770 0.7750
1874.970350 0.7750 0.7750 0.7740 0.7730 0.7730
1880.052950 0.7710 0.7700 0.7680 0.7670 0.7660
1885.135549 0.7630 0.7600 0.7590 0.7530 0.7510
1890.218149 0.7480 0.7450 0.7440 0.7420 0.7410
1895.300749 0.7400 0.7400 0.7380 0.7380 0.7370
1900.383349 0.7340 0.7310 0.7240 0.7220 0.7220
1905.465949 0.7230 0.7270 0.7310 0.7330 0.7370
1910.548549 0.7460 0.7570 0.7620 0.7700 0.7710
1915.631148 0.7750 0.7770 0.7780 0.7810 0.7820
1920.713748 0.7840 0.7850 0.7850 0.7860 0.7860
1925.796348 0.7860 0.7880 0.7880 0.7880 0.7880
1930.878948 0.7890 0.7900 0.7920 0.7930 0.7930
1935.961548 0.7930 0.7930 0.7930 0.7930 0.7930
1941.044148 0.7930 0.7930 0.7930 0.7930 0.7920
1946.126748 0.7920 0.7920 0.7920 0.7900 0.7900
1951.209347 0.7900 0.7900 0.7890 0.7900 0.7900
1956.291947 0.7900 0.7920 0.7920 0.7920 0.7930
1961.374547 0.7930 0.7950 0.7950 0.7950 0.7950
1966.457147 0.7950 0.7950 0.7950 0.7950 0.7950
1971.539747 0.7930 0.7930 0.7930 0.7930 0.7920
1976.622347 0.7920 0.7920 0.7900 0.7890 0.7890
1981.704946 0.7890 0.7890 0.7900 0.7900 0.7900
1986.787546 0.7900 0.7900 0.7920 0.7920 0.7920
1991.870146 0.7930 0.7930 0.7930 0.7950 0.7960
1996.952746 0.7970 0.7990 0.8000 0.8010 0.8020
2002.035346 0.8030 0.8035 0.8040 0.8056 0.8070
2007.117946 0.8075 0.8081 0.8096 0.8110 0.8115
2012.200546 0.8121 0.8131 0.8140 0.8146 0.8151
2017.283145 0.8161 0.8171 0.8176 0.8180 0.8180
2022.365745 0.8181 0.8186 0.8192 0.8202 0.8211
2027.448345 0.8216 0.8220 0.8220 0.8221 0.8226
2032.530945 0.8230 0.8230 0.8232 0.8243 0.8250
2037.613545 0.8250 0.8251 0.8256 0.8260 0.8260
2042.696145 0.8260 0.8260 0.8260 0.8260 0.8260
2047.778744 0.8260 0.8260 0.8260 0.8264 0.8274
2052.861344 0.8280 0.8280 0.8276 0.8266 0.8260
2057.943944 0.8260 0.8258 0.8253 0.8250 0.8250
2063.026544 0.8250 0.8250 0.8245 0.8235 0.8230
2068.109144 0.8230 0.8227 0.8222 0.8220 0.8220
2073.191744 0.8212 0.8197 0.8187 0.8182 0.8177
2078.274344 0.8172 0.8164 0.8154 0.8126 0.8085
2083.356943 0.8061 0.8046 0.8030 0.8015 0.8003
2088.439543 0.7993 0.7983 0.7973 0.7967 0.7962
2093.522143 0.7960 0.7960 0.7956 0.7951 0.7939
2098.604743 0.7924 0.7909 0.7894 0.7886 0.7881
2103.687343 0.7872 0.7862 0.7856 0.7851 0.7846
2108.769943 0.7841 0.7840 0.7840 0.7832 0.7822
2113.852542 0.7820 0.7820 0.7820 0.7820 0.7829
2118.935142 0.7839 0.7840 0.7840 0.7845 0.7850
2124.017742 0.7855 0.7860 0.7874 0.7889 0.7919
2129.100342 0.7949 0.7960 0.7970 0.7999 0.8030
2134.182942 0.8045 0.8060 0.8070 0.8080 0.8090
2139.265542 0.8100 0.8110 0.8121 0.8131 0.8140
2144.348141 0.8140 0.8140 0.8140 0.8140 0.8140
2149.430741 0.8140 0.8140 0.8140 0.8140 0.8140
2154.513341 0.8140 0.8140 0.8140 0.8140 0.8140
2159.595941 0.8140 0.8140 0.8140 0.8140 0.8138
2164.678541 0.8128 0.8120 0.8120 0.8119 0.8114
2169.761141 0.8109 0.8104 0.8096 0.8081 0.8069
2174.843741 0.8064 0.8057 0.8047 0.8038 0.8033
2179.926340 0.8027 0.8016 0.8010 0.8010 0.8008
2185.008940 0.8003 0.7998 0.7993 0.7990 0.7990
2190.091540 0.7990 0.7990 0.7986 0.7976 0.7968
2195.174140 0.7963 0.7960 0.7960 0.7951 0.7930
2200.256740 0.7913 0.7897 0.7887 0.7882 0.7872
2205.339340 0.7857 0.7842 0.7827 0.7817 0.7812
2210.421939 0.7810 0.7810 0.7813 0.7818 0.7826
2215.504539 0.7836 0.7843 0.7848 0.7853 0.7858
2220.587139 0.7866 0.7877 0.7883 0.7888 0.7893
2225.669739 0.7898 0.7907 0.7917 0.7920 0.7920
2230.752339 0.7924 0.7929 0.7930 0.7930 0.7937
2235.834939 0.7948 0.7950 0.7950 0.7950 0.7950
2240.917539 0.7950 0.7950 0.7950 0.7950 0.7950
2246.000138 0.7950 0.7950 0.7950 0.7950 0.7950
2251.082738 0.7950 0.7950 0.7950 0.7950 0.7950
2256.165338 0.7950 0.7950 0.7950 0.7941 0.7931
2261.247938 0.7930 0.7930 0.7930 0.7930 0.7930
2266.330538 0.7930 0.7925 0.7920 0.7920 0.7920
2271.413138 0.7920 0.7920 0.7910 0.7900 0.7900
2276.495737 0.7900 0.7895 0.7890 0.7885 0.7879
2281.578337 0.7869 0.7859 0.7854 0.7850 0.7850
2286.660937 0.7849 0.7844 0.7838 0.7828 0.7819
2291.743537 0.7814 0.7808 0.7798 0.7790 0.7790
2296.826137 0.7789 0.7784 0.7779 0.7774 0.7768
2301.908737 0.7757 0.7749 0.7744 0.7739 0.7734
2306.991337 0.7727 0.7717 0.7705 0.7690 0.7678
2312.073936 0.7673 0.7665 0.7650 0.7636 0.7626
2317.156536 0.7615 0.7599 0.7577 0.7542 0.7520
2322.239136 0.7520 0.7518 0.7513 0.7506 0.7496
2327.321736 0.7490 0.7490 0.7488 0.7483 0.7480
2332.404336 0.7480 0.7475 0.7465 0.7457 0.7452
2337.486936 0.7450 0.7450 0.7447 0.7442 0.7435
2342.569535 0.7424 0.7417 0.7412 0.7407 0.7402
2347.652135 0.7391 0.7376 0.7364 0.7354 0.7347
2352.734735 0.7342 0.7337 0.7332 0.7320 0.7305
2357.817335 0.7297 0.7292 0.7283 0.7273 0.7270
2362.899935 0.7270 0.7266 0.7261 0.7253 0.7242
2367.982535 0.7240 0.7240 0.7240 0.7240 0.7236
2373.065135 0.7231 0.7226 0.7221 0.7212 0.7202
2378.147734 0.7196 0.7191 0.7186 0.7181 0.7167
2383.230334 0.7152 0.7137 0.7122 0.7116 0.7110
2388.312934 0.7101 0.7091 0.7085 0.7080 0.7075
2393.395534 0.7070 0.7061 0.7050 0.7036 0.7020
2398.478134 0.7010 0.7000 0.6990 0.6980 0.6970
2403.560734 0.6960 0.6950 0.6939 0.6924 0.6910
2408.643333 0.6905 0.6900 0.6895 0.6890 0.6890
2413.725933 0.6888 0.6868 0.6848 0.6833 0.6818
2418.808533 0.6803 0.6788 0.6773 0.6757 0.6737
2423.891133 0.6717 0.6702 0.6688 0.6678 0.6667
2428.973733 0.6652 0.6637 0.6622 0.6609 0.6604
2434.056333 0.6598 0.6587 0.6579 0.6574 0.6569
2439.138932 0.6564 0.6556 0.6541 0.6527 0.6517
2444.221532 0.6508 0.6503 0.6495 0.6480 0.6463
2449.304132 0.6443 0.6424 0.6409 0.6396 0.6386
2454.386732 0.6374 0.6359 0.6327 0.6272 0.6231
2459.469332 0.6211 0.6196 0.6186 0.6169 0.6143
2464.551932 0.6113 0.6078 0.6043 0.6007 0.5972
2469.634532 0.5937 0.5907 0.5882 0.5859 0.5839
2474.717131 0.5824 0.5814 0.5796 0.5771 0.5751
2479.799731 0.5736 0.5709 0.5674 0.5636 0.5595
2484.882331 0.5548 0.5498 0.5464 0.5439 0.5393
2489.964931 0.5338 0.5310 0.5295 0.5280 0.5265
2495.047531 0.5242 0.5217 0.5171 0.5115 0.5085
2500.130131 0.5065 0.5038 0.5008 0.4973 0.4938
2505.212730 0.4914 0.4894 0.4886 0.4881 0.4880
2510.295330 0.4880 0.4884 0.4889 0.4903 0.4918
2515.377930 0.4950 0.4985 0.4994 0.4999 0.5018
2520.460530 0.5038 0.5053 0.5069 0.5121 0.5177
2525.543130 0.5194 0.5209 0.5224 0.5239 0.5245
2530.625730 0.5250 0.5250 0.5250 0.5245 0.5240
2535.708330 0.5240 0.5240 0.5230 0.5219 0.5199
2540.790929 0.5179 0.5159 0.5139 0.5124 0.5108
2545.873529 0.5083 0.5057 0.5027 0.4998 0.4983
2550.956129 0.4969 0.4959 0.4946 0.4916 0.4888
2556.038729 0.4873 0.4847 0.4772 0.4686 0.4550
2561.121329 0.4434 0.4404 0.4371 0.4325 0.4278
2566.203929 0.4228 0.4177 0.4127 0.4078 0.4033
2571.286528 0.3986 0.3936 0.3887 0.3841 0.3790
2576.369128 0.3725 0.3667 0.3627 0.3595 0.3580
2581.451728 0.3568 0.3563 0.3555 0.3539 0.3522
2586.534328 0.3502 0.3482 0.3462 0.3450 0.3450
2591.616928 0.3446 0.3436 0.3426 0.3415 0.3403
2596.699528 0.3388 0.3378 0.3373 0.3355 0.3325
2601.782128 0.3293 0.3257 0.3232 0.3217 0.3205
2606.864727 0.3194 0.3182 0.3167 0.3160 0.3160
2611.947327 0.3148 0.3128 0.3111 0.3096 0.3087
2617.029927 0.3082 0.3074 0.3064 0.3060 0.3060
2622.112527 0.3067 0.3077 0.3083 0.3088 0.3104
2627.195127 0.3124 0.3144 0.3164 0.3206 0.3257
2632.277727 0.3274 0.3279 0.3329 0.3394 0.3444
2637.360326 0.3490 0.3539 0.3589 0.3734 0.3905
2642.442926 0.3952 0.3967 0.3982 0.3998 0.4034
2647.525526 0.4074 0.4128 0.4183 0.4225 0.4265
2652.608126 0.4288 0.4308 0.4324 0.4339 0.4340
2657.690726 0.4340 0.4354 0.4369 0.4370 0.4370
2662.773326 0.4351 0.4331 0.4296 0.4260 0.4255
2667.855926 0.4250 0.4235 0.4220 0.4199 0.4177
2672.938525 0.4091 0.4010 0.4005 0.3999 0.3989
2678.021125 0.3973 0.3877 0.3788 0.3763 0.3735
2683.103725 0.3690 0.3645 0.3605 0.3566 0.3541
2688.186325 0.3517 0.3497 0.3478 0.3468 0.3459
2693.268925 0.3454 0.3451 0.3456 0.3462 0.3472
2698.351525 0.3482 0.3492 0.3502 0.3512 0.3520
2703.434124 0.3520 0.3521 0.3526 0.3530 0.3530
2708.516724 0.3528 0.3523 0.3520 0.3520 0.3522
2713.599324 0.3527 0.3530 0.3530 0.3532 0.3537
2718.681924 0.3544 0.3554 0.3562 0.3567 0.3576
2723.764524 0.3591 0.3600 0.3600 0.3600 0.3600
2728.847124 0.3598 0.3593 0.3590 0.3590 0.3585
2733.929723 0.3575 0.3567 0.3562 0.3555 0.3545
2739.012323 0.3537 0.3532 0.3533 0.3538 0.3546
2744.094923 0.3556 0.3569 0.3584 0.3602 0.3622
2749.177523 0.3636 0.3646 0.3656 0.3666 0.3683
2754.260123 0.3703 0.3746 0.3802 0.3837 0.3862
2759.342723 0.3894 0.3929 0.3950 0.3966 0.3991
2764.425323 0.4022 0.4030 0.4030 0.4034 0.4039
2769.507922 0.4040 0.4040 0.4036 0.4031 0.4022
2774.590522 0.4012 0.3994 0.3974 0.3958 0.3943
2779.673122 0.3932 0.3922 0.3895 0.3864 0.3847
2784.755722 0.3832 0.3826 0.3820 0.3784 0.3743
2789.838322 0.3726 0.3711 0.3705 0.3700 0.3667
2794.920922 0.3632 0.3630 0.3630 0.3547 0.3461
2800.003521 0.3406 0.3350 0.3290 0.3230 0.3215
2805.086121 0.3199 0.3148 0.3099 0.3079 0.3059
2810.168721 0.3038 0.3017 0.2976 0.2937 0.2901
2815.251321 0.2867 0.2837 0.2808 0.2787 0.2765
2820.333921 0.2724 0.2687 0.2667 0.2649 0.2644
2825.416521 0.2638 0.2628 0.2619 0.2614 0.2610
2830.499121 0.2610 0.2608 0.2598 0.2589 0.2584
2835.581720 0.2579 0.2574 0.2567 0.2557 0.2547
2840.664320 0.2537 0.2525 0.2510 0.2484 0.2434
2845.746920 0.2395 0.2380 0.2368 0.2363 0.2347
2850.829520 0.2312 0.2288 0.2283 0.2280 0.2280
2855.912120 0.2276 0.2266 0.2258 0.2253 0.2248
2860.994720 0.2243 0.2231 0.2211 0.2195 0.2185
2866.077319 0.2178 0.2172 0.2165 0.2155 0.2134
2871.159919 0.2104 0.2071 0.2036 0.2012 0.1997
2876.242519 0.1987 0.1982 0.1974 0.1964 0.1957
2881.325119 0.1952 0.1938 0.1918 0.1898 0.1878
2886.407719 0.1848 0.1812 0.1790 0.1775 0.1756
2891.490319 0.1736 0.1723 0.1713 0.1703 0.1693
2896.572919 0.1679 0.1664 0.1656 0.1651 0.1639
2901.655518 0.1624 0.1612 0.1602 0.1600 0.1600
2906.738118 0.1592 0.1582 0.1580 0.1580 0.1572
2911.820718 0.1562 0.1556 0.1551 0.1546 0.1541
2916.903318 0.1527 0.1512 0.1492 0.1472 0.1461
2921.985918 0.1451 0.1441 0.1431 0.1407 0.1382
2927.068518 0.1356 0.1331 0.1315 0.1300 0.1295
2932.151117 0.1290 0.1295 0.1300 0.1320 0.1340
2937.233717 0.1360 0.1381 0.1411 0.1441 0.1461
2942.316317 0.1486 0.1591 0.1691 0.1701 0.1711
2947.398917 0.1721 0.1730 0.1730 0.1729 0.1719
2952.481517 0.1709 0.1704 0.1700 0.1700 0.1696
2957.564117 0.1671 0.1645 0.1614 0.1580 0.1530
2962.646717 0.1486 0.1466 0.1450 0.1450 0.1455
2967.729316 0.1475 0.1498 0.1528 0.1551 0.1556
2972.811916 0.1560 0.1560 0.1563 0.1573 0.1580
2977.894516 0.1580 0.1577 0.1567 0.1558 0.1553
2982.977116 0.1548 0.1543 0.1540 0.1540 0.1540
2988.059716 0.1540 0.1540 0.1540 0.1542 0.1547
2993.142316 0.1550 0.1550 0.1552 0.1557 0.1560
2998.224915 0.1560 0.1565 0.1575 0.1582 0.1588
3003.307515 0.1593 0.1598 0.1600 0.1600 0.1605
3008.390115 0.1616 0.1620 0.1620 0.1629 0.1644
3013.472715 0.1653 0.1658 0.1663 0.1668 0.1676
3018.555315 0.1686 0.1693 0.1698 0.1700 0.1700
3023.637915 0.1710 0.1725 0.1730 0.1730 0.1740
3028.720514 0.1756 0.1760 0.1760 0.1760 0.1760
3033.803114 0.1764 0.1769 0.1770 0.1770 0.1770
3038.885714 0.1770 0.1774 0.1779 0.1780 0.1780
3043.968314 0.1788 0.1798 0.1804 0.1809 0.1814
3049.050914 0.1819 0.1829 0.1839 0.1840 0.1840
3054.133514 0.1845 0.1850 0.1859 0.1869 0.1870
3059.216114 0.1870 0.1875 0.1880 0.1885 0.1890
3064.298713 0.1900 0.1910 0.1910 0.1910 0.1910
3069.381313 0.1910 0.1915 0.1920 0.1925 0.1931
3074.463913 0.1941 0.1950 0.1955 0.1961 0.1971
3079.546513 0.1980 0.1980 0.1981 0.1986 0.1991
3084.629113 0.1996 0.2001 0.2011 0.2021 0.2026
3089.711713 0.2030 0.2030 0.2030 0.2030 0.2030
3094.794312 0.2030 0.2030 0.2030 0.2031 0.2036
3099.876912 0.2040 0.2040 0.2040 0.2040 0.2043
3104.959512 0.2053 0.2064 0.2079 0.2093 0.2103
3110.042112 0.2115 0.2130 0.2142 0.2147 0.2155
3115.124712 0.2170 0.2187 0.2207 0.2224 0.2234
3120.207312 0.2244 0.2254 0.2272 0.2302 0.2322
3125.289912 0.2327 0.2343 0.2373 0.2399 0.2419
3130.372511 0.2440 0.2460 0.2480 0.2500 0.2520
3135.455111 0.2540 0.2558 0.2573 0.2607 0.2657
3140.537711 0.2683 0.2688 0.2693 0.2698 0.2732
3145.620311 0.2787 0.2825 0.2850 0.2863 0.2868
3150.702911 0.2879 0.2895 0.2903 0.2908 0.2913
3155.785511 0.2918 0.2937 0.2962 0.2987 0.3012
3160.868110 0.3041 0.3071 0.3101 0.3132 0.3147
3165.950710 0.3157 0.3164 0.3169 0.3197 0.3232
3171.033310 0.3267 0.3303 0.3322 0.3337 0.3352
3176.115910 0.3367 0.3403 0.3443 0.3484 0.3524
3181.198510 0.3543 0.3558 0.3564 0.3569 0.3618
3186.281110 0.3674 0.3689 0.3699 0.3705 0.3710
3191.363710 0.3715 0.3720 0.3753 0.3789 0.3800
3196.446309 0.3810 0.3830 0.3850 0.3885 0.3920
3201.528909 0.3950 0.3980 0.4026 0.4070 0.4091
3206.611509 0.4111 0.4126 0.4141 0.4167 0.4191
3211.694109 0.4206 0.4221 0.4237 0.4251 0.4261
3216.776709 0.4272 0.4287 0.4305 0.4340 0.4372
3221.859309 0.4387 0.4406 0.4447 0.4481 0.4486
3226.941908 0.4493 0.4508 0.4526 0.4557 0.4586
3232.024508 0.4611 0.4637 0.4668 0.4695 0.4715
3237.107108 0.4731 0.4736 0.4749 0.4779 0.4808
3242.189708 0.4833 0.4859 0.4890 0.4918 0.4943
3247.272308 0.4977 0.5027 0.5069 0.5094 0.5114
3252.354908 0.5124 0.5132 0.5137 0.5146 0.5161
3257.437508 0.5181 0.5206 0.5229 0.5249 0.5265
3262.520107 0.5275 0.5301 0.5346 0.5401 0.5467
3267.602707 0.5510 0.5530 0.5558 0.5594 0.5613
3272.685307 0.5618 0.5642 0.5682 0.5711 0.5731
3277.767907 0.5749 0.5764 0.5776 0.5786 0.5808
3282.850507 0.5838 0.5865 0.5891 0.5903 0.5908
3287.933107 0.5933 0.5968 0.5990 0.6005 0.6024
3293.015706 0.6044 0.6089 0.6144 0.6174 0.6195
3298.098306 0.6233 0.6278 0.6297 0.6308 0.6321
3303.180906 0.6336 0.6355 0.6376 0.6396 0.6416
3308.263506 0.6448 0.6483 0.6490 0.6490 0.6511
3313.346106 0.6536 0.6553 0.6568 0.6583 0.6598
3318.428706 0.6631 0.6666 0.6688 0.6708 0.6733
3323.511305 0.6758 0.6778 0.6799 0.6842 0.6887
3328.593905 0.6909 0.6929 0.6949 0.6970 0.6990
3333.676505 0.7010 0.7050 0.7090 0.7100 0.7111
3338.759105 0.7131 0.7152 0.7197 0.7241 0.7251
3343.841705 0.7260 0.7265 0.7271 0.7286 0.7301
3348.924305 0.7317 0.7332 0.7353 0.7371 0.7376
3354.006905 0.7382 0.7397 0.7413 0.7428 0.7441
3359.089504 0.7446 0.7453 0.7468 0.7484 0.7504
3364.172104 0.7532 0.7588 0.7634 0.7649 0.7662
3369.254704 0.7673 0.7692 0.7738 0.7773 0.7783
3374.337304 0.7798 0.7823 0.7843 0.7853 0.7867
3379.419904 0.7887 0.7909 0.7934 0.7954 0.7964
3384.502504 0.7981 0.8011 0.8036 0.8051 0.8062
3389.585103 0.8067 0.8072 0.8077 0.8080 0.8080
3394.667703 0.8085 0.8095 0.8102 0.8107 0.8120
3399.750303 0.8140 0.8160 0.8180 0.8200 0.8220
3404.832903 0.8238 0.8253 0.8265 0.8275 0.8280
3409.915503 0.8280 0.8283 0.8288 0.8299 0.8314
3414.998103 0.8332 0.8352 0.8369 0.8385 0.8393
3420.080703 0.8398 0.8403 0.8408 0.8417 0.8427
3425.163302 0.8433 0.8438 0.8443 0.8448 0.8457
3430.245902 0.8467 0.8470 0.8470 0.8474 0.8479
3435.328502 0.8488 0.8498 0.8504 0.8509 0.8514
3440.411102 0.8519 0.8528 0.8538 0.8540 0.8540
3445.493702 0.8544 0.8549 0.8550 0.8550 0.8554
3450.576302 0.8559 0.8569 0.8579 0.8585 0.8590
3455.658901 0.8599 0.8609 0.8615 0.8620 0.8634
3460.741501 0.8649 0.8650 0.8650 0.8655 0.8660
3465.824101 0.8660 0.8660 0.8660 0.8660 0.8660
3470.906701 0.8660 0.8665 0.8671 0.8681 0.8690
3475.989301 0.8695 0.8701 0.8711 0.8720 0.8725
3481.071901 0.8730 0.8730 0.8731 0.8736 0.8740
3486.154501 0.8740 0.8740 0.8740 0.8740 0.8740
3491.237100 0.8740 0.8740 0.8740 0.8740 0.8740
3496.319700 0.8740 0.8740 0.8740 0.8742 0.8752
3501.402300 0.8761 0.8766 0.8770 0.8770 0.8769
3506.484900 0.8764 0.8757 0.8747 0.8740 0.8740
3511.567500 0.8738 0.8733 0.8730 0.8730 0.8730
3516.650100 0.8730 0.8728 0.8723 0.8716 0.8706
3521.732699 0.8692 0.8672 0.8658 0.8653 0.8646
3526.815299 0.8636 0.8628 0.8623 0.8611 0.8591
3531.897899 0.8575 0.8565 0.8557 0.8552 0.8547
3536.980499 0.8542 0.8540 0.8540 0.8543 0.8548
3542.063099 0.8558 0.8574 0.8591 0.8612 0.8632
3547.145699 0.8652 0.8672 0.8692 0.8706 0.8716
3552.228299 0.8733 0.8753 0.8763 0.8768 0.8780
3557.310898 0.8795 0.8810 0.8825 0.8834 0.8839
3562.393498 0.8851 0.8866 0.8874 0.8879 0.8884
3567.476098 0.8889 0.8901 0.8916 0.8928 0.8938
3572.558698 0.8944 0.8949 0.8954 0.8959 0.8972
3577.641298 0.8987 0.8994 0.8999 0.9013 0.9028
3582.723898 0.9026 0.9021 0.9007 0.8992 0.8986
3587.806497 0.8981 0.8966 0.8951 0.8945 0.8940
3592.889097 0.8931 0.8920 0.8934 0.8950 0.8955
3597.971697 0.8960 0.8975 0.8990 0.8995 0.9000
3603.054297 0.9010 0.9020 0.9020 0.9020 0.9020
3608.136897 0.9019 0.9004 0.8990 0.8990 0.8990
3613.219497 0.8990 0.8991 0.8996 0.9001 0.9011
3618.302096 0.9021 0.9026 0.9032 0.9042 0.9050
3623.384696 0.9050 0.9050 0.9050 0.9048 0.9038
3628.467296 0.9029 0.9024 0.9018 0.9008 0.9002
3633.549896 0.9012 0.9021 0.9026 0.9033 0.9043
3638.632496 0.9051 0.9056 0.9060 0.9060 0.9060
3643.715096 0.9060 0.9060 0.9060 0.9058 0.9053
3648.797696 0.9046 0.9036 0.9030 0.9030 0.9028
3653.880295 0.9023 0.9016 0.9006 0.9004 0.9014
3658.962895 0.9022 0.9027 0.9035 0.9045 0.9050
3664.045495 0.9050 0.9052 0.9057 0.9060 0.9060
3669.128095 0.9060 0.9060 0.9057 0.9052 0.9045
3674.210695 0.9034 0.9027 0.9022 0.9020 0.9020
3679.293295 0.9020 0.9020 0.9023 0.9028 0.9030
3684.375894 0.9030 0.9030 0.9030 0.9030 0.9030
3689.458494 0.9030 0.9030 0.9037 0.9047 0.9050
3694.541094 0.9050 0.9050 0.9050 0.9054 0.9059
3699.623694 0.9060 0.9060 0.9064 0.9069 0.9078
3704.706294 0.9088 0.9090 0.9090 0.9090 0.9090
3709.788894 0.9090 0.9090 0.9090 0.9090 0.9090
3714.871494 0.9090 0.9094 0.9099 0.9100 0.9100
3719.954093 0.9105 0.9110 0.9110 0.9110 0.9119
3725.036693 0.9129 0.9130 0.9130 0.9130 0.9130
3730.119293 0.9130 0.9130 0.9120 0.9110 0.9110
3735.201893 0.9110 0.9120 0.9130 0.9130 0.9130
3740.284493 0.9130 0.9130 0.9130 0.9129 0.9119
3745.367093 0.9110 0.9105 0.9100 0.9094 0.9090
3750.449692 0.9090 0.9089 0.9079 0.9070 0.9070
3755.532292 0.9070 0.9070 0.9070 0.9070 0.9070
3760.614892 0.9070 0.9070 0.9070 0.9070 0.9070
3765.697492 0.9069 0.9064 0.9060 0.9060 0.9060
3770.780092 0.9060 0.9060 0.9060 0.9060 0.9060
3775.862692 0.9060 0.9060 0.9060 0.9060 0.9060
3780.945292 0.9060 0.9062 0.9067 0.9070 0.9070
3786.027891 0.9074 0.9084 0.9090 0.9090 0.9092
3791.110491 0.9097 0.9100 0.9100 0.9098 0.9093
3796.193091 0.9092 0.9097 0.9100 0.9100
##END=
