##TITLE=PROPENENITRILE, 2-CHLORO-
##JCAMP-DX=4.24
##DATA TYPE=INFRARED SPECTRUM
##CLASS=COBLENTZ III
##ORIGIN=STANDARD OIL OF OHIO
##OWNER=COBLENTZ SOCIETY
Collection (C) 2018 copyright by the U.S. Secretary of Commerce
on behalf of the United States of America. All rights reserved.
##DATE=Not specified, most likely prior to 1970
##NAMES=2-chloroacrylonitrile
##CAS REGISTRY NO=920-37-6
##MOLFORM=C3 H2 Cl N
##SOURCE REFERENCE=COBLENTZ NO. 4359
##$NIST SOURCE=COBLENTZ
##$NIST IMAGE=cob4359
##SPECTROMETER/DATA SYSTEM=PERKIN-ELMER 521 (GRATING)
##STATE=LIQUID (NEAT)
##PATH LENGTH=0.003 CM
##SAMPLING PROCEDURE=TRANSMISSION
##RESOLUTION=4
##DATA PROCESSING=DIGITIZED BY NIST FROM HARD COPY (FROM TWO SEGMENTS)
##XUNITS=1/CM
##YUNITS=TRANSMITTANCE
##XFACTOR=1.000000
##YFACTOR=1
##DELTAX=1.687294
##FIRSTX=629.921
##LASTX=3953.89
##FIRSTY=0.625
##MAXX=3953.89
##MINX=629.921
##MAXY=0.9
##MINY=0.013
##NPOINTS=1971
##XYDATA=(X++(Y..Y))
629.921000 0.6250 0.6250 0.6250 0.6250 0.6230
638.357470 0.6150 0.6071 0.5852 0.5395 0.5172
646.793940 0.4870 0.4261 0.3642 0.3002 0.2204
655.230410 0.1733 0.0976 0.0911 0.0910 0.1009
663.666880 0.1090 0.1210 0.1360 0.1450 0.3709
672.103350 0.5032 0.5437 0.5589 0.5729 0.6017
680.539820 0.6170 0.6320 0.6350 0.6440 0.6520
688.976290 0.6540 0.6609 0.6640 0.6660 0.6660
697.412761 0.6640 0.6550 0.6500 0.6400 0.6340
705.849231 0.6181 0.6081 0.6050 0.6070 0.6149
714.285701 0.6220 0.6300 0.6499 0.6689 0.6889
722.722171 0.7089 0.7259 0.7379 0.7479 0.7569
731.158641 0.7630 0.7700 0.7790 0.7840 0.7870
739.595111 0.7949 0.8019 0.8139 0.8209 0.8289
748.031581 0.8360 0.8440 0.8490 0.8530 0.8560
756.468051 0.8600 0.8610 0.8650 0.8660 0.8660
764.904521 0.8680 0.8710 0.8730 0.8750 0.8760
773.340991 0.8760 0.8800 0.8810 0.8830 0.8850
781.777461 0.8870 0.8880 0.8880 0.8900 0.8900
790.213931 0.8900 0.8900 0.8900 0.8900 0.8880
798.650401 0.8880 0.8870 0.8870 0.8850 0.8830
807.086871 0.8810 0.8780 0.8760 0.8730 0.8710
815.523342 0.8680 0.8650 0.8610 0.8600 0.8580
823.959812 0.8560 0.8510 0.8480 0.8331 0.8122
832.396282 0.7850 0.7570 0.7251 0.7081 0.6961
840.832752 0.6960 0.7248 0.7577 0.7897 0.8038
849.269222 0.8160 0.8210 0.8290 0.8380 0.8410
857.705692 0.8430 0.8430 0.8390 0.8331 0.8290
866.142162 0.8240 0.8170 0.8060 0.8020 0.7851
874.578632 0.7671 0.7531 0.7381 0.7043 0.6714
883.015102 0.6050 0.4062 0.3691 0.3331 0.2982
891.451572 0.2125 0.0929 0.0335 0.0330 0.1082
899.888042 0.1830 0.3718 0.4109 0.4499 0.4769
908.324512 0.4770 0.4720 0.4502 0.4015 0.3624
916.760982 0.3180 0.3000 0.0924 0.0790 0.0641
925.197452 0.0471 0.0301 0.0161 0.0150 0.0130
933.633922 0.0130 0.0130 0.0130 0.0150 0.0150
942.070393 0.0160 0.0180 0.0200 0.0230 0.0329
950.506863 0.0640 0.1090 0.1529 0.1999 0.2518
958.943333 0.2997 0.3586 0.4106 0.4576 0.4768
967.379803 0.4940 0.5170 0.5270 0.5310 0.5390
975.816273 0.5460 0.5510 0.5639 0.5907 0.6197
984.252743 0.6370 0.6470 0.6550 0.6709 0.6909
992.689213 0.7029 0.7278 0.7399 0.7469 0.7599
1001.125683 0.7680 0.7790 0.7870 0.7920 0.7990
1009.562153 0.8040 0.8070 0.8090 0.8090 0.8090
1017.998623 0.8110 0.8110 0.8120 0.8140 0.8160
1026.435093 0.8220 0.8290 0.8340 0.8360 0.8380
1034.871563 0.8380 0.8380 0.8360 0.8330 0.8310
1043.308033 0.8240 0.8190 0.8091 0.8070 0.8070
1051.744503 0.8070 0.8090 0.8090 0.8090 0.8090
1060.180974 0.8110 0.8140 0.8160 0.8160 0.8140
1068.617444 0.8140 0.8120 0.8110 0.8110 0.8090
1077.053914 0.8070 0.8020 0.8020 0.8010 0.7990
1085.490384 0.7940 0.7890 0.7850 0.7790 0.7720
1093.926854 0.7630 0.7521 0.7411 0.7113 0.6773
1102.363324 0.6390 0.5930 0.5221 0.4731 0.4302
1110.799794 0.3942 0.3423 0.3152 0.3150 0.3853
1119.236264 0.4560 0.5170 0.5390 0.5609 0.6516
1127.672734 0.6689 0.6789 0.6790 0.6760 0.6760
1136.109204 0.6740 0.6690 0.6550 0.6181 0.5961
1144.545674 0.5343 0.5022 0.4772 0.4730 0.4136
1152.982144 0.3760 0.3450 0.2781 0.2311 0.1852
1161.418614 0.0875 0.0373 0.0330 0.0320 0.0320
1169.855084 0.0330 0.0370 0.0480 0.0530 0.0689
1178.291554 0.0819 0.0959 0.1089 0.1506 0.1995
1186.728025 0.2470 0.2950 0.3329 0.3988 0.4508
1195.164495 0.4967 0.5139 0.5388 0.5638 0.6066
1203.600965 0.6290 0.6440 0.6500 0.6610 0.6720
1212.037435 0.6819 0.6959 0.7029 0.7109 0.7159
1220.473905 0.7200 0.7250 0.7330 0.7450 0.7550
1228.910375 0.7679 0.7789 0.7850 0.7890 0.7920
1237.346845 0.7940 0.7970 0.7970 0.7970 0.7970
1245.783315 0.7990 0.7990 0.7990 0.7990 0.8010
1254.219785 0.8040 0.8060 0.8120 0.8140 0.8160
1262.656255 0.8170 0.8170 0.8170 0.8190 0.8210
1271.092725 0.8260 0.8290 0.8330 0.8390 0.8430
1279.529195 0.8460 0.8480 0.8510 0.8530 0.8540
1287.965665 0.8540 0.8560 0.8580 0.8560 0.8560
1296.402135 0.8540 0.8530 0.8530 0.8510 0.8510
1304.838606 0.8490 0.8480 0.8460 0.8460 0.8440
1313.275076 0.8440 0.8440 0.8440 0.8440 0.8440
1321.711546 0.8460 0.8460 0.8460 0.8460 0.8440
1330.148016 0.8430 0.8410 0.8380 0.8330 0.8290
1338.584486 0.8260 0.8210 0.8160 0.8110 0.8060
1347.020956 0.8010 0.7950 0.7801 0.7582 0.7481
1355.457426 0.7300 0.7080 0.6790 0.6501 0.6132
1363.893896 0.5802 0.5214 0.4902 0.4514 0.4282
1372.330366 0.4009 0.3650 0.3500 0.3500 0.4227
1380.766836 0.4897 0.5387 0.5688 0.5997 0.6713
1389.203306 0.6940 0.7160 0.7200 0.7210 0.7210
1397.639776 0.7210 0.7200 0.7150 0.7091 0.7040
1406.076246 0.6930 0.6890 0.6810 0.6690 0.6521
1414.512716 0.6351 0.6221 0.6180 0.6081 0.6050
1422.949186 0.6030 0.6050 0.6070 0.6120 0.6200
1431.385657 0.6389 0.6638 0.7037 0.7199 0.7329
1439.822127 0.7600 0.7750 0.7770 0.7840 0.7970
1448.258597 0.8060 0.8219 0.8339 0.8429 0.8489
1456.695067 0.8540 0.8660 0.8700 0.8700 0.8710
1465.131537 0.8710 0.8710 0.8710 0.8710 0.8710
1473.568007 0.8700 0.8700 0.8700 0.8680 0.8680
1482.004477 0.8660 0.8660 0.8650 0.8650 0.8630
1490.440947 0.8630 0.8630 0.8650 0.8660 0.8680
1498.877417 0.8700 0.8700 0.8710 0.8730 0.8730
1507.313887 0.8760 0.8780 0.8800 0.8800 0.8810
1515.750357 0.8810 0.8810 0.8810 0.8800 0.8800
1524.186827 0.8800 0.8780 0.8780 0.8760 0.8750
1532.623297 0.8730 0.8710 0.8700 0.8660 0.8650
1541.059767 0.8610 0.8610 0.8600 0.8600 0.8580
1549.496237 0.8560 0.8530 0.8510 0.8510 0.8490
1557.932708 0.8490 0.8460 0.8430 0.8360 0.8330
1566.369178 0.8310 0.8290 0.8270 0.8171 0.8041
1574.805648 0.7990 0.7800 0.7700 0.7630 0.7112
1583.242118 0.6772 0.6591 0.6590 0.6659 0.6610
1591.678588 0.6550 0.6290 0.5221 0.4821 0.3793
1600.115058 0.3083 0.2364 0.1784 0.0808 0.0483
1608.551528 0.0200 0.0180 0.0200 0.0719 0.0989
1616.987998 0.1259 0.2304 0.4514 0.5165 0.5794
1625.424468 0.6250 0.6320 0.6720 0.7089 0.7200
1633.860938 0.7280 0.7409 0.7569 0.7649 0.7769
1642.297408 0.7890 0.7900 0.7900 0.7920 0.7970
1650.733878 0.8070 0.8169 0.8259 0.8260 0.8329
1659.170348 0.8390 0.8410 0.8430 0.8440 0.8460
1667.606818 0.8490 0.8530 0.8580 0.8610 0.8679
1676.043289 0.8700 0.8710 0.8710 0.8710 0.8730
1684.479759 0.8730 0.8750 0.8760 0.8760 0.8760
1692.916229 0.8760 0.8760 0.8760 0.8750 0.8750
1701.352699 0.8750 0.8750 0.8750 0.8730 0.8730
1709.789169 0.8730 0.8730 0.8730 0.8710 0.8710
1718.225639 0.8710 0.8700 0.8700 0.8680 0.8680
1726.662109 0.8680 0.8680 0.8680 0.8680 0.8680
1735.098579 0.8680 0.8680 0.8680 0.8680 0.8680
1743.535049 0.8680 0.8680 0.8700 0.8700 0.8700
1751.971519 0.8710 0.8710 0.8710 0.8710 0.8700
1760.407989 0.8680 0.8660 0.8650 0.8630 0.8610
1768.844459 0.8600 0.8560 0.8540 0.8510 0.8490
1777.280929 0.8430 0.8380 0.8360 0.8330 0.8310
1785.717399 0.8290 0.8290 0.8290 0.8290 0.8270
1794.153869 0.8270 0.8240 0.8240 0.8220 0.8220
1802.590340 0.8240 0.8310 0.8340 0.8479 0.8510
1811.026810 0.8530 0.8560 0.8580 0.8580 0.8580
1819.463280 0.8560 0.8540 0.8530 0.8510 0.8490
1827.899750 0.8460 0.8410 0.8340 0.8290 0.8240
1836.336220 0.8210 0.8160 0.8110 0.8060 0.8010
1844.772690 0.7870 0.7800 0.7740 0.7630 0.7500
1853.209160 0.7380 0.7181 0.7130 0.7031 0.6990
1861.645630 0.6960 0.6930 0.6910 0.6880 0.6840
1870.082100 0.6820 0.6810 0.6810 0.6820 0.6840
1878.518570 0.6890 0.6930 0.7010 0.7090 0.7180
1886.955040 0.7230 0.7300 0.7469 0.7569 0.7699
1895.391510 0.7790 0.7900 0.7970 0.8070 0.8190
1903.827980 0.8240 0.8310 0.8360 0.8390 0.8440
1912.264450 0.8510 0.8610 0.8650 0.8680 0.8700
1920.700921 0.8710 0.8730 0.8750 0.8760 0.8760
1929.137391 0.8780 0.8780 0.8800 0.8810 0.8810
1937.573861 0.8830 0.8830 0.8830 0.8830 0.8850
1946.010331 0.8870 0.8870 0.8870 0.8870 0.8870
1954.446801 0.8870 0.8870 0.8870 0.8870 0.8870
1962.883271 0.8880 0.8880 0.8900 0.8920 0.8920
1971.319741 0.8930 0.8950 0.8970 0.8970 0.8980
1979.756211 0.8980 0.8980 0.8980 0.8980 0.8980
1988.192681 0.8980 0.8980 0.8980 0.8980 0.8980
1996.629151 0.8980 0.8980 0.8980 0.8980 0.8980
2005.065621 0.8980 0.8980 0.8980 0.8980 0.8980
2013.502091 0.8980 0.8980 0.8980 0.8980 0.8980
2021.938561 0.8980 0.8980 0.8980 0.8980 0.8970
2030.375031 0.8970 0.8950 0.8950 0.8930 0.8930
2038.811501 0.8920 0.8900 0.8880 0.8870 0.8850
2047.247972 0.8830 0.8810 0.8780 0.8760 0.8760
2055.684442 0.8780 0.8800 0.8810 0.8830 0.8850
2064.120912 0.8880 0.8900 0.8920 0.8950 0.8950
2072.557382 0.8970 0.8970 0.8980 0.8980 0.8980
2080.993852 0.8980 0.8980 0.8980 0.8980 0.8980
2089.430322 0.8980 0.8970 0.8970 0.8931 0.8930
2097.866792 0.8920 0.8930 0.8950 0.8980 0.9000
2106.303262 0.9000 0.9000 0.9000 0.9000 0.9000
2114.739732 0.9000 0.9000 0.8980 0.8980 0.8980
2123.176202 0.8980 0.8980 0.8980 0.8980 0.8980
2131.612672 0.8980 0.8999 0.9000 0.9000 0.8980
2140.049142 0.8980 0.8980 0.8980 0.8970 0.8970
2148.485612 0.8970 0.8970 0.8970 0.8950 0.8950
2156.922082 0.8950 0.8950 0.8931 0.8930 0.8930
2165.358553 0.8930 0.8949 0.8950 0.8950 0.8950
2173.795023 0.8950 0.8931 0.8920 0.8920 0.8901
2182.231493 0.8881 0.8870 0.8870 0.8851 0.8850
2190.667963 0.8850 0.8869 0.8870 0.8880 0.8880
2199.104433 0.8880 0.8870 0.8851 0.8831 0.8811
2207.540903 0.8810 0.8800 0.8781 0.8751 0.8712
2215.977373 0.8681 0.8651 0.8631 0.8611 0.8562
2224.413843 0.8531 0.8434 0.8334 0.8148 0.8025
2232.850313 0.7427 0.6979 0.6459 0.5026 0.4432
2241.286783 0.3652 0.3006 0.2980 0.4491 0.5324
2249.723253 0.6095 0.7626 0.7844 0.7917 0.8035
2258.159723 0.8059 0.8060 0.8041 0.7907 0.7748
2266.596193 0.7635 0.7582 0.7580 0.7628 0.7831
2275.032663 0.7850 0.8050 0.8231 0.8373 0.8503
2283.469133 0.8557 0.8607 0.8658 0.8698 0.8710
2291.905604 0.8729 0.8749 0.8759 0.8760 0.8779
2300.342074 0.8799 0.8800 0.8800 0.8800 0.8810
2308.778544 0.8810 0.8810 0.8810 0.8810 0.8810
2317.215014 0.8829 0.8830 0.8830 0.8830 0.8830
2325.651484 0.8849 0.8850 0.8850 0.8850 0.8850
2334.087954 0.8869 0.8870 0.8879 0.8880 0.8880
2342.524424 0.8880 0.8899 0.8900 0.8900 0.8900
2350.960894 0.8919 0.8920 0.8920 0.8920 0.8920
2359.397364 0.8920 0.8929 0.8930 0.8930 0.8930
2367.833834 0.8930 0.8930 0.8930 0.8930 0.8930
2376.270304 0.8921 0.8920 0.8901 0.8900 0.8881
2384.706774 0.8880 0.8880 0.8880 0.8871 0.8870
2393.143244 0.8870 0.8851 0.8850 0.8850 0.8850
2401.579714 0.8831 0.8811 0.8801 0.8781 0.8761
2410.016185 0.8751 0.8731 0.8711 0.8701 0.8681
2418.452655 0.8680 0.8699 0.8700 0.8709 0.8729
2426.889125 0.8730 0.8749 0.8759 0.8779 0.8798
2435.325595 0.8809 0.8810 0.8829 0.8830 0.8849
2443.762065 0.8850 0.8850 0.8850 0.8850 0.8832
2452.198535 0.8830 0.8830 0.8830 0.8830 0.8811
2460.635005 0.8810 0.8801 0.8800 0.8800 0.8800
2469.071475 0.8800 0.8800 0.8782 0.8762 0.8760
2477.507945 0.8751 0.8750 0.8732 0.8712 0.8683
2485.944415 0.8653 0.8613 0.8564 0.8532 0.8512
2494.380885 0.8528 0.8539 0.8595 0.8655 0.8697
2502.817355 0.8727 0.8748 0.8759 0.8760 0.8760
2511.253825 0.8760 0.8760 0.8760 0.8778 0.8798
2519.690295 0.8809 0.8828 0.8848 0.8868 0.8870
2528.126765 0.8870 0.8870 0.8870 0.8870 0.8852
2536.563236 0.8850 0.8850 0.8832 0.8830 0.8830
2544.999706 0.8830 0.8848 0.8868 0.8870 0.8879
2553.436176 0.8880 0.8880 0.8898 0.8900 0.8900
2561.872646 0.8900 0.8900 0.8882 0.8880 0.8880
2570.309116 0.8880 0.8880 0.8880 0.8880 0.8880
2578.745586 0.8880 0.8880 0.8880 0.8880 0.8880
2587.182056 0.8871 0.8870 0.8870 0.8870 0.8870
2595.618526 0.8870 0.8870 0.8870 0.8879 0.8880
2604.054996 0.8880 0.8898 0.8900 0.8900 0.8900
2612.491466 0.8900 0.8900 0.8900 0.8900 0.8900
2620.927936 0.8900 0.8900 0.8900 0.8900 0.8900
2629.364406 0.8900 0.8900 0.8900 0.8900 0.8882
2637.800876 0.8880 0.8880 0.8880 0.8871 0.8870
2646.237346 0.8870 0.8870 0.8870 0.8870 0.8870
2654.673817 0.8870 0.8870 0.8870 0.8870 0.8870
2663.110287 0.8870 0.8870 0.8870 0.8870 0.8870
2671.546757 0.8870 0.8870 0.8852 0.8850 0.8850
2679.983227 0.8850 0.8850 0.8850 0.8850 0.8850
2688.419697 0.8850 0.8850 0.8850 0.8850 0.8832
2696.856167 0.8830 0.8830 0.8830 0.8830 0.8812
2705.292637 0.8810 0.8810 0.8810 0.8810 0.8810
2713.729107 0.8810 0.8801 0.8800 0.8800 0.8800
2722.165577 0.8800 0.8800 0.8800 0.8800 0.8800
2730.602047 0.8800 0.8800 0.8782 0.8780 0.8762
2739.038517 0.8760 0.8751 0.8732 0.8712 0.8666
2747.474987 0.8651 0.8615 0.8584 0.8563 0.8543
2755.911457 0.8531 0.8513 0.8440 0.8351 0.8270
2764.347927 0.8129 0.8075 0.8018 0.7949 0.7923
2772.784397 0.7937 0.7966 0.8031 0.8145 0.8378
2781.220868 0.8471 0.8489 0.8490 0.8490 0.8490
2789.657338 0.8490 0.8507 0.8510 0.8527 0.8539
2798.093808 0.8592 0.8643 0.8659 0.8695 0.8709
2806.530278 0.8710 0.8710 0.8727 0.8730 0.8730
2814.966748 0.8730 0.8730 0.8730 0.8730 0.8730
2823.403218 0.8730 0.8730 0.8730 0.8730 0.8713
2831.839688 0.8710 0.8710 0.8710 0.8710 0.8701
2840.276158 0.8683 0.8680 0.8663 0.8660 0.8660
2848.712628 0.8651 0.8650 0.8633 0.8630 0.8630
2857.149098 0.8613 0.8610 0.8610 0.8610 0.8610
2865.585568 0.8610 0.8610 0.8610 0.8601 0.8600
2874.022038 0.8600 0.8600 0.8600 0.8583 0.8580
2882.458508 0.8563 0.8543 0.8540 0.8514 0.8510
2890.894978 0.8493 0.8482 0.8463 0.8443 0.8440
2899.331449 0.8457 0.8477 0.8488 0.8490 0.8490
2907.767919 0.8490 0.8490 0.8481 0.8480 0.8463
2916.204389 0.8443 0.8440 0.8432 0.8413 0.8385
2924.640859 0.8363 0.8343 0.8315 0.8293 0.8273
2933.077329 0.8262 0.8243 0.8223 0.8195 0.8173
2941.513799 0.8162 0.8126 0.8112 0.8093 0.8073
2949.950269 0.8045 0.8040 0.8015 0.7993 0.7915
2958.386739 0.7850 0.7765 0.7514 0.7209 0.7118
2966.823209 0.6824 0.6275 0.5929 0.5863 0.5893
2975.259679 0.6067 0.6492 0.6965 0.7258 0.7510
2983.696149 0.7592 0.7625 0.7688 0.7717 0.7720
2992.132619 0.7720 0.7703 0.7683 0.7672 0.7670
3000.569089 0.7653 0.7625 0.7587 0.7530 0.7387
3009.005559 0.7252 0.7131 0.7043 0.6855 0.6570
3017.442029 0.6370 0.6082 0.5474 0.5120 0.4888
3025.878500 0.4586 0.4406 0.4181 0.3999 0.3837
3034.314970 0.3769 0.3710 0.3659 0.3501 0.3313
3042.751440 0.3189 0.3030 0.2967 0.2861 0.2840
3051.187910 0.3278 0.3576 0.4452 0.5461 0.5837
3059.624380 0.6167 0.6566 0.6764 0.6873 0.7005
3068.060850 0.7154 0.7221 0.7255 0.7293 0.7325
3076.497320 0.7346 0.7375 0.7396 0.7425 0.7446
3084.933790 0.7466 0.7478 0.7480 0.7472 0.7470
3093.370260 0.7437 0.7430 0.7405 0.7384 0.7355
3101.806730 0.7334 0.7289 0.7239 0.7173 0.7119
3110.243200 0.7053 0.6951 0.6856 0.6660 0.6400
3118.679670 0.6162 0.5884 0.5269 0.4807 0.4381
3127.116140 0.3871 0.3366 0.2838 0.2471 0.2052
3135.552610 0.1669 0.1600 0.1940 0.2125 0.2942
3143.989081 0.4082 0.4801 0.5301 0.5585 0.5808
3152.425551 0.6109 0.6356 0.6521 0.6679 0.6815
3160.862021 0.6912 0.7018 0.7113 0.7187 0.7200
3169.298491 0.7248 0.7316 0.7354 0.7376 0.7380
3177.734961 0.7396 0.7400 0.7400 0.7384 0.7364
3186.171431 0.7312 0.7284 0.7240 0.7174 0.7120
3194.607901 0.7070 0.7036 0.6853 0.6593 0.6347
3203.044371 0.5963 0.5880 0.6032 0.6150 0.6345
3211.480841 0.6438 0.6696 0.7056 0.7330 0.7500
3219.917311 0.7586 0.7640 0.7690 0.7740 0.7790
3228.353781 0.7832 0.7864 0.7886 0.7898 0.7916
3236.790251 0.7936 0.7980 0.7990 0.8006 0.8010
3245.226721 0.8018 0.8036 0.8040 0.8040 0.8056
3253.663191 0.8060 0.8084 0.8090 0.8106 0.8110
3262.099661 0.8110 0.8118 0.8136 0.8140 0.8156
3270.536132 0.8160 0.8168 0.8170 0.8170 0.8170
3278.972602 0.8170 0.8170 0.8170 0.8162 0.8160
3287.409072 0.8160 0.8160 0.8160 0.8160 0.8160
3295.845542 0.8160 0.8160 0.8168 0.8170 0.8170
3304.282012 0.8170 0.8170 0.8170 0.8170 0.8162
3312.718482 0.8160 0.8160 0.8160 0.8160 0.8160
3321.154952 0.8160 0.8160 0.8160 0.8160 0.8160
3329.591422 0.8160 0.8168 0.8170 0.8170 0.8170
3338.027892 0.8170 0.8170 0.8170 0.8170 0.8162
3346.464362 0.8160 0.8160 0.8160 0.8144 0.8140
3354.900832 0.8140 0.8140 0.8140 0.8140 0.8140
3363.337302 0.8140 0.8125 0.8120 0.8120 0.8120
3371.773772 0.8120 0.8112 0.8110 0.8095 0.8090
3380.210242 0.8075 0.8070 0.8070 0.8062 0.8060
3388.646712 0.8060 0.8045 0.8040 0.8025 0.8020
3397.083183 0.8020 0.8020 0.8020 0.8035 0.8040
3405.519653 0.8078 0.8105 0.8118 0.8135 0.8155
3413.956123 0.8168 0.8170 0.8170 0.8170 0.8185
3422.392593 0.8190 0.8205 0.8210 0.8210 0.8210
3430.829063 0.8210 0.8210 0.8218 0.8220 0.8235
3439.265533 0.8240 0.8240 0.8255 0.8260 0.8268
3447.702003 0.8262 0.8260 0.8260 0.8260 0.8260
3456.138473 0.8268 0.8270 0.8270 0.8285 0.8305
3464.574943 0.8310 0.8325 0.8330 0.8330 0.8338
3473.011413 0.8340 0.8340 0.8355 0.8360 0.8375
3481.447883 0.8380 0.8380 0.8388 0.8390 0.8390
3489.884353 0.8405 0.8410 0.8425 0.8430 0.8430
3498.320823 0.8437 0.8455 0.8460 0.8475 0.8480
3506.757293 0.8488 0.8490 0.8505 0.8510 0.8510
3515.193764 0.8495 0.8490 0.8490 0.8490 0.8490
3523.630234 0.8490 0.8490 0.8490 0.8490 0.8490
3532.066704 0.8490 0.8490 0.8490 0.8490 0.8505
3540.503174 0.8510 0.8510 0.8510 0.8510 0.8510
3548.939644 0.8510 0.8510 0.8510 0.8510 0.8510
3557.376114 0.8525 0.8530 0.8530 0.8515 0.8510
3565.812584 0.8510 0.8510 0.8510 0.8510 0.8510
3574.249054 0.8510 0.8510 0.8495 0.8490 0.8490
3582.685524 0.8490 0.8490 0.8490 0.8490 0.8490
3591.121994 0.8490 0.8490 0.8490 0.8490 0.8490
3599.558464 0.8490 0.8490 0.8490 0.8490 0.8490
3607.994934 0.8490 0.8483 0.8487 0.8490 0.8490
3616.431404 0.8505 0.8510 0.8510 0.8510 0.8510
3624.867874 0.8510 0.8510 0.8510 0.8510 0.8510
3633.304344 0.8525 0.8530 0.8530 0.8530 0.8530
3641.740815 0.8530 0.8530 0.8530 0.8530 0.8530
3650.177285 0.8516 0.8510 0.8510 0.8510 0.8510
3658.613755 0.8510 0.8525 0.8530 0.8530 0.8530
3667.050225 0.8530 0.8530 0.8516 0.8510 0.8510
3675.486695 0.8510 0.8510 0.8510 0.8510 0.8510
3683.923165 0.8510 0.8510 0.8496 0.8490 0.8490
3692.359635 0.8490 0.8490 0.8490 0.8490 0.8490
3700.796105 0.8490 0.8490 0.8504 0.8510 0.8510
3709.232575 0.8510 0.8524 0.8530 0.8530 0.8530
3717.669045 0.8530 0.8530 0.8530 0.8530 0.8530
3726.105515 0.8530 0.8530 0.8530 0.8530 0.8530
3734.541985 0.8530 0.8530 0.8530 0.8530 0.8530
3742.978455 0.8530 0.8530 0.8530 0.8530 0.8516
3751.414925 0.8510 0.8510 0.8510 0.8510 0.8510
3759.851396 0.8510 0.8510 0.8510 0.8510 0.8510
3768.287866 0.8510 0.8496 0.8490 0.8490 0.8490
3776.724336 0.8490 0.8490 0.8490 0.8483 0.8466
3785.160806 0.8446 0.8440 0.8454 0.8460 0.8460
3793.597276 0.8474 0.8480 0.8487 0.8490 0.8490
3802.033746 0.8490 0.8490 0.8490 0.8490 0.8490
3810.470216 0.8483 0.8480 0.8466 0.8460 0.8446
3818.906686 0.8405 0.8383 0.8366 0.8346 0.8319
3827.343156 0.8296 0.8276 0.8249 0.8226 0.8213
3835.779626 0.8210 0.8217 0.8234 0.8254 0.8316
3844.216096 0.8389 0.8424 0.8430 0.8437 0.8440
3852.652566 0.8454 0.8474 0.8487 0.8490 0.8490
3861.089036 0.8504 0.8510 0.8510 0.8510 0.8510
3869.525506 0.8510 0.8510 0.8510 0.8510 0.8510
3877.961976 0.8510 0.8510 0.8510 0.8510 0.8510
3886.398447 0.8496 0.8490 0.8490 0.8483 0.8466
3894.834917 0.8460 0.8460 0.8460 0.8446 0.8433
3903.271387 0.8430 0.8430 0.8416 0.8396 0.8390
3911.707857 0.8390 0.8383 0.8380 0.8366 0.8360
3920.144327 0.8360 0.8360 0.8360 0.8360 0.8360
3928.580797 0.8374 0.8387 0.8390 0.8404 0.8424
3937.017267 0.8430 0.8430 0.8430 0.8430 0.8430
3945.453737 0.8430 0.8437 0.8440 0.8440 0.8440
3953.890207 0.8453
##END=
