##TITLE=Propane, 1,2,3-tribromo-
##JCAMP-DX=4.24
$$ By DXEDIT 1.05 (RS McDonald)
##DATA TYPE=INFRARED SPECTRUM
##CLASS=COBLENTZ
##ORIGIN=DOW CHEMICAL COMPANY
##OWNER=COPYRIGHT (C) 1988 by COBLENTZ SOCIETY INC.
Collection (C) 2018 copyright by the U.S. Secretary of Commerce
on behalf of the United States of America. All rights reserved.
##DATE=1960/02/02
##NAMES=1,2,3-tribromopropane
##CAS REGISTRY NO=96-11-7
##MOLFORM=C3 H5 Br3
##SOURCE REFERENCE=COBLENTZ NO. 5697
##$NIST SOURCE=COBLENTZ
##$NIST IMAGE=cob5697
##SPECTROMETER/DATA SYSTEM=DOW KBr FOREPRISM-GRATING
##INSTRUMENT PARAMETERS=BLAZED AT 3.5, 12.0, 20.0 MICRON AND CHANGED AT 5.0, 7.5, 14.9 MICRON
##STATE=SOLUTION (10% CCl4 FOR 2.7-7.4, 10% CS2 FOR 7.4-22)
##PATH LENGTH=0.011 CM, 0.011 CM
$$SPECTRAL CONTAMINATION DUE TO CCl4 AROUND 1550 CM^-^1 HAS BEEN SUBTRACTED
##SAMPLING PROCEDURE=TRANSMISSION
##RESOLUTION=2
##DATA PROCESSING=DIGITIZED BY COBLENTZ SOCIETY (BATCH I) FROM HARD COPY
##XUNITS=1/CM
##YUNITS=TRANSMITTANCE
##XFACTOR=1
##YFACTOR=1
##DELTAX=1
##FIRSTX=3722
##LASTX=419
##FIRSTY=0.9219
##MAXX=3722
##MINX=419
##MAXY=0.9323
##MINY=0.2689
##NPOINTS=3304
##XYDATA=(X++(Y..Y))
3722.000000 0.9219 0.9217 0.9216 0.9198 0.9196
3717.000000 0.9206 0.9202 0.9199 0.9198 0.9195
3712.000000 0.9196 0.9198 0.9190 0.9197 0.9194
3707.000000 0.9190 0.9187 0.9184 0.9182 0.9179
3702.000000 0.9176 0.9173 0.9172 0.9172 0.9174
3697.000000 0.9176 0.9165 0.9164 0.9166 0.9167
3692.000000 0.9169 0.9173 0.9179 0.9184 0.9190
3687.000000 0.9191 0.9187 0.9192 0.9199 0.9204
3682.000000 0.9210 0.9215 0.9221 0.9226 0.9231
3677.000000 0.9236 0.9241 0.9247 0.9252 0.9257
3672.000000 0.9262 0.9264 0.9280 0.9269 0.9269
3667.000000 0.9268 0.9270 0.9261 0.9254 0.9239
3662.000000 0.9228 0.9214 0.9200 0.9194 0.9189
3657.000000 0.9187 0.9187 0.9186 0.9184 0.9184
3652.000000 0.9182 0.9179 0.9179 0.9178 0.9176
3647.000000 0.9175 0.9174 0.9172 0.9170 0.9168
3642.000000 0.9166 0.9163 0.9161 0.9159 0.9158
3637.000000 0.9156 0.9154 0.9152 0.9150 0.9150
3632.000000 0.9160 0.9158 0.9152 0.9140 0.9145
3627.000000 0.9153 0.9152 0.9148 0.9148 0.9145
3622.000000 0.9145 0.9148 0.9154 0.9167 0.9182
3617.000000 0.9188 0.9193 0.9201 0.9207 0.9213
3612.000000 0.9220 0.9226 0.9233 0.9238 0.9233
3607.000000 0.9248 0.9250 0.9252 0.9253 0.9251
3602.000000 0.9247 0.9258 0.9253 0.9245 0.9253
3597.000000 0.9259 0.9257 0.9255 0.9253 0.9250
3592.000000 0.9249 0.9245 0.9244 0.9242 0.9240
3587.000000 0.9235 0.9230 0.9222 0.9216 0.9209
3582.000000 0.9202 0.9196 0.9190 0.9182 0.9176
3577.000000 0.9168 0.9155 0.9144 0.9150 0.9157
3572.000000 0.9159 0.9159 0.9168 0.9175 0.9184
3567.000000 0.9185 0.9190 0.9189 0.9188 0.9185
3562.000000 0.9184 0.9182 0.9181 0.9180 0.9178
3557.000000 0.9177 0.9175 0.9188 0.9174 0.9174
3552.000000 0.9185 0.9184 0.9180 0.9173 0.9183
3547.000000 0.9182 0.9182 0.9175 0.9173 0.9180
3542.000000 0.9180 0.9179 0.9170 0.9173 0.9168
3537.000000 0.9173 0.9177 0.9176 0.9175 0.9174
3532.000000 0.9174 0.9173 0.9173 0.9158 0.9158
3527.000000 0.9157 0.9157 0.9157 0.9157 0.9158
3522.000000 0.9159 0.9159 0.9160 0.9160 0.9161
3517.000000 0.9161 0.9162 0.9162 0.9163 0.9164
3512.000000 0.9165 0.9165 0.9166 0.9166 0.9167
3507.000000 0.9167 0.9168 0.9168 0.9169 0.9170
3502.000000 0.9171 0.9171 0.9172 0.9172 0.9173
3497.000000 0.9173 0.9174 0.9174 0.9174 0.9174
3492.000000 0.9176 0.9176 0.9176 0.9176 0.9177
3487.000000 0.9177 0.9177 0.9177 0.9177 0.9177
3482.000000 0.9177 0.9177 0.9177 0.9177 0.9179
3477.000000 0.9179 0.9179 0.9179 0.9179 0.9179
3472.000000 0.9180 0.9180 0.9180 0.9180 0.9181
3467.000000 0.9181 0.9181 0.9183 0.9184 0.9184
3462.000000 0.9184 0.9186 0.9187 0.9188 0.9189
3457.000000 0.9189 0.9190 0.9191 0.9192 0.9193
3452.000000 0.9194 0.9194 0.9195 0.9196 0.9197
3447.000000 0.9198 0.9200 0.9200 0.9201 0.9202
3442.000000 0.9203 0.9204 0.9205 0.9205 0.9206
3437.000000 0.9207 0.9208 0.9209 0.9210 0.9210
3432.000000 0.9211 0.9211 0.9212 0.9212 0.9213
3427.000000 0.9213 0.9213 0.9200 0.9212 0.9214
3422.000000 0.9215 0.9215 0.9216 0.9216 0.9216
3417.000000 0.9216 0.9217 0.9217 0.9218 0.9218
3412.000000 0.9218 0.9218 0.9219 0.9219 0.9220
3407.000000 0.9227 0.9227 0.9221 0.9221 0.9221
3402.000000 0.9222 0.9222 0.9223 0.9223 0.9224
3397.000000 0.9224 0.9224 0.9224 0.9225 0.9225
3392.000000 0.9225 0.9225 0.9225 0.9225 0.9227
3387.000000 0.9227 0.9228 0.9228 0.9228 0.9228
3382.000000 0.9228 0.9228 0.9230 0.9230 0.9231
3377.000000 0.9231 0.9231 0.9231 0.9232 0.9232
3372.000000 0.9232 0.9232 0.9245 0.9233 0.9232
3367.000000 0.9232 0.9232 0.9232 0.9232 0.9232
3362.000000 0.9234 0.9234 0.9234 0.9234 0.9234
3357.000000 0.9234 0.9235 0.9235 0.9235 0.9235
3352.000000 0.9235 0.9235 0.9235 0.9235 0.9235
3347.000000 0.9235 0.9237 0.9249 0.9251 0.9239
3342.000000 0.9250 0.9238 0.9238 0.9238 0.9252
3337.000000 0.9252 0.9250 0.9238 0.9238 0.9238
3332.000000 0.9238 0.9237 0.9237 0.9237 0.9237
3327.000000 0.9237 0.9237 0.9234 0.9234 0.9234
3322.000000 0.9234 0.9234 0.9234 0.9234 0.9234
3317.000000 0.9234 0.9234 0.9233 0.9233 0.9233
3312.000000 0.9248 0.9246 0.9246 0.9246 0.9243
3307.000000 0.9234 0.9246 0.9246 0.9241 0.9231
3302.000000 0.9231 0.9231 0.9231 0.9230 0.9230
3297.000000 0.9230 0.9230 0.9230 0.9230 0.9229
3292.000000 0.9229 0.9229 0.9229 0.9229 0.9229
3287.000000 0.9227 0.9227 0.9227 0.9227 0.9241
3282.000000 0.9239 0.9227 0.9229 0.9241 0.9237
3277.000000 0.9226 0.9231 0.9241 0.9241 0.9240
3272.000000 0.9240 0.9240 0.9240 0.9240 0.9240
3267.000000 0.9238 0.9238 0.9238 0.9238 0.9238
3262.000000 0.9238 0.9238 0.9238 0.9238 0.9238
3257.000000 0.9237 0.9224 0.9237 0.9237 0.9237
3252.000000 0.9237 0.9237 0.9237 0.9237 0.9237
3247.000000 0.9235 0.9235 0.9228 0.9228 0.9235
3242.000000 0.9235 0.9235 0.9235 0.9234 0.9234
3237.000000 0.9234 0.9234 0.9234 0.9234 0.9234
3232.000000 0.9234 0.9234 0.9234 0.9234 0.9234
3227.000000 0.9231 0.9218 0.9222 0.9233 0.9232
3222.000000 0.9232 0.9231 0.9231 0.9231 0.9231
3217.000000 0.9230 0.9230 0.9229 0.9229 0.9228
3212.000000 0.9228 0.9227 0.9227 0.9226 0.9213
3207.000000 0.9210 0.9210 0.9209 0.9209 0.9208
3202.000000 0.9207 0.9206 0.9207 0.9215 0.9206
3197.000000 0.9212 0.9204 0.9214 0.9213 0.9211
3192.000000 0.9210 0.9208 0.9200 0.9200 0.9206
3187.000000 0.9206 0.9198 0.9193 0.9194 0.9194
3182.000000 0.9194 0.9194 0.9195 0.9189 0.9183
3177.000000 0.9176 0.9169 0.9158 0.9148 0.9138
3172.000000 0.9128 0.9125 0.9120 0.9120 0.9123
3167.000000 0.9128 0.9135 0.9141 0.9155 0.9169
3162.000000 0.9168 0.9176 0.9187 0.9191 0.9188
3157.000000 0.9196 0.9191 0.9189 0.9203 0.9208
3152.000000 0.9210 0.9211 0.9212 0.9209 0.9192
3147.000000 0.9189 0.9187 0.9184 0.9182 0.9179
3142.000000 0.9177 0.9179 0.9187 0.9186 0.9184
3137.000000 0.9183 0.9182 0.9179 0.9178 0.9176
3132.000000 0.9175 0.9173 0.9172 0.9170 0.9169
3127.000000 0.9168 0.9167 0.9166 0.9165 0.9165
3122.000000 0.9165 0.9165 0.9165 0.9164 0.9164
3117.000000 0.9163 0.9163 0.9162 0.9162 0.9162
3112.000000 0.9162 0.9161 0.9161 0.9161 0.9161
3107.000000 0.9168 0.9175 0.9175 0.9175 0.9174
3102.000000 0.9174 0.9174 0.9186 0.9187 0.9187
3097.000000 0.9200 0.9215 0.9229 0.9229 0.9228
3092.000000 0.9226 0.9212 0.9208 0.9192 0.9181
3087.000000 0.9184 0.9189 0.9173 0.9164 0.9163
3082.000000 0.9162 0.9160 0.9159 0.9155 0.9165
3077.000000 0.9179 0.9181 0.9180 0.9191 0.9192
3072.000000 0.9179 0.9174 0.9174 0.9158 0.9171
3067.000000 0.9155 0.9154 0.9152 0.9149 0.9134
3062.000000 0.9133 0.9130 0.9132 0.9138 0.9134
3057.000000 0.9123 0.9110 0.9112 0.9106 0.9094
3052.000000 0.9090 0.9094 0.9094 0.9089 0.9084
3047.000000 0.9079 0.9087 0.9081 0.9086 0.9088
3042.000000 0.9090 0.9091 0.9093 0.9080 0.9068
3037.000000 0.9056 0.9031 0.9009 0.8960 0.8971
3032.000000 0.8952 0.8954 0.8951 0.8945 0.8947
3027.000000 0.8942 0.8938 0.8940 0.8942 0.8944
3022.000000 0.8948 0.8949 0.8952 0.8965 0.8970
3017.000000 0.8973 0.8962 0.8963 0.8965 0.8967
3012.000000 0.8970 0.8973 0.8975 0.8977 0.8977
3007.000000 0.8968 0.8975 0.8987 0.8989 0.8986
3002.000000 0.8980 0.8983 0.8994 0.8996 0.8994
2997.000000 0.8999 0.9003 0.9007 0.9013 0.9022
2992.000000 0.9024 0.9021 0.9050 0.9015 0.9013
2987.000000 0.9010 0.9008 0.9003 0.8997 0.8985
2982.000000 0.8972 0.8925 0.8881 0.8846 0.8797
2977.000000 0.8749 0.8716 0.8715 0.8714 0.8713
2972.000000 0.8713 0.8713 0.8714 0.8724 0.8731
2967.000000 0.8732 0.8733 0.8734 0.8735 0.8735
2962.000000 0.8734 0.8629 0.8525 0.8500 0.8459
2957.000000 0.8438 0.8429 0.8427 0.8400 0.8435
2952.000000 0.8433 0.8433 0.8434 0.8447 0.8459
2947.000000 0.8493 0.8526 0.8569 0.8621 0.8665
2942.000000 0.8717 0.8763 0.8820 0.8856 0.8888
2937.000000 0.8914 0.8939 0.8952 0.8976 0.8992
2932.000000 0.9008 0.9021 0.9034 0.9046 0.9059
2927.000000 0.9072 0.9084 0.9097 0.9109 0.9122
2922.000000 0.9128 0.9127 0.9135 0.9139 0.9143
2917.000000 0.9148 0.9152 0.9156 0.9160 0.9164
2912.000000 0.9169 0.9172 0.9177 0.9181 0.9198
2907.000000 0.9202 0.9191 0.9192 0.9194 0.9195
2902.000000 0.9197 0.9198 0.9200 0.9201 0.9203
2897.000000 0.9204 0.9188 0.9207 0.9209 0.9210
2892.000000 0.9212 0.9213 0.9215 0.9216 0.9218
2887.000000 0.9219 0.9221 0.9222 0.9224 0.9224
2882.000000 0.9227 0.9227 0.9230 0.9231 0.9233
2877.000000 0.9220 0.9234 0.9234 0.9234 0.9233
2872.000000 0.9231 0.9231 0.9231 0.9230 0.9229
2867.000000 0.9227 0.9227 0.9227 0.9227 0.9224
2862.000000 0.9223 0.9219 0.9217 0.9215 0.9213
2857.000000 0.9211 0.9209 0.9206 0.9191 0.9187
2852.000000 0.9185 0.9183 0.9180 0.9178 0.9176
2847.000000 0.9175 0.9185 0.9181 0.9173 0.9163
2842.000000 0.9169 0.9164 0.9154 0.9148 0.9152
2837.000000 0.9148 0.9136 0.9127 0.9124 0.9120
2832.000000 0.9117 0.9116 0.9116 0.9132 0.9127
2827.000000 0.9141 0.9147 0.9138 0.9142 0.9164
2822.000000 0.9159 0.9181 0.9180 0.9175 0.9155
2817.000000 0.9141 0.9127 0.9110 0.9093 0.9079
2812.000000 0.9065 0.9069 0.9073 0.9080 0.9096
2807.000000 0.9108 0.9116 0.9121 0.9127 0.9133
2802.000000 0.9140 0.9145 0.9151 0.9157 0.9164
2797.000000 0.9170 0.9176 0.9181 0.9185 0.9189
2792.000000 0.9191 0.9186 0.9198 0.9191 0.9195
2787.000000 0.9195 0.9196 0.9203 0.9211 0.9204
2782.000000 0.9196 0.9205 0.9211 0.9211 0.9211
2777.000000 0.9211 0.9211 0.9211 0.9211 0.9211
2772.000000 0.9211 0.9211 0.9211 0.9211 0.9211
2767.000000 0.9211 0.9212 0.9212 0.9212 0.9212
2762.000000 0.9212 0.9212 0.9212 0.9211 0.9211
2757.000000 0.9210 0.9209 0.9208 0.9208 0.9208
2752.000000 0.9208 0.9207 0.9207 0.9206 0.9206
2747.000000 0.9206 0.9206 0.9205 0.9205 0.9204
2742.000000 0.9204 0.9204 0.9204 0.9203 0.9203
2737.000000 0.9202 0.9202 0.9202 0.9202 0.9201
2732.000000 0.9201 0.9201 0.9201 0.9201 0.9201
2727.000000 0.9201 0.9201 0.9201 0.9201 0.9201
2722.000000 0.9201 0.9201 0.9201 0.9201 0.9201
2717.000000 0.9201 0.9201 0.9201 0.9200 0.9200
2712.000000 0.9200 0.9200 0.9200 0.9200 0.9200
2707.000000 0.9200 0.9200 0.9200 0.9200 0.9200
2702.000000 0.9201 0.9201 0.9201 0.9201 0.9201
2697.000000 0.9201 0.9201 0.9201 0.9202 0.9202
2692.000000 0.9202 0.9202 0.9203 0.9203 0.9203
2687.000000 0.9203 0.9203 0.9203 0.9203 0.9203
2682.000000 0.9203 0.9203 0.9203 0.9202 0.9202
2677.000000 0.9200 0.9199 0.9196 0.9194 0.9190
2672.000000 0.9188 0.9184 0.9179 0.9176 0.9171
2667.000000 0.9168 0.9164 0.9160 0.9157 0.9148
2662.000000 0.9141 0.9126 0.9114 0.9109 0.9107
2657.000000 0.9126 0.9133 0.9139 0.9147 0.9153
2652.000000 0.9159 0.9159 0.9155 0.9156 0.9165
2647.000000 0.9175 0.9177 0.9170 0.9166 0.9168
2642.000000 0.9180 0.9175 0.9173 0.9175 0.9177
2637.000000 0.9178 0.9182 0.9183 0.9199 0.9201
2632.000000 0.9203 0.9190 0.9193 0.9207 0.9208
2627.000000 0.9209 0.9210 0.9211 0.9212 0.9213
2622.000000 0.9214 0.9214 0.9215 0.9216 0.9217
2617.000000 0.9218 0.9219 0.9219 0.9220 0.9221
2612.000000 0.9222 0.9223 0.9225 0.9227 0.9229
2607.000000 0.9230 0.9233 0.9234 0.9235 0.9237
2602.000000 0.9238 0.9240 0.9242 0.9244 0.9245
2597.000000 0.9247 0.9249 0.9249 0.9250 0.9250
2592.000000 0.9251 0.9251 0.9251 0.9251 0.9252
2587.000000 0.9252 0.9252 0.9249 0.9245 0.9242
2582.000000 0.9240 0.9236 0.9234 0.9231 0.9228
2577.000000 0.9225 0.9222 0.9217 0.9214 0.9214
2572.000000 0.9214 0.9215 0.9216 0.9216 0.9217
2567.000000 0.9218 0.9219 0.9219 0.9220 0.9221
2562.000000 0.9222 0.9222 0.9223 0.9225 0.9226
2557.000000 0.9227 0.9228 0.9230 0.9233 0.9234
2552.000000 0.9237 0.9237 0.9240 0.9241 0.9244
2547.000000 0.9244 0.9247 0.9249 0.9251 0.9253
2542.000000 0.9255 0.9255 0.9255 0.9255 0.9252
2537.000000 0.9246 0.9241 0.9234 0.9229 0.9223
2532.000000 0.9218 0.9214 0.9209 0.9208 0.9208
2527.000000 0.9208 0.9208 0.9208 0.9208 0.9207
2522.000000 0.9207 0.9207 0.9207 0.9207 0.9207
2517.000000 0.9207 0.9207 0.9207 0.9207 0.9207
2512.000000 0.9207 0.9206 0.9206 0.9206 0.9206
2507.000000 0.9206 0.9206 0.9206 0.9206 0.9206
2502.000000 0.9206 0.9205 0.9205 0.9205 0.9205
2497.000000 0.9204 0.9203 0.9202 0.9200 0.9199
2492.000000 0.9198 0.9197 0.9196 0.9195 0.9194
2487.000000 0.9193 0.9191 0.9190 0.9188 0.9188
2482.000000 0.9187 0.9195 0.9198 0.9198 0.9197
2477.000000 0.9195 0.9195 0.9195 0.9195 0.9195
2472.000000 0.9195 0.9195 0.9195 0.9195 0.9195
2467.000000 0.9195 0.9197 0.9197 0.9197 0.9197
2462.000000 0.9197 0.9197 0.9198 0.9198 0.9191
2457.000000 0.9190 0.9190 0.9183 0.9183 0.9193
2452.000000 0.9198 0.9198 0.9186 0.9195 0.9198
2447.000000 0.9197 0.9197 0.9196 0.9196 0.9196
2442.000000 0.9196 0.9194 0.9194 0.9194 0.9194
2437.000000 0.9194 0.9194 0.9194 0.9194 0.9193
2432.000000 0.9193 0.9193 0.9193 0.9193 0.9193
2427.000000 0.9193 0.9194 0.9194 0.9194 0.9194
2422.000000 0.9194 0.9194 0.9194 0.9194 0.9194
2417.000000 0.9194 0.9194 0.9194 0.9194 0.9194
2412.000000 0.9194 0.9194 0.9194 0.9197 0.9203
2407.000000 0.9197 0.9206 0.9206 0.9206 0.9205
2402.000000 0.9205 0.9205 0.9205 0.9205 0.9205
2397.000000 0.9205 0.9206 0.9207 0.9208 0.9208
2392.000000 0.9210 0.9211 0.9211 0.9228 0.9229
2387.000000 0.9229 0.9229 0.9231 0.9244 0.9244
2382.000000 0.9248 0.9257 0.9255 0.9261 0.9269
2377.000000 0.9273 0.9281 0.9287 0.9300 0.9309
2372.000000 0.9309 0.9309 0.9307 0.9292 0.9289
2367.000000 0.9286 0.9284 0.9281 0.9281 0.9279
2362.000000 0.9277 0.9275 0.9288 0.9288 0.9299
2357.000000 0.9299 0.9314 0.9323 0.9321 0.9319
2352.000000 0.9318 0.9309 0.9298 0.9296 0.9302
2347.000000 0.9315 0.9321 0.9316 0.9302 0.9292
2342.000000 0.9286 0.9280 0.9275 0.9256 0.9261
2337.000000 0.9256 0.9237 0.9229 0.9239 0.9233
2332.000000 0.9227 0.9225 0.9234 0.9230 0.9227
2327.000000 0.9228 0.9235 0.9237 0.9243 0.9240
2322.000000 0.9237 0.9234 0.9230 0.9226 0.9223
2317.000000 0.9220 0.9216 0.9213 0.9210 0.9208
2312.000000 0.9206 0.9203 0.9201 0.9199 0.9197
2307.000000 0.9195 0.9194 0.9191 0.9189 0.9187
2302.000000 0.9185 0.9183 0.9182 0.9184 0.9191
2297.000000 0.9189 0.9187 0.9183 0.9181 0.9178
2292.000000 0.9175 0.9171 0.9168 0.9165 0.9152
2287.000000 0.9145 0.9142 0.9138 0.9136 0.9121
2282.000000 0.9117 0.9115 0.9113 0.9110 0.9093
2277.000000 0.9092 0.9086 0.9073 0.9071 0.9069
2272.000000 0.9062 0.9064 0.9078 0.9083 0.9085
2267.000000 0.9092 0.9099 0.9098 0.9100 0.9107
2262.000000 0.9114 0.9111 0.9115 0.9120 0.9115
2257.000000 0.9121 0.9129 0.9136 0.9129 0.9135
2252.000000 0.9143 0.9149 0.9143 0.9150 0.9157
2247.000000 0.9161 0.9165 0.9164 0.9158 0.9161
2242.000000 0.9165 0.9168 0.9171 0.9175 0.9178
2237.000000 0.9182 0.9187 0.9180 0.9178 0.9182
2232.000000 0.9186 0.9189 0.9193 0.9196 0.9201
2227.000000 0.9204 0.9206 0.9209 0.9213 0.9216
2222.000000 0.9217 0.9205 0.9206 0.9206 0.9206
2217.000000 0.9206 0.9207 0.9207 0.9207 0.9207
2212.000000 0.9208 0.9208 0.9208 0.9208 0.9209
2207.000000 0.9209 0.9210 0.9210 0.9210 0.9210
2202.000000 0.9211 0.9211 0.9211 0.9211 0.9212
2197.000000 0.9212 0.9210 0.9200 0.9213 0.9210
2192.000000 0.9199 0.9200 0.9201 0.9201 0.9203
2187.000000 0.9204 0.9205 0.9205 0.9214 0.9212
2182.000000 0.9208 0.9208 0.9209 0.9210 0.9222
2177.000000 0.9225 0.9226 0.9227 0.9228 0.9228
2172.000000 0.9230 0.9231 0.9232 0.9230 0.9218
2167.000000 0.9218 0.9219 0.9220 0.9221 0.9221
2162.000000 0.9222 0.9223 0.9224 0.9224 0.9225
2157.000000 0.9226 0.9227 0.9227 0.9228 0.9228
2152.000000 0.9230 0.9230 0.9231 0.9231 0.9234
2147.000000 0.9234 0.9235 0.9236 0.9236 0.9236
2142.000000 0.9238 0.9238 0.9239 0.9239 0.9241
2137.000000 0.9241 0.9242 0.9243 0.9244 0.9244
2132.000000 0.9245 0.9245 0.9246 0.9246 0.9246
2127.000000 0.9246 0.9247 0.9247 0.9247 0.9247
2122.000000 0.9233 0.9243 0.9243 0.9237 0.9231
2117.000000 0.9226 0.9220 0.9215 0.9210 0.9206
2112.000000 0.9201 0.9202 0.9204 0.9204 0.9205
2107.000000 0.9206 0.9207 0.9208 0.9209 0.9210
2102.000000 0.9211 0.9211 0.9212 0.9213 0.9203
2097.000000 0.9200 0.9213 0.9216 0.9204 0.9216
2092.000000 0.9218 0.9219 0.9220 0.9220 0.9221
2087.000000 0.9221 0.9222 0.9223 0.9224 0.9224
2082.000000 0.9225 0.9226 0.9227 0.9227 0.9227
2077.000000 0.9227 0.9227 0.9227 0.9227 0.9227
2072.000000 0.9227 0.9227 0.9227 0.9227 0.9227
2067.000000 0.9226 0.9226 0.9224 0.9222 0.9220
2062.000000 0.9218 0.9215 0.9213 0.9210 0.9208
2057.000000 0.9210 0.9221 0.9219 0.9218 0.9217
2052.000000 0.9211 0.9208 0.9215 0.9206 0.9200
2047.000000 0.9198 0.9197 0.9197 0.9198 0.9199
2042.000000 0.9200 0.9200 0.9201 0.9203 0.9204
2037.000000 0.9204 0.9205 0.9205 0.9206 0.9206
2032.000000 0.9207 0.9207 0.9208 0.9208 0.9213
2027.000000 0.9218 0.9210 0.9216 0.9225 0.9225
2022.000000 0.9226 0.9226 0.9227 0.9227 0.9228
2017.000000 0.9228 0.9228 0.9228 0.9229 0.9229
2012.000000 0.9230 0.9230 0.9230 0.9228 0.9226
2007.000000 0.9223 0.9221 0.9218 0.9216 0.9213
2002.000000 0.9211 0.9194 0.9179 0.9166 0.9150
1997.000000 0.9131 0.9123 0.9114 0.9105 0.9106
1992.000000 0.9107 0.9120 0.9131 0.9138 0.9142
1987.000000 0.9147 0.9140 0.9142 0.9144 0.9144
1982.000000 0.9144 0.9143 0.9143 0.9141 0.9129
1977.000000 0.9120 0.9112 0.9102 0.9092 0.9083
1972.000000 0.9075 0.9079 0.9084 0.9090 0.9095
1967.000000 0.9099 0.9111 0.9114 0.9113 0.9127
1962.000000 0.9137 0.9138 0.9139 0.9138 0.9136
1957.000000 0.9134 0.9130 0.9126 0.9107 0.9107
1952.000000 0.9115 0.9121 0.9125 0.9120 0.9117
1947.000000 0.9115 0.9112 0.9110 0.9106 0.9104
1942.000000 0.9101 0.9099 0.9098 0.9097 0.9100
1937.000000 0.9103 0.9105 0.9108 0.9111 0.9115
1932.000000 0.9118 0.9121 0.9123 0.9124 0.9124
1927.000000 0.9124 0.9124 0.9124 0.9125 0.9125
1922.000000 0.9125 0.9125 0.9124 0.9122 0.9121
1917.000000 0.9119 0.9116 0.9115 0.9113 0.9111
1912.000000 0.9110 0.9108 0.9104 0.9100 0.9095
1907.000000 0.9102 0.9101 0.9101 0.9101 0.9104
1902.000000 0.9108 0.9111 0.9113 0.9114 0.9115
1897.000000 0.9113 0.9111 0.9109 0.9105 0.9103
1892.000000 0.9100 0.9092 0.9083 0.9091 0.9098
1887.000000 0.9107 0.9115 0.9116 0.9121 0.9123
1882.000000 0.9119 0.9115 0.9110 0.9105 0.9100
1877.000000 0.9094 0.9089 0.9104 0.9107 0.9108
1872.000000 0.9110 0.9110 0.9111 0.9110 0.9105
1867.000000 0.9102 0.9098 0.9087 0.9074 0.9062
1862.000000 0.9055 0.9055 0.9057 0.9057 0.9055
1857.000000 0.9061 0.9056 0.9049 0.9047 0.9047
1852.000000 0.9050 0.9052 0.9057 0.9059 0.9062
1847.000000 0.9062 0.9062 0.9062 0.9062 0.9062
1842.000000 0.9062 0.9062 0.9062 0.9064 0.9065
1837.000000 0.9068 0.9063 0.9056 0.9057 0.9062
1832.000000 0.9065 0.9069 0.9072 0.9076 0.9079
1827.000000 0.9081 0.9065 0.9048 0.9035 0.9026
1822.000000 0.9028 0.9030 0.9032 0.9048 0.9052
1817.000000 0.9059 0.9065 0.9073 0.9080 0.9086
1812.000000 0.9085 0.9084 0.9083 0.9077 0.9066
1807.000000 0.9065 0.9064 0.9063 0.9053 0.9046
1802.000000 0.9046 0.9046 0.9052 0.9057 0.9063
1797.000000 0.9068 0.9074 0.9078 0.9084 0.9085
1792.000000 0.9085 0.9085 0.9088 0.9089 0.9090
1787.000000 0.9090 0.9092 0.9096 0.9101 0.9105
1782.000000 0.9110 0.9113 0.9114 0.9115 0.9115
1777.000000 0.9116 0.9108 0.9103 0.9104 0.9104
1772.000000 0.9104 0.9104 0.9104 0.9105 0.9105
1767.000000 0.9105 0.9105 0.9105 0.9107 0.9109
1762.000000 0.9113 0.9115 0.9116 0.9122 0.9134
1757.000000 0.9137 0.9137 0.9137 0.9137 0.9137
1752.000000 0.9136 0.9134 0.9133 0.9130 0.9130
1747.000000 0.9127 0.9126 0.9124 0.9122 0.9120
1742.000000 0.9120 0.9120 0.9119 0.9119 0.9118
1737.000000 0.9118 0.9118 0.9117 0.9116 0.9116
1732.000000 0.9116 0.9116 0.9114 0.9112 0.9109
1727.000000 0.9108 0.9106 0.9105 0.9106 0.9106
1722.000000 0.9106 0.9107 0.9108 0.9109 0.9109
1717.000000 0.9109 0.9110 0.9110 0.9110 0.9112
1712.000000 0.9114 0.9116 0.9118 0.9121 0.9122
1707.000000 0.9125 0.9127 0.9130 0.9133 0.9136
1702.000000 0.9138 0.9141 0.9141 0.9141 0.9143
1697.000000 0.9143 0.9143 0.9144 0.9144 0.9145
1692.000000 0.9144 0.9144 0.9144 0.9143 0.9142
1687.000000 0.9142 0.9142 0.9141 0.9141 0.9140
1682.000000 0.9140 0.9140 0.9140 0.9139 0.9140
1677.000000 0.9139 0.9140 0.9139 0.9139 0.9144
1672.000000 0.9153 0.9153 0.9153 0.9152 0.9153
1667.000000 0.9153 0.9154 0.9154 0.9154 0.9154
1662.000000 0.9154 0.9154 0.9167 0.9155 0.9151
1657.000000 0.9164 0.9163 0.9161 0.9159 0.9156
1652.000000 0.9143 0.9154 0.9152 0.9149 0.9143
1647.000000 0.9140 0.9140 0.9144 0.9140 0.9135
1642.000000 0.9136 0.9135 0.9127 0.9120 0.9123
1637.000000 0.9119 0.9123 0.9120 0.9113 0.9117
1632.000000 0.9112 0.9119 0.9113 0.9115 0.9098
1627.000000 0.9094 0.9076 0.9053 0.9057 0.9055
1622.000000 0.9064 0.9050 0.9026 0.9017 0.9008
1617.000000 0.9003 0.9002 0.8995 0.8989 0.8977
1612.000000 0.8951 0.8924 0.8877 0.8843 0.8771
1607.000000 0.8687 0.8648 0.8609 0.8623 0.8608
1602.000000 0.8616 0.8584 0.8564 0.8521 0.8488
1597.000000 0.8438 0.8332 0.8210 0.8111 0.8045
1592.000000 0.8041 0.8114 0.8152 0.8212 0.8255
1587.000000 0.8278 0.8310 0.8334 0.8363 0.8397
1582.000000 0.8390 0.8389 0.8374 0.8365 0.8336
1577.000000 0.8326 0.8302 0.8294 0.8285 0.8239
1572.000000 0.8191 0.8175 0.8131 0.8087 0.8012
1567.000000 0.7963 0.7902 0.7847 0.7798 0.7732
1562.000000 0.7648 0.7472 0.7397 0.7350 0.7370
1557.000000 0.7382 0.7399 0.7446 0.7466 0.7470
1552.000000 0.7496 0.7525 0.7565 0.7558 0.7549
1547.000000 0.7531 0.7562 0.7595 0.7637 0.7735
1542.000000 0.7817 0.7847 0.7871 0.7879 0.7883
1537.000000 0.7849 0.7861 0.7900 0.7909 0.7952
1532.000000 0.8014 0.8074 0.8126 0.8191 0.8314
1527.000000 0.8411 0.8421 0.8435 0.8461 0.8476
1522.000000 0.8511 0.8536 0.8577 0.8617 0.8641
1517.000000 0.8669 0.8698 0.8714 0.8738 0.8755
1512.000000 0.8765 0.8763 0.8767 0.8774 0.8771
1507.000000 0.8769 0.8766 0.8764 0.8774 0.8780
1502.000000 0.8780 0.8790 0.8805 0.8843 0.8884
1497.000000 0.8932 0.8944 0.8969 0.8979 0.8988
1492.000000 0.8994 0.8999 0.9003 0.9008 0.9010
1487.000000 0.9012 0.9026 0.9040 0.9051 0.9073
1482.000000 0.9106 0.9132 0.9133 0.9109 0.9077
1477.000000 0.9045 0.9031 0.9022 0.9006 0.9011
1472.000000 0.9012 0.9003 0.8995 0.8985 0.8975
1467.000000 0.8979 0.8969 0.8974 0.8965 0.8968
1462.000000 0.8960 0.8965 0.8979 0.8987 0.8990
1457.000000 0.8995 0.8998 0.8995 0.8968 0.8992
1452.000000 0.8995 0.8984 0.8965 0.8948 0.8937
1447.000000 0.8917 0.8893 0.8872 0.8851 0.8830
1442.000000 0.8801 0.8760 0.8707 0.8581 0.8135
1437.000000 0.7702 0.6136 0.4030 0.4042 0.4335
1432.000000 0.4785 0.5240 0.5689 0.6140 0.6585
1427.000000 0.7032 0.7120 0.7140 0.7095 0.6455
1422.000000 0.6156 0.6105 0.6084 0.4867 0.4459
1417.000000 0.4460 0.5845 0.7380 0.7972 0.8090
1412.000000 0.8208 0.8323 0.8429 0.8539 0.8620
1407.000000 0.8684 0.8748 0.8811 0.8856 0.8897
1402.000000 0.8935 0.8945 0.8954 0.8965 0.8982
1397.000000 0.8999 0.9007 0.9011 0.9015 0.9020
1392.000000 0.9029 0.9042 0.9065 0.9091 0.9105
1387.000000 0.9143 0.9186 0.9229 0.9233 0.9205
1382.000000 0.9178 0.9154 0.9142 0.9131 0.9132
1377.000000 0.9128 0.9112 0.9089 0.9077 0.9065
1372.000000 0.9059 0.9068 0.9079 0.9090 0.9086
1367.000000 0.9080 0.9111 0.9068 0.9067 0.9066
1362.000000 0.9068 0.9068 0.9070 0.9071 0.9073
1357.000000 0.9075 0.9062 0.9062 0.9066 0.9067
1352.000000 0.9068 0.9067 0.9066 0.9065 0.9065
1347.000000 0.9056 0.9038 0.9022 0.9004 0.8974
1342.000000 0.8933 0.8899 0.8852 0.8809 0.8733
1337.000000 0.8604 0.8206 0.7733 0.7261 0.6787
1332.000000 0.6315 0.5878 0.5867 0.6013 0.6562
1327.000000 0.7112 0.7588 0.7814 0.8001 0.8089
1322.000000 0.8170 0.8222 0.8260 0.8298 0.8317
1317.000000 0.8340 0.8354 0.8360 0.8366 0.8372
1312.000000 0.8377 0.8389 0.8401 0.8413 0.8425
1307.000000 0.8440 0.8456 0.8473 0.8477 0.8492
1302.000000 0.8510 0.8522 0.8526 0.8530 0.8534
1297.000000 0.8537 0.8543 0.8559 0.8562 0.8564
1292.000000 0.8565 0.8563 0.8556 0.8561 0.8565
1287.000000 0.8569 0.8574 0.8577 0.8582 0.8586
1282.000000 0.8593 0.8603 0.8614 0.8617 0.8619
1277.000000 0.8621 0.8597 0.8617 0.8580 0.8512
1272.000000 0.8499 0.8487 0.8472 0.8458 0.8444
1267.000000 0.8415 0.8392 0.8354 0.8317 0.8280
1262.000000 0.8223 0.8163 0.8104 0.8002 0.7779
1257.000000 0.7185 0.7028 0.5587 0.4089 0.4075
1252.000000 0.4229 0.4699 0.5169 0.5641 0.6111
1247.000000 0.6582 0.6696 0.6797 0.6875 0.6972
1242.000000 0.7074 0.7141 0.7212 0.7170 0.6762
1237.000000 0.6301 0.5840 0.5379 0.4977 0.5107
1232.000000 0.5467 0.5825 0.6097 0.6126 0.6164
1227.000000 0.6215 0.6517 0.6904 0.7290 0.7677
1222.000000 0.8062 0.8092 0.8103 0.8142 0.8117
1217.000000 0.8111 0.8102 0.7982 0.7747 0.7517
1212.000000 0.7342 0.7325 0.7328 0.7347 0.7474
1207.000000 0.7586 0.7698 0.7809 0.7920 0.8033
1202.000000 0.8146 0.8210 0.8233 0.8272 0.8235
1197.000000 0.8223 0.8177 0.8114 0.7648 0.7508
1192.000000 0.5971 0.4308 0.4296 0.4670 0.5472
1187.000000 0.6275 0.7075 0.7257 0.7344 0.7440
1182.000000 0.7546 0.7677 0.7771 0.7840 0.7911
1177.000000 0.7962 0.8009 0.8056 0.8103 0.8149
1172.000000 0.8179 0.8185 0.8204 0.8189 0.8179
1167.000000 0.8149 0.8101 0.8044 0.7522 0.6979
1162.000000 0.6437 0.5895 0.5309 0.5325 0.5587
1157.000000 0.5984 0.6382 0.6780 0.7178 0.7627
1152.000000 0.7770 0.7922 0.8035 0.8071 0.8063
1147.000000 0.8060 0.8057 0.7963 0.7773 0.7569
1142.000000 0.7387 0.7219 0.7219 0.7231 0.7430
1137.000000 0.7626 0.7813 0.8010 0.8145 0.8196
1132.000000 0.8263 0.8339 0.8406 0.8464 0.8512
1127.000000 0.8561 0.8594 0.8626 0.8655 0.8672
1122.000000 0.8693 0.8702 0.8706 0.8741 0.8715
1117.000000 0.8720 0.8745 0.8698 0.8574 0.8448
1112.000000 0.8324 0.8199 0.8074 0.7936 0.7942
1107.000000 0.8040 0.8215 0.8401 0.8518 0.8567
1102.000000 0.8611 0.8653 0.8681 0.8697 0.8709
1097.000000 0.8716 0.8746 0.8728 0.8733 0.8738
1092.000000 0.8738 0.8738 0.8736 0.8733 0.8731
1087.000000 0.8722 0.8709 0.8697 0.8685 0.8681
1082.000000 0.8673 0.8657 0.8652 0.8643 0.8628
1077.000000 0.8618 0.8604 0.8602 0.8601 0.8608
1072.000000 0.8615 0.8615 0.8614 0.8615 0.8629
1067.000000 0.8645 0.8660 0.8673 0.8686 0.8699
1062.000000 0.8724 0.8737 0.8751 0.8748 0.8770
1057.000000 0.8777 0.8771 0.8779 0.8787 0.8795
1052.000000 0.8802 0.8814 0.8828 0.8831 0.8834
1047.000000 0.8838 0.8841 0.8847 0.8850 0.8854
1042.000000 0.8857 0.8861 0.8864 0.8865 0.8867
1037.000000 0.8868 0.8869 0.8871 0.8872 0.8874
1032.000000 0.8875 0.8877 0.8865 0.8868 0.8871
1027.000000 0.8873 0.8872 0.8864 0.8867 0.8870
1022.000000 0.8873 0.8875 0.8876 0.8876 0.8877
1017.000000 0.8877 0.8877 0.8877 0.8876 0.8876
1012.000000 0.8876 0.8876 0.8883 0.8868 0.8885
1007.000000 0.8883 0.8882 0.8881 0.8854 0.8834
1002.000000 0.8816 0.8732 0.8591 0.8554 0.8540
997.000000 0.8522 0.8515 0.8514 0.8522 0.8558
992.000000 0.8590 0.8624 0.8650 0.8676 0.8702
987.000000 0.8727 0.8752 0.8773 0.8793 0.8812
982.000000 0.8818 0.8822 0.8827 0.8833 0.8817
977.000000 0.8827 0.8820 0.8812 0.8805 0.8795
972.000000 0.8774 0.8771 0.8759 0.8740 0.8709
967.000000 0.8679 0.8644 0.8606 0.8559 0.8506
962.000000 0.8451 0.8383 0.8300 0.8212 0.7963
957.000000 0.7545 0.7273 0.7263 0.7392 0.7608
952.000000 0.7825 0.8041 0.8256 0.8415 0.8483
947.000000 0.8551 0.8590 0.8626 0.8662 0.8698
942.000000 0.8724 0.8750 0.8775 0.8802 0.8814
937.000000 0.8819 0.8826 0.8832 0.8837 0.8836
932.000000 0.8836 0.8836 0.8836 0.8836 0.8835
927.000000 0.8834 0.8834 0.8835 0.8835 0.8835
922.000000 0.8836 0.8836 0.8836 0.8836 0.8837
917.000000 0.8821 0.8825 0.8818 0.8809 0.8797
912.000000 0.8791 0.8781 0.8759 0.8737 0.8723
907.000000 0.8712 0.8709 0.8715 0.8716 0.8713
902.000000 0.8721 0.8708 0.8702 0.8685 0.8667
897.000000 0.8641 0.8620 0.8613 0.8617 0.8590
892.000000 0.8493 0.8404 0.8324 0.8250 0.8181
887.000000 0.8126 0.8100 0.8070 0.7838 0.7540
882.000000 0.6903 0.6969 0.6998 0.7122 0.7268
877.000000 0.7415 0.7489 0.7517 0.7049 0.6603
872.000000 0.6153 0.5020 0.5244 0.5067 0.5074
867.000000 0.5445 0.6138 0.6838 0.7423 0.7528
862.000000 0.7646 0.7728 0.7793 0.7835 0.7873
857.000000 0.7900 0.7910 0.7873 0.7653 0.7422
852.000000 0.7185 0.7009 0.6955 0.7051 0.7304
847.000000 0.7546 0.7725 0.7714 0.7982 0.8041
842.000000 0.8101 0.8144 0.8188 0.8243 0.8439
837.000000 0.8509 0.8539 0.8564 0.8597 0.8615
832.000000 0.8640 0.8660 0.8679 0.8699 0.8711
827.000000 0.8723 0.8723 0.8726 0.8733 0.8740
822.000000 0.8742 0.8733 0.8733 0.8735 0.8737
817.000000 0.8739 0.8756 0.8759 0.8761 0.8765
812.000000 0.8783 0.8799 0.8806 0.8820 0.8822
807.000000 0.8813 0.8823 0.8836 0.8840 0.8844
802.000000 0.8847 0.8850 0.8853 0.8856 0.8860
797.000000 0.8860 0.8859 0.8857 0.8844 0.8836
792.000000 0.8832 0.8841 0.8829 0.8827 0.8827
787.000000 0.8827 0.8843 0.8865 0.8874 0.8867
782.000000 0.8861 0.8865 0.8860 0.8866 0.8869
777.000000 0.8865 0.8867 0.8870 0.8872 0.8864
772.000000 0.8856 0.8855 0.8854 0.8843 0.8838
767.000000 0.8836 0.8836 0.8825 0.8822 0.8823
762.000000 0.8825 0.8826 0.8827 0.8829 0.8830
757.000000 0.8831 0.8832 0.8833 0.8835 0.8845
752.000000 0.8845 0.8844 0.8844 0.8843 0.8842
747.000000 0.8841 0.8840 0.8839 0.8838 0.8838
742.000000 0.8838 0.8824 0.8794 0.8774 0.8769
737.000000 0.8766 0.8763 0.8760 0.8756 0.8753
732.000000 0.8749 0.8746 0.8754 0.8749 0.8742
727.000000 0.8737 0.8733 0.8736 0.8727 0.8723
722.000000 0.8724 0.8722 0.8714 0.8699 0.8684
717.000000 0.8677 0.8653 0.8626 0.8615 0.8610
712.000000 0.8602 0.8603 0.8611 0.8619 0.8625
707.000000 0.8632 0.8639 0.8646 0.8652 0.8672
702.000000 0.8674 0.8670 0.8675 0.8667 0.8660
697.000000 0.8652 0.8646 0.8639 0.8612 0.8576
692.000000 0.8541 0.8506 0.8452 0.8388 0.8331
687.000000 0.8242 0.8109 0.7968 0.7851 0.7677
682.000000 0.7369 0.7060 0.6761 0.6453 0.6164
677.000000 0.6079 0.6098 0.6110 0.6272 0.6563
672.000000 0.6847 0.7122 0.7211 0.7537 0.7735
667.000000 0.8090 0.8052 0.8082 0.8127 0.8162
662.000000 0.8198 0.8239 0.8287 0.8331 0.8359
657.000000 0.8394 0.8418 0.8423 0.8453 0.8424
652.000000 0.8410 0.8409 0.8256 0.8099 0.8000
647.000000 0.7922 0.7890 0.7861 0.7841 0.7813
642.000000 0.7821 0.8124 0.8192 0.8360 0.8413
637.000000 0.8446 0.8401 0.8392 0.8367 0.8355
632.000000 0.8262 0.7981 0.7595 0.7210 0.6816
627.000000 0.5984 0.6039 0.6001 0.5999 0.6086
622.000000 0.6370 0.6654 0.6938 0.7224 0.7521
617.000000 0.7807 0.8032 0.8211 0.8367 0.8448
612.000000 0.8532 0.8584 0.8634 0.8683 0.8728
607.000000 0.8760 0.8797 0.8837 0.8868 0.8893
602.000000 0.8902 0.8911 0.8920 0.8928 0.8930
597.000000 0.8931 0.8932 0.8933 0.8933 0.8930
592.000000 0.8925 0.8922 0.8917 0.8910 0.8902
587.000000 0.8888 0.8839 0.8792 0.8731 0.8667
582.000000 0.8599 0.8524 0.8447 0.8353 0.8210
577.000000 0.8057 0.7833 0.7664 0.7567 0.6913
572.000000 0.6118 0.5321 0.4526 0.3729 0.2933
567.000000 0.2695 0.2689 0.2694 0.3132 0.3875
562.000000 0.4623 0.5370 0.6118 0.6981 0.7065
557.000000 0.7183 0.7373 0.7515 0.7688 0.7796
552.000000 0.7895 0.8053 0.8247 0.8374 0.8440
547.000000 0.8497 0.8546 0.8586 0.8623 0.8652
542.000000 0.8669 0.8675 0.8682 0.8691 0.8717
537.000000 0.8746 0.8783 0.8802 0.8824 0.8846
532.000000 0.8857 0.8869 0.8881 0.8889 0.8893
527.000000 0.8898 0.8911 0.8920 0.8922 0.8927
522.000000 0.8924 0.8921 0.8917 0.8913 0.8910
517.000000 0.8906 0.8902 0.8896 0.8890 0.8885
512.000000 0.8880 0.8874 0.8868 0.8863 0.8858
507.000000 0.8852 0.8846 0.8841 0.8833 0.8823
502.000000 0.8813 0.8803 0.8794 0.8784 0.8775
497.000000 0.8766 0.8755 0.8743 0.8726 0.8708
492.000000 0.8691 0.8674 0.8656 0.8640 0.8623
487.000000 0.8603 0.8585 0.8567 0.8548 0.8529
482.000000 0.8509 0.8490 0.8470 0.8449 0.8428
477.000000 0.8409 0.8388 0.8363 0.8331 0.8303
472.000000 0.8271 0.8240 0.8204 0.8167 0.8132
467.000000 0.8096 0.8057 0.8006 0.7954 0.7904
462.000000 0.7846 0.7790 0.7784 0.7780 0.7776
457.000000 0.7772 0.7769 0.7765 0.7765 0.7766
452.000000 0.7766 0.7769 0.7769 0.7770 0.7772
447.000000 0.7773 0.7774 0.7776 0.7776 0.7778
442.000000 0.7780 0.7783 0.7785 0.7787 0.7789
437.000000 0.7791 0.7794 0.7796 0.7798 0.7800
432.000000 0.7803 0.7806 0.7808 0.7810 0.7812
427.000000 0.7815 0.7817 0.7818 0.7821 0.7822
422.000000 0.7825 0.7825 0.7825 0.7825
##END=
