##TITLE=ACRYLIC ACID, METHYL ESTER
##JCAMP-DX=4.24
##DATA TYPE=INFRARED SPECTRUM
##CLASS=COBLENTZ
##ORIGIN=DOW CHEMICAL COMPANY
##OWNER=COBLENTZ SOCIETY
Collection (C) 2018 copyright by the U.S. Secretary of Commerce
on behalf of the United States of America. All rights reserved.
##DATE=1964
##NAMES=methyl acrylate
PROPENOIC ACID, METHYL ESTER
##CAS REGISTRY NO=96-33-3
##MOLFORM=C4 H6 O2
##SOURCE REFERENCE=COBLENTZ NO. 8779
##$NIST SOURCE=COBLENTZ
##$NIST IMAGE=cob-r8779
##SPECTROMETER/DATA SYSTEM=DOW KBr FOREPRISM-GRATING
##INSTRUMENT PARAMETERS=GRATING CHANGED AT 5.0, 7.5, 15.0 MICRON
##STATE=GAS (25 mmHg, N2 ADDED, TOTAL PRESSURE 600 mmHg)
##PATH LENGTH=5 CM
##SAMPLING PROCEDURE=TRANSMISSION
##RESOLUTION=2
##DATA PROCESSING=DIGITIZED BY NIST FROM HARD COPY (FROM TWO SEGMENTS)
##XUNITS=1/CM
##YUNITS=TRANSMITTANCE
##XFACTOR=1.000000
##YFACTOR=1
##DELTAX=0.936770
##FIRSTX=384.075
##LASTX=3793.92
##FIRSTY=0.979
##MAXX=3793.92
##MINX=384.075
##MAXY=1.007
##MINY=0.0370074
##NPOINTS=3641
##XYDATA=(X++(Y..Y))
384.075000 0.9790 0.9790 0.9790 0.9790 0.9780
388.758848 0.9780 0.9780 0.9780 0.9780 0.9760
393.442696 0.9760 0.9760 0.9760 0.9760 0.9750
398.126544 0.9750 0.9750 0.9730 0.9730 0.9730
402.810392 0.9730 0.9720 0.9700 0.9700 0.9700
407.494240 0.9700 0.9690 0.9690 0.9670 0.9670
412.178088 0.9670 0.9660 0.9650 0.9650 0.9650
416.861936 0.9630 0.9630 0.9630 0.9630 0.9620
421.545784 0.9590 0.9590 0.9570 0.9560 0.9560
426.229632 0.9540 0.9530 0.9510 0.9510 0.9500
430.913480 0.9500 0.9500 0.9480 0.9460 0.9460
435.597328 0.9460 0.9440 0.9440 0.9440 0.9440
440.281176 0.9440 0.9430 0.9430 0.9430 0.9430
444.965024 0.9430 0.9430 0.9410 0.9410 0.9410
449.648872 0.9410 0.9400 0.9380 0.9370 0.9350
454.332720 0.9350 0.9340 0.9340 0.9340 0.9340
459.016568 0.9340 0.9320 0.9320 0.9320 0.9320
463.700416 0.9320 0.9320 0.9320 0.9320 0.9320
468.384264 0.9320 0.9320 0.9320 0.9340 0.9340
473.068112 0.9340 0.9350 0.9350 0.9350 0.9370
477.751960 0.9370 0.9370 0.9370 0.9370 0.9370
482.435808 0.9370 0.9370 0.9380 0.9380 0.9380
487.119656 0.9400 0.9400 0.9400 0.9410 0.9410
491.803504 0.9430 0.9430 0.9430 0.9430 0.9440
496.487352 0.9440 0.9440 0.9440 0.9430 0.9430
501.171200 0.9430 0.9400 0.9380 0.9380 0.9350
505.855048 0.9350 0.9340 0.9340 0.9320 0.9320
510.538896 0.9320 0.9310 0.9310 0.9310 0.9310
515.222744 0.9310 0.9320 0.9320 0.9320 0.9340
519.906592 0.9340 0.9340 0.9340 0.9340 0.9340
524.590440 0.9340 0.9350 0.9350 0.9350 0.9370
529.274288 0.9370 0.9400 0.9410 0.9430 0.9430
533.958136 0.9430 0.9440 0.9460 0.9460 0.9470
538.641984 0.9480 0.9480 0.9500 0.9510 0.9530
543.325832 0.9530 0.9540 0.9540 0.9560 0.9560
548.009680 0.9560 0.9560 0.9560 0.9560 0.9560
552.693528 0.9570 0.9570 0.9570 0.9570 0.9570
557.377376 0.9570 0.9570 0.9570 0.9570 0.9570
562.061224 0.9570 0.9590 0.9590 0.9590 0.9590
566.745072 0.9590 0.9600 0.9600 0.9600 0.9600
571.428920 0.9620 0.9620 0.9620 0.9620 0.9630
576.112768 0.9630 0.9630 0.9630 0.9650 0.9650
580.796616 0.9650 0.9660 0.9660 0.9670 0.9690
585.480464 0.9690 0.9690 0.9690 0.9690 0.9700
590.164312 0.9700 0.9700 0.9720 0.9720 0.9730
594.848160 0.9730 0.9750 0.9750 0.9760 0.9780
599.532008 0.9780 0.9790 0.9790 0.9790 0.9790
604.215856 0.9790 0.9790 0.9780 0.9780 0.9750
608.899704 0.9750 0.9730 0.9730 0.9720 0.9700
613.583552 0.9700 0.9700 0.9700 0.9700 0.9720
618.267400 0.9730 0.9730 0.9730 0.9730 0.9750
622.951248 0.9760 0.9760 0.9760 0.9760 0.9780
627.635096 0.9780 0.9780 0.9780 0.9780 0.9790
632.318944 0.9790 0.9790 0.9790 0.9790 0.9790
637.002792 0.9790 0.9790 0.9790 0.9790 0.9780
641.686640 0.9780 0.9750 0.9730 0.9720 0.9700
646.370488 0.9690 0.9660 0.9630 0.9630 0.9600
651.054336 0.9560 0.9480 0.9430 0.9410 0.9400
655.738184 0.9400 0.9410 0.9410 0.9440 0.9460
660.422032 0.9470 0.9480 0.9480 0.9480 0.9480
665.105880 0.9470 0.9470 0.9470 0.9470 0.9470
669.789728 0.9480 0.9590 0.9630 0.9700 0.9780
674.473576 0.9830 0.9860 0.9890 0.9920 0.9940
679.157424 0.9970 0.9970 0.9980 1.0000 1.0000
683.841272 1.0000 1.0010 1.0010 1.0010 1.0020
688.525120 1.0020 1.0020 1.0020 1.0040 1.0040
693.208968 1.0040 1.0040 1.0050 1.0050 1.0050
697.892816 1.0050 1.0050 1.0050 1.0050 1.0050
702.576664 1.0050 1.0050 1.0050 1.0050 1.0050
707.260512 1.0050 1.0050 1.0050 1.0050 1.0050
711.944360 1.0050 1.0050 1.0050 1.0050 1.0050
716.628208 1.0050 1.0050 1.0050 1.0050 1.0050
721.312056 1.0050 1.0050 1.0050 1.0050 1.0050
725.995904 1.0050 1.0050 1.0050 1.0050 1.0050
730.679751 1.0050 1.0050 1.0050 1.0050 1.0070
735.363599 1.0070 1.0070 1.0070 1.0070 1.0070
740.047447 1.0070 1.0070 1.0070 1.0070 1.0070
744.731295 1.0070 1.0070 1.0070 1.0070 1.0070
749.415143 1.0070 1.0070 1.0050 1.0050 1.0050
754.098991 1.0050 1.0050 1.0040 1.0040 1.0040
758.782839 1.0040 1.0020 1.0020 1.0020 1.0010
763.466687 1.0000 0.9980 0.9970 0.9970 0.9950
768.150535 0.9940 0.9940 0.9920 0.9910 0.9910
772.834383 0.9880 0.9880 0.9860 0.9850 0.9830
777.518231 0.9820 0.9810 0.9790 0.9760 0.9750
782.202079 0.9670 0.9620 0.9600 0.9570 0.9530
786.885927 0.9500 0.9470 0.9380 0.9350 0.9280
791.569775 0.9180 0.9060 0.8970 0.8950 0.8860
796.253623 0.8800 0.8740 0.8730 0.8700 0.8600
800.937471 0.8520 0.8410 0.8320 0.8220 0.8160
805.621319 0.8000 0.7870 0.7780 0.7331 0.7210
810.305167 0.7180 0.7040 0.6851 0.6850 0.6950
814.989015 0.7050 0.7170 0.7250 0.7340 0.7720
819.672863 0.7740 0.7760 0.7760 0.7760 0.7760
824.356711 0.7760 0.7780 0.7810 0.7870 0.7950
829.040559 0.7950 0.8010 0.8040 0.8070 0.8130
833.724407 0.8130 0.8130 0.8130 0.8130 0.8130
838.408255 0.8130 0.8130 0.8130 0.8130 0.8130
843.092103 0.8130 0.8130 0.8130 0.8130 0.8140
847.775951 0.8160 0.8190 0.8290 0.8360 0.8410
852.459799 0.8480 0.8580 0.8580 0.8570 0.8550
857.143647 0.8540 0.8520 0.8520 0.8550 0.8580
861.827495 0.8640 0.8710 0.8790 0.8810 0.8830
866.511343 0.9059 0.9190 0.9270 0.9320 0.9380
871.195191 0.9430 0.9500 0.9540 0.9560 0.9560
875.879039 0.9570 0.9570 0.9590 0.9600 0.9600
880.562887 0.9600 0.9600 0.9600 0.9600 0.9600
885.246735 0.9600 0.9600 0.9600 0.9600 0.9600
889.930583 0.9600 0.9600 0.9600 0.9600 0.9600
894.614431 0.9600 0.9600 0.9600 0.9600 0.9600
899.298279 0.9600 0.9600 0.9620 0.9620 0.9620
903.982127 0.9620 0.9630 0.9630 0.9630 0.9630
908.665975 0.9650 0.9650 0.9650 0.9650 0.9650
913.349823 0.9650 0.9650 0.9650 0.9630 0.9630
918.033671 0.9630 0.9630 0.9630 0.9630 0.9620
922.717519 0.9620 0.9600 0.9590 0.9590 0.9570
927.401367 0.9560 0.9560 0.9560 0.9510 0.9480
932.085215 0.9440 0.9410 0.9380 0.9350 0.9320
936.769063 0.9210 0.9150 0.9120 0.9050 0.8990
941.452911 0.8930 0.8790 0.8760 0.8740 0.8650
946.136759 0.8550 0.8510 0.8360 0.8350 0.8220
950.820607 0.8110 0.7970 0.7900 0.7780 0.7750
955.504455 0.7620 0.7470 0.7300 0.7080 0.6820
960.188303 0.6261 0.5941 0.5641 0.5640 0.6088
964.872151 0.6090 0.5750 0.5530 0.5800 0.5990
969.555999 0.6389 0.6370 0.6340 0.6290 0.6280
974.239847 0.6230 0.6200 0.6160 0.6120 0.6070
978.923695 0.6060 0.6040 0.6060 0.6060 0.5911
983.607543 0.5870 0.5830 0.3891 0.5828 0.6219
988.291391 0.6040 0.6020 0.5831 0.6119 0.6319
992.975239 0.6480 0.6480 0.6450 0.6380 0.6340
997.659087 0.6310 0.6310 0.6290 0.6310 0.6370
1002.342935 0.6380 0.6500 0.6640 0.6760 0.6790
1007.026783 0.6830 0.6830 0.6930 0.7060 0.7150
1011.710631 0.7200 0.7200 0.7170 0.7110 0.7090
1016.394479 0.7110 0.7240 0.7300 0.7629 0.7849
1021.078327 0.8040 0.8230 0.8410 0.8650 0.8920
1025.762175 0.9130 0.9130 0.9130 0.9130 0.9120
1030.446023 0.9120 0.9110 0.9110 0.9090 0.9080
1035.129871 0.9060 0.9050 0.9030 0.9020 0.9000
1039.813719 0.8990 0.8970 0.8960 0.8950 0.8930
1044.497567 0.8920 0.8890 0.8840 0.8800 0.8740
1049.181415 0.8700 0.8670 0.8580 0.8480 0.8380
1053.865263 0.8200 0.8110 0.7970 0.7761 0.7591
1058.549111 0.7310 0.7140 0.7040 0.6720 0.6221
1063.232959 0.6030 0.5491 0.5370 0.5260 0.5160
1067.916807 0.5080 0.5070 0.5080 0.5110 0.5140
1072.600655 0.5210 0.4981 0.4850 0.4621 0.4879
1077.284503 0.5110 0.5170 0.5100 0.5080 0.5070
1081.968351 0.5070 0.5080 0.5160 0.5170 0.5359
1086.652199 0.5530 0.5720 0.6000 0.6630 0.6930
1091.336047 0.7359 0.8039 0.8419 0.8550 0.8709
1096.019895 0.8900 0.8950 0.9110 0.9150 0.9220
1100.703743 0.9340 0.9380 0.9400 0.9400 0.9380
1105.387591 0.9370 0.9350 0.9340 0.9320 0.9310
1110.071439 0.9300 0.9270 0.9270 0.9250 0.9240
1114.755287 0.9220 0.9220 0.9210 0.9190 0.9160
1119.439135 0.9130 0.9130 0.9120 0.9120 0.9110
1124.122983 0.9090 0.9090 0.9080 0.9060 0.9060
1128.806831 0.9050 0.9030 0.9030 0.9020 0.8990
1133.490679 0.8990 0.8970 0.8960 0.8950 0.8950
1138.174527 0.8930 0.8920 0.8900 0.8890 0.8860
1142.858375 0.8840 0.8830 0.8800 0.8790 0.8760
1147.542223 0.8760 0.8740 0.8730 0.8700 0.8670
1152.226071 0.8620 0.8600 0.8540 0.8510 0.8380
1156.909919 0.8330 0.8190 0.8140 0.7971 0.7870
1161.593767 0.7750 0.7550 0.7330 0.7250 0.7080
1166.277615 0.6691 0.6281 0.6061 0.5771 0.5531
1170.961463 0.5009 0.4340 0.3900 0.3610 0.3320
1175.645311 0.2950 0.2391 0.2041 0.2010 0.1950
1180.329159 0.1900 0.1770 0.1630 0.1480 0.1340
1185.013007 0.1200 0.1100 0.0911 0.0860 0.0770
1189.696855 0.0680 0.0580 0.0530 0.0490 0.0450
1194.380703 0.0420 0.0400 0.0390 0.0370 0.0390
1199.064551 0.0490 0.0520 0.0520 0.0520 0.0530
1203.748399 0.0550 0.0580 0.0590 0.0590 0.0590
1208.432247 0.0590 0.0610 0.0650 0.0670 0.0670
1213.116095 0.0680 0.0690 0.0690 0.0780 0.0959
1217.799943 0.1120 0.1230 0.2360 0.2680 0.2760
1222.483791 0.3269 0.3988 0.4399 0.4779 0.5238
1227.167639 0.5460 0.5640 0.5880 0.5910 0.6060
1231.851487 0.6160 0.6230 0.6290 0.6320 0.6370
1236.535335 0.6420 0.6440 0.6470 0.6480 0.6550
1241.219183 0.6570 0.6630 0.6660 0.6740 0.6830
1245.903031 0.6920 0.6930 0.6950 0.6960 0.6980
1250.586879 0.6980 0.6990 0.6990 0.6801 0.6760
1255.270727 0.6500 0.6310 0.6030 0.5750 0.5550
1259.954575 0.5210 0.4821 0.4321 0.4131 0.3741
1264.638423 0.3200 0.3070 0.2940 0.2810 0.2680
1269.322271 0.2500 0.2400 0.2300 0.2210 0.2090
1274.006119 0.2050 0.2020 0.2010 0.1990 0.1990
1278.689967 0.1990 0.2010 0.2020 0.2040 0.2060
1283.373815 0.2120 0.2170 0.2270 0.2370 0.2470
1288.057663 0.2590 0.2690 0.2790 0.2910 0.3349
1292.741511 0.3810 0.3960 0.4110 0.4160 0.4250
1297.425359 0.4300 0.4350 0.4400 0.4470 0.4560
1302.109207 0.4660 0.4760 0.4820 0.4910 0.5020
1306.793055 0.5100 0.5130 0.5200 0.5230 0.5270
1311.476903 0.5340 0.5430 0.5550 0.5680 0.5770
1316.160751 0.5900 0.6060 0.6379 0.6599 0.6700
1320.844599 0.7091 0.7440 0.7840 0.8130 0.8350
1325.528447 0.8460 0.8540 0.8540 0.8550 0.8610
1330.212295 0.8620 0.8650 0.8730 0.8740 0.8760
1334.896143 0.8790 0.8790 0.8810 0.8830 0.8840
1339.579991 0.8840 0.8860 0.8860 0.8870 0.8870
1344.263839 0.8890 0.8890 0.8900 0.8900 0.8920
1348.947687 0.8920 0.8920 0.8890 0.8890 0.8870
1353.631535 0.8860 0.8860 0.8870 0.8890 0.8890
1358.315383 0.8900 0.8900 0.8900 0.8900 0.8900
1362.999231 0.8900 0.8890 0.8890 0.8870 0.8870
1367.683079 0.8870 0.8870 0.8870 0.8870 0.8890
1372.366927 0.8900 0.8890 0.8900 0.8900 0.8920
1377.050775 0.8920 0.8920 0.8920 0.8920 0.8920
1381.734623 0.8920 0.8900 0.8900 0.8860 0.8740
1386.418471 0.8550 0.8230 0.8030 0.7740 0.7580
1391.102319 0.7121 0.6531 0.6001 0.4594 0.4431
1395.786167 0.4280 0.4090 0.3890 0.3860 0.3870
1400.470015 0.4020 0.4150 0.4509 0.3952 0.3382
1405.153863 0.3350 0.3361 0.4250 0.4110 0.4080
1409.837711 0.3810 0.3570 0.3540 0.3550 0.3799
1414.521559 0.4120 0.4250 0.4350 0.5160 0.6449
1419.205406 0.6850 0.7229 0.7619 0.7630 0.7630
1423.889254 0.7630 0.7630 0.7470 0.7330 0.7250
1428.573102 0.6980 0.6760 0.6451 0.6131 0.5841
1433.256950 0.5360 0.5240 0.5100 0.4950 0.4890
1437.940798 0.4810 0.4590 0.4560 0.4570 0.4939
1442.624646 0.5039 0.4650 0.4460 0.4270 0.4240
1447.308494 0.4250 0.4280 0.4380 0.4480 0.4659
1451.992342 0.5421 0.6040 0.6370 0.6600 0.6760
1456.676190 0.7149 0.7409 0.7580 0.7660 0.7740
1461.360038 0.7880 0.8000 0.8060 0.8130 0.8160
1466.043886 0.8170 0.8190 0.8190 0.8190 0.8140
1470.727734 0.8130 0.8110 0.8130 0.8160 0.8170
1475.411582 0.8230 0.8300 0.8330 0.8350 0.8410
1480.095430 0.8460 0.8510 0.8580 0.8580 0.8610
1484.779278 0.8620 0.8640 0.8650 0.8680 0.8700
1489.463126 0.8700 0.8710 0.8710 0.8730 0.8760
1494.146974 0.8790 0.8810 0.8840 0.8870 0.8870
1498.830822 0.8870 0.8860 0.8830 0.8800 0.8770
1503.514670 0.8740 0.8790 0.8810 0.8890 0.8900
1508.198518 0.8900 0.8920 0.8920 0.8930 0.8930
1512.882366 0.8930 0.8920 0.8920 0.8900 0.8900
1517.566214 0.8890 0.8890 0.8890 0.8900 0.8920
1522.250062 0.8930 0.8950 0.8950 0.8990 0.9020
1526.933910 0.9030 0.9030 0.9050 0.9050 0.9050
1531.617758 0.9050 0.9050 0.9050 0.9050 0.9020
1536.301606 0.8990 0.8960 0.8930 0.8920 0.8930
1540.985454 0.8960 0.8990 0.9020 0.9050 0.9090
1545.669302 0.9090 0.9090 0.9090 0.9090 0.9090
1550.353150 0.9090 0.9090 0.9060 0.9030 0.9020
1555.036998 0.8990 0.8970 0.8960 0.8990 0.9000
1559.720846 0.9030 0.9050 0.9090 0.9090 0.9090
1564.404694 0.9110 0.9110 0.9110 0.9110 0.9110
1569.088542 0.9110 0.9120 0.9120 0.9130 0.9130
1573.772390 0.9130 0.9130 0.9150 0.9150 0.9150
1578.456238 0.9150 0.9150 0.9150 0.9150 0.9130
1583.140086 0.9130 0.9120 0.9120 0.9110 0.9110
1587.823934 0.9090 0.9090 0.9090 0.9080 0.9060
1592.507782 0.9050 0.9030 0.9020 0.9000 0.8970
1597.191630 0.8960 0.8950 0.8930 0.8920 0.8900
1601.875478 0.8890 0.8860 0.8790 0.8740 0.8730
1606.559326 0.8710 0.8680 0.8620 0.8600 0.8600
1611.243174 0.8550 0.8460 0.8330 0.8320 0.8320
1615.927022 0.8320 0.8300 0.8300 0.8270 0.8200
1620.610870 0.8130 0.8090 0.7940 0.7900 0.7820
1625.294718 0.7740 0.7660 0.7580 0.7500 0.7301
1629.978566 0.7110 0.7080 0.7090 0.7170 0.7230
1634.662414 0.7280 0.7340 0.7310 0.7270 0.7240
1639.346262 0.7200 0.7171 0.7530 0.7180 0.7200
1644.030110 0.7240 0.7280 0.7370 0.7460 0.7560
1648.713958 0.7690 0.7850 0.7930 0.8230 0.8490
1653.397806 0.8710 0.8860 0.8900 0.8930 0.8930
1658.081654 0.8930 0.8950 0.8950 0.8960 0.8970
1662.765502 0.8990 0.8990 0.9000 0.9020 0.9050
1667.449350 0.9050 0.9050 0.9060 0.9060 0.9060
1672.133198 0.9060 0.9060 0.9060 0.9060 0.9050
1676.817046 0.9050 0.9030 0.9020 0.9000 0.8890
1681.500894 0.8770 0.8860 0.8930 0.9000 0.9020
1686.184742 0.9030 0.9050 0.9050 0.9030 0.9020
1690.868590 0.8990 0.8970 0.8960 0.8870 0.8840
1695.552438 0.8840 0.8810 0.8790 0.8790 0.8770
1700.236286 0.8770 0.8770 0.8740 0.8730 0.8730
1704.920134 0.8710 0.8700 0.8700 0.8700 0.8680
1709.603982 0.8670 0.8650 0.8490 0.8320 0.8160
1714.287830 0.7970 0.7940 0.7780 0.7600 0.7530
1718.971678 0.7230 0.7050 0.6900 0.6740 0.6511
1723.655526 0.6219 0.5999 0.5620 0.5370 0.5110
1728.339374 0.4820 0.4250 0.4120 0.3801 0.3411
1733.023222 0.2949 0.2559 0.2240 0.2020 0.1600
1737.707070 0.1390 0.0911 0.0680 0.0650 0.0640
1742.390918 0.0640 0.0650 0.0690 0.0770 0.0870
1747.074766 0.0880 0.0970 0.1040 0.0970 0.0910
1751.758614 0.0870 0.0810 0.0770 0.0710 0.0640
1756.442462 0.0610 0.0620 0.0750 0.0880 0.0960
1761.126310 0.1020 0.1101 0.1641 0.2140 0.2370
1765.810158 0.2470 0.2850 0.3169 0.3360 0.3579
1770.494006 0.4061 0.4541 0.5000 0.5480 0.5670
1775.177854 0.5930 0.6290 0.6579 0.6879 0.7239
1779.861702 0.7401 0.7721 0.8110 0.8330 0.8510
1784.545550 0.8610 0.8710 0.8870 0.8920 0.9000
1789.229398 0.9090 0.9130 0.9210 0.9270 0.9280
1793.913246 0.9310 0.9310 0.9320 0.9340 0.9350
1798.597094 0.9370 0.9380 0.9400 0.9410 0.9430
1803.280942 0.9440 0.9440 0.9460 0.9460 0.9470
1807.964790 0.9470 0.9470 0.9470 0.9470 0.9470
1812.648638 0.9470 0.9470 0.9470 0.9470 0.9470
1817.332486 0.9470 0.9470 0.9470 0.9470 0.9470
1822.016334 0.9470 0.9470 0.9470 0.9470 0.9470
1826.700182 0.9470 0.9470 0.9460 0.9460 0.9460
1831.384030 0.9460 0.9460 0.9440 0.9440 0.9430
1836.067878 0.9430 0.9410 0.9410 0.9410 0.9410
1840.751726 0.9410 0.9410 0.9430 0.9430 0.9430
1845.435574 0.9430 0.9440 0.9440 0.9440 0.9460
1850.119422 0.9460 0.9460 0.9460 0.9470 0.9470
1854.803270 0.9470 0.9480 0.9480 0.9480 0.9480
1859.487118 0.9480 0.9480 0.9500 0.9500 0.9500
1864.170966 0.9500 0.9500 0.9500 0.9500 0.9510
1868.854814 0.9510 0.9510 0.9510 0.9510 0.9510
1873.538662 0.9510 0.9530 0.9530 0.9530 0.9530
1878.222510 0.9530 0.9530 0.9540 0.9540 0.9540
1882.906358 0.9540 0.9560 0.9560 0.9560 0.9560
1887.590206 0.9560 0.9560 0.9560 0.9540 0.9540
1892.274054 0.9540 0.9540 0.9510 0.9510 0.9510
1896.957902 0.9500 0.9500 0.9480 0.9480 0.9470
1901.641750 0.9440 0.9430 0.9410 0.9400 0.9380
1906.325598 0.9370 0.9350 0.9340 0.9340 0.9320
1911.009446 0.9320 0.9310 0.9300 0.9280 0.9270
1915.693294 0.9250 0.9250 0.9240 0.9220 0.9210
1920.377142 0.9190 0.9180 0.9180 0.9160 0.9160
1925.060990 0.9150 0.9150 0.9130 0.9130 0.9130
1929.744838 0.9130 0.9150 0.9160 0.9180 0.9190
1934.428686 0.9210 0.9220 0.9240 0.9250 0.9270
1939.112534 0.9280 0.9280 0.9300 0.9310 0.9320
1943.796382 0.9320 0.9350 0.9350 0.9380 0.9410
1948.480230 0.9430 0.9430 0.9440 0.9460 0.9460
1953.164078 0.9470 0.9470 0.9470 0.9480 0.9480
1957.847926 0.9480 0.9500 0.9500 0.9500 0.9510
1962.531774 0.9510 0.9510 0.9530 0.9530 0.9530
1967.215622 0.9530 0.9530 0.9530 0.9530 0.9530
1971.899470 0.9530 0.9530 0.9510 0.9510 0.9510
1976.583318 0.9510 0.9510 0.9510 0.9500 0.9500
1981.267166 0.9500 0.9500 0.9500 0.9500 0.9500
1985.951014 0.9500 0.9500 0.9500 0.9500 0.9500
1990.634862 0.9480 0.9480 0.9480 0.9480 0.9470
1995.318710 0.9470 0.9460 0.9460 0.9440 0.9410
2000.002558 0.9410 0.9410 0.9410 0.9405 0.9400
2004.686406 0.9400 0.9400 0.9385 0.9370 0.9370
2009.370254 0.9370 0.9360 0.9350 0.9350 0.9350
2014.054102 0.9345 0.9340 0.9331 0.9321 0.9320
2018.737950 0.9320 0.9320 0.9320 0.9320 0.9320
2023.421798 0.9320 0.9320 0.9320 0.9320 0.9320
2028.105646 0.9320 0.9316 0.9311 0.9310 0.9310
2032.789494 0.9306 0.9301 0.9287 0.9272 0.9270
2037.473342 0.9270 0.9261 0.9251 0.9246 0.9241
2042.157190 0.9231 0.9221 0.9207 0.9192 0.9190
2046.841038 0.9190 0.9186 0.9181 0.9180 0.9180
2051.524886 0.9172 0.9162 0.9160 0.9160 0.9156
2056.208734 0.9151 0.9150 0.9150 0.9150 0.9150
2060.892582 0.9150 0.9150 0.9154 0.9159 0.9172
2065.576430 0.9187 0.9198 0.9208 0.9222 0.9236
2070.260278 0.9251 0.9266 0.9285 0.9305 0.9336
2074.944126 0.9372 0.9410 0.9450 0.9467 0.9477
2079.627974 0.9491 0.9506 0.9517 0.9527 0.9534
2084.311822 0.9539 0.9540 0.9540 0.9540 0.9540
2088.995670 0.9540 0.9540 0.9540 0.9540 0.9537
2093.679518 0.9532 0.9530 0.9530 0.9530 0.9530
2098.363366 0.9530 0.9530 0.9523 0.9513 0.9510
2103.047214 0.9510 0.9510 0.9510 0.9507 0.9502
2107.731061 0.9500 0.9500 0.9500 0.9500 0.9500
2112.414909 0.9500 0.9500 0.9500 0.9503 0.9508
2117.098757 0.9510 0.9510 0.9510 0.9510 0.9510
2121.782605 0.9510 0.9510 0.9510 0.9510 0.9510
2126.466453 0.9510 0.9510 0.9510 0.9510 0.9516
2131.150301 0.9526 0.9530 0.9530 0.9533 0.9538
2135.834149 0.9540 0.9540 0.9546 0.9555 0.9560
2140.517997 0.9560 0.9560 0.9560 0.9560 0.9560
2145.201845 0.9560 0.9560 0.9560 0.9560 0.9560
2149.885693 0.9560 0.9560 0.9560 0.9560 0.9560
2154.569541 0.9560 0.9560 0.9560 0.9560 0.9562
2159.253389 0.9567 0.9570 0.9570 0.9570 0.9570
2163.937237 0.9575 0.9585 0.9590 0.9590 0.9590
2168.621085 0.9590 0.9590 0.9590 0.9592 0.9597
2173.304933 0.9600 0.9600 0.9600 0.9600 0.9600
2177.988781 0.9600 0.9600 0.9600 0.9604 0.9614
2182.672629 0.9620 0.9620 0.9622 0.9627 0.9630
2187.356477 0.9630 0.9630 0.9630 0.9630 0.9630
2192.040325 0.9630 0.9630 0.9630 0.9630 0.9630
2196.724173 0.9630 0.9630 0.9630 0.9630 0.9630
2201.408021 0.9630 0.9630 0.9630 0.9630 0.9630
2206.091869 0.9630 0.9630 0.9630 0.9630 0.9630
2210.775717 0.9630 0.9630 0.9630 0.9630 0.9630
2215.459565 0.9630 0.9630 0.9630 0.9630 0.9630
2220.143413 0.9630 0.9630 0.9630 0.9630 0.9630
2224.827261 0.9630 0.9630 0.9630 0.9630 0.9630
2229.511109 0.9630 0.9630 0.9630 0.9630 0.9630
2234.194957 0.9630 0.9630 0.9630 0.9630 0.9630
2238.878805 0.9630 0.9630 0.9630 0.9630 0.9630
2243.562653 0.9630 0.9630 0.9630 0.9630 0.9630
2248.246501 0.9630 0.9630 0.9630 0.9630 0.9630
2252.930349 0.9630 0.9632 0.9642 0.9650 0.9650
2257.614197 0.9650 0.9650 0.9650 0.9650 0.9650
2262.298045 0.9650 0.9650 0.9650 0.9650 0.9650
2266.981893 0.9650 0.9650 0.9651 0.9656 0.9660
2271.665741 0.9660 0.9659 0.9654 0.9650 0.9650
2276.349589 0.9649 0.9639 0.9630 0.9630 0.9630
2281.033437 0.9625 0.9619 0.9609 0.9600 0.9600
2285.717285 0.9600 0.9600 0.9600 0.9600 0.9601
2290.401133 0.9611 0.9620 0.9620 0.9620 0.9625
2295.084981 0.9630 0.9630 0.9630 0.9640 0.9650
2299.768829 0.9650 0.9650 0.9655 0.9660 0.9665
2304.452677 0.9670 0.9680 0.9690 0.9695 0.9700
2309.136525 0.9710 0.9720 0.9720 0.9720 0.9735
2313.820373 0.9750 0.9750 0.9750 0.9755 0.9760
2318.504221 0.9760 0.9760 0.9770 0.9780 0.9794
2323.188069 0.9809 0.9815 0.9820 0.9820 0.9820
2327.871917 0.9820 0.9820 0.9820 0.9820 0.9815
2332.555765 0.9810 0.9801 0.9791 0.9790 0.9790
2337.239613 0.9790 0.9790 0.9785 0.9780 0.9780
2341.923461 0.9780 0.9780 0.9780 0.9771 0.9761
2346.607309 0.9760 0.9760 0.9760 0.9760 0.9760
2351.291157 0.9760 0.9760 0.9760 0.9760 0.9760
2355.975005 0.9760 0.9760 0.9756 0.9751 0.9750
2360.658853 0.9750 0.9750 0.9750 0.9750 0.9750
2365.342701 0.9750 0.9750 0.9742 0.9732 0.9730
2370.026549 0.9730 0.9726 0.9721 0.9708 0.9693
2374.710397 0.9690 0.9690 0.9682 0.9672 0.9670
2379.394245 0.9670 0.9666 0.9661 0.9656 0.9651
2384.078093 0.9650 0.9650 0.9642 0.9633 0.9630
2388.761941 0.9630 0.9630 0.9630 0.9626 0.9621
2393.445789 0.9620 0.9620 0.9620 0.9620 0.9624
2398.129637 0.9629 0.9630 0.9630 0.9630 0.9630
2402.813485 0.9630 0.9630 0.9630 0.9630 0.9630
2407.497333 0.9630 0.9630 0.9630 0.9630 0.9630
2412.181181 0.9637 0.9647 0.9653 0.9658 0.9660
2416.865029 0.9660 0.9663 0.9668 0.9676 0.9686
2421.548877 0.9690 0.9690 0.9693 0.9698 0.9700
2426.232725 0.9700 0.9700 0.9700 0.9706 0.9716
2430.916573 0.9720 0.9720 0.9720 0.9720 0.9720
2435.600421 0.9720 0.9720 0.9720 0.9720 0.9720
2440.284269 0.9720 0.9720 0.9720 0.9720 0.9720
2444.968117 0.9720 0.9720 0.9720 0.9720 0.9720
2449.651965 0.9720 0.9720 0.9720 0.9720 0.9720
2454.335813 0.9720 0.9720 0.9720 0.9720 0.9720
2459.019661 0.9720 0.9720 0.9720 0.9720 0.9720
2463.703509 0.9720 0.9720 0.9720 0.9720 0.9720
2468.387357 0.9720 0.9720 0.9720 0.9720 0.9720
2473.071205 0.9720 0.9720 0.9720 0.9720 0.9720
2477.755053 0.9720 0.9720 0.9720 0.9720 0.9720
2482.438901 0.9720 0.9720 0.9720 0.9720 0.9720
2487.122749 0.9720 0.9720 0.9720 0.9720 0.9720
2491.806597 0.9720 0.9722 0.9727 0.9734 0.9744
2496.490445 0.9750 0.9750 0.9750 0.9750 0.9750
2501.174293 0.9750 0.9750 0.9750 0.9750 0.9750
2505.858141 0.9750 0.9750 0.9750 0.9750 0.9750
2510.541989 0.9750 0.9750 0.9750 0.9750 0.9750
2515.225837 0.9750 0.9750 0.9750 0.9750 0.9750
2519.909685 0.9750 0.9750 0.9750 0.9750 0.9750
2524.593533 0.9750 0.9750 0.9750 0.9750 0.9750
2529.277381 0.9750 0.9750 0.9750 0.9750 0.9750
2533.961229 0.9750 0.9750 0.9750 0.9750 0.9750
2538.645077 0.9750 0.9750 0.9750 0.9750 0.9750
2543.328925 0.9750 0.9750 0.9750 0.9750 0.9750
2548.012773 0.9750 0.9750 0.9750 0.9751 0.9756
2552.696621 0.9760 0.9760 0.9760 0.9760 0.9760
2557.380469 0.9760 0.9760 0.9760 0.9760 0.9760
2562.064317 0.9760 0.9760 0.9759 0.9754 0.9750
2566.748165 0.9750 0.9750 0.9750 0.9750 0.9750
2571.432013 0.9750 0.9750 0.9750 0.9750 0.9750
2576.115861 0.9750 0.9749 0.9739 0.9730 0.9730
2580.799709 0.9730 0.9730 0.9730 0.9730 0.9730
2585.483557 0.9730 0.9729 0.9724 0.9720 0.9720
2590.167405 0.9720 0.9720 0.9719 0.9709 0.9700
2594.851253 0.9700 0.9700 0.9700 0.9700 0.9700
2599.535101 0.9700 0.9700 0.9700 0.9700 0.9700
2604.218949 0.9700 0.9700 0.9700 0.9700 0.9700
2608.902797 0.9700 0.9700 0.9700 0.9700 0.9700
2613.586645 0.9710 0.9720 0.9720 0.9720 0.9720
2618.270493 0.9720 0.9720 0.9720 0.9725 0.9730
2622.954341 0.9730 0.9730 0.9730 0.9730 0.9730
2627.638189 0.9730 0.9740 0.9750 0.9750 0.9750
2632.322037 0.9750 0.9750 0.9750 0.9750 0.9750
2637.005885 0.9750 0.9755 0.9760 0.9755 0.9750
2641.689733 0.9750 0.9750 0.9750 0.9750 0.9750
2646.373581 0.9750 0.9750 0.9750 0.9750 0.9750
2651.057429 0.9750 0.9750 0.9750 0.9750 0.9750
2655.741277 0.9750 0.9750 0.9750 0.9750 0.9750
2660.425125 0.9750 0.9750 0.9750 0.9750 0.9741
2665.108973 0.9731 0.9730 0.9730 0.9730 0.9730
2669.792821 0.9730 0.9730 0.9730 0.9730 0.9730
2674.476669 0.9730 0.9730 0.9730 0.9730 0.9730
2679.160517 0.9730 0.9730 0.9730 0.9730 0.9726
2683.844365 0.9721 0.9720 0.9720 0.9720 0.9720
2688.528213 0.9720 0.9720 0.9720 0.9720 0.9712
2693.212061 0.9702 0.9700 0.9700 0.9700 0.9700
2697.895909 0.9700 0.9700 0.9700 0.9700 0.9707
2702.579757 0.9717 0.9720 0.9720 0.9724 0.9729
2707.263605 0.9730 0.9730 0.9730 0.9730 0.9730
2711.947453 0.9730 0.9737 0.9747 0.9750 0.9750
2716.631301 0.9750 0.9750 0.9750 0.9750 0.9750
2721.315149 0.9750 0.9750 0.9750 0.9750 0.9750
2725.998997 0.9750 0.9750 0.9750 0.9750 0.9750
2730.682845 0.9750 0.9750 0.9750 0.9750 0.9750
2735.366693 0.9750 0.9750 0.9750 0.9750 0.9750
2740.050541 0.9750 0.9750 0.9750 0.9750 0.9750
2744.734389 0.9750 0.9750 0.9750 0.9750 0.9750
2749.418237 0.9750 0.9750 0.9750 0.9750 0.9750
2754.102085 0.9750 0.9750 0.9750 0.9750 0.9750
2758.785933 0.9750 0.9750 0.9750 0.9750 0.9750
2763.469781 0.9750 0.9750 0.9750 0.9750 0.9745
2768.153629 0.9735 0.9730 0.9730 0.9730 0.9730
2772.837477 0.9730 0.9730 0.9730 0.9730 0.9730
2777.521325 0.9730 0.9730 0.9730 0.9730 0.9730
2782.205173 0.9730 0.9730 0.9730 0.9730 0.9730
2786.889021 0.9730 0.9730 0.9730 0.9730 0.9730
2791.572869 0.9730 0.9730 0.9728 0.9723 0.9720
2796.256716 0.9720 0.9720 0.9720 0.9720 0.9720
2800.940564 0.9720 0.9720 0.9720 0.9720 0.9716
2805.624412 0.9706 0.9700 0.9700 0.9698 0.9693
2810.308260 0.9686 0.9676 0.9670 0.9670 0.9668
2814.992108 0.9663 0.9658 0.9653 0.9645 0.9630
2819.675956 0.9609 0.9579 0.9551 0.9526 0.9502
2824.359804 0.9477 0.9455 0.9440 0.9427 0.9417
2829.043652 0.9398 0.9363 0.9335 0.9320 0.9305
2833.727500 0.9290 0.9275 0.9260 0.9245 0.9230
2838.411348 0.9219 0.9214 0.9201 0.9171 0.9142
2843.095196 0.9112 0.9082 0.9052 0.9026 0.9011
2847.779044 0.9000 0.9000 0.9000 0.9000 0.9003
2852.462892 0.9013 0.9020 0.9020 0.9020 0.9020
2857.146740 0.9018 0.9008 0.9000 0.9000 0.9005
2861.830588 0.9030 0.9056 0.9087 0.9115 0.9134
2866.514436 0.9157 0.9186 0.9214 0.9234 0.9253
2871.198284 0.9268 0.9280 0.9280 0.9280 0.9280
2875.882132 0.9280 0.9280 0.9279 0.9274 0.9270
2880.565980 0.9270 0.9268 0.9258 0.9249 0.9244
2885.249828 0.9238 0.9228 0.9219 0.9214 0.9206
2889.933676 0.9182 0.9158 0.9143 0.9129 0.9124
2894.617524 0.9118 0.9103 0.9088 0.9068 0.9047
2899.301372 0.9023 0.8998 0.8978 0.8957 0.8927
2903.985220 0.8898 0.8878 0.8855 0.8795 0.8739
2908.669068 0.8724 0.8710 0.8710 0.8710 0.8710
2913.352916 0.8711 0.8721 0.8730 0.8735 0.8740
2918.036764 0.8750 0.8760 0.8765 0.8770 0.8780
2922.720612 0.8790 0.8795 0.8800 0.8805 0.8810
2927.404460 0.8820 0.8830 0.8835 0.8840 0.8850
2932.088308 0.8860 0.8865 0.8870 0.8870 0.8870
2936.772156 0.8870 0.8870 0.8855 0.8840 0.8825
2941.456004 0.8810 0.8771 0.8731 0.8667 0.8603
2946.139852 0.8509 0.8415 0.7974 0.7516 0.7302
2950.823700 0.7103 0.6829 0.6550 0.6442 0.6348
2955.507548 0.6244 0.6139 0.6038 0.5938 0.6008
2960.191396 0.6093 0.6246 0.6405 0.6420 0.6420
2964.875244 0.6348 0.6269 0.6185 0.6100 0.6077
2969.559092 0.6062 0.5977 0.5883 0.5982 0.6112
2974.242940 0.6241 0.6371 0.6497 0.6623 0.6971
2978.926788 0.7355 0.7691 0.8020 0.8226 0.8410
2983.610636 0.8486 0.8541 0.8509 0.8459 0.8421
2988.294484 0.8386 0.8279 0.8154 0.8106 0.8076
2992.978332 0.8042 0.8007 0.7988 0.7973 0.7970
2997.662180 0.7970 0.7970 0.7970 0.7888 0.7783
3002.346028 0.7679 0.7574 0.7446 0.7312 0.7398
3007.029876 0.7552 0.7650 0.7730 0.7858 0.8002
3011.713724 0.8047 0.8057 0.8060 0.8060 0.8060
3016.397572 0.8060 0.8053 0.8043 0.8040 0.8040
3021.081420 0.8036 0.8031 0.8044 0.8064 0.8084
3025.765268 0.8104 0.8131 0.8161 0.8187 0.8212
3030.449116 0.8220 0.8220 0.8180 0.8119 0.8076
3035.132964 0.8041 0.8020 0.8005 0.7950 0.7876
3039.816812 0.7932 0.8056 0.8174 0.8289 0.8432
3044.500660 0.8592 0.8659 0.8674 0.8689 0.8704
3049.184508 0.8725 0.8750 0.8772 0.8792 0.8809
3053.868356 0.8824 0.8842 0.8862 0.8876 0.8886
3058.552204 0.8932 0.9001 0.9074 0.9149 0.9226
3063.236052 0.9306 0.9349 0.9364 0.9373 0.9378
3067.919900 0.9380 0.9380 0.9386 0.9396 0.9403
3072.603748 0.9408 0.9410 0.9410 0.9410 0.9410
3077.287596 0.9410 0.9410 0.9410 0.9410 0.9410
3081.971444 0.9410 0.9410 0.9410 0.9410 0.9410
3086.655292 0.9410 0.9410 0.9410 0.9410 0.9410
3091.339140 0.9410 0.9408 0.9403 0.9400 0.9400
3096.022988 0.9400 0.9400 0.9395 0.9385 0.9371
3100.706836 0.9351 0.9324 0.9289 0.9270 0.9270
3105.390684 0.9263 0.9249 0.9240 0.9240 0.9236
3110.074532 0.9226 0.9220 0.9220 0.9220 0.9220
3114.758380 0.9220 0.9220 0.9220 0.9220 0.9220
3119.442228 0.9220 0.9224 0.9234 0.9242 0.9247
3124.126076 0.9280 0.9360 0.9427 0.9472 0.9517
3128.809924 0.9562 0.9605 0.9645 0.9681 0.9711
3133.493772 0.9735 0.9750 0.9763 0.9773 0.9780
3138.177620 0.9780 0.9780 0.9780 0.9780 0.9780
3142.861468 0.9780 0.9780 0.9780 0.9780 0.9780
3147.545316 0.9780 0.9780 0.9780 0.9780 0.9780
3152.229164 0.9780 0.9780 0.9780 0.9780 0.9780
3156.913012 0.9780 0.9780 0.9780 0.9781 0.9786
3161.596860 0.9790 0.9790 0.9790 0.9790 0.9790
3166.280708 0.9790 0.9790 0.9790 0.9790 0.9790
3170.964556 0.9790 0.9790 0.9790 0.9790 0.9792
3175.648404 0.9802 0.9810 0.9810 0.9810 0.9810
3180.332252 0.9810 0.9810 0.9810 0.9810 0.9810
3185.016100 0.9810 0.9811 0.9816 0.9820 0.9820
3189.699948 0.9820 0.9820 0.9821 0.9826 0.9830
3194.383796 0.9830 0.9830 0.9830 0.9830 0.9830
3199.067644 0.9829 0.9824 0.9820 0.9820 0.9819
3203.751492 0.9814 0.9810 0.9810 0.9810 0.9810
3208.435340 0.9810 0.9810 0.9810 0.9810 0.9810
3213.119188 0.9810 0.9810 0.9810 0.9810 0.9810
3217.803036 0.9810 0.9810 0.9810 0.9810 0.9810
3222.486884 0.9810 0.9810 0.9810 0.9810 0.9810
3227.170732 0.9810 0.9810 0.9810 0.9810 0.9810
3231.854580 0.9810 0.9810 0.9810 0.9810 0.9810
3236.538428 0.9810 0.9810 0.9810 0.9815 0.9820
3241.222276 0.9820 0.9820 0.9820 0.9820 0.9820
3245.906124 0.9820 0.9820 0.9820 0.9820 0.9820
3250.589972 0.9820 0.9820 0.9820 0.9820 0.9820
3255.273820 0.9820 0.9820 0.9820 0.9820 0.9820
3259.957668 0.9820 0.9820 0.9820 0.9820 0.9820
3264.641516 0.9820 0.9825 0.9830 0.9830 0.9830
3269.325364 0.9830 0.9830 0.9830 0.9830 0.9830
3274.009212 0.9830 0.9830 0.9830 0.9830 0.9830
3278.693060 0.9830 0.9830 0.9830 0.9830 0.9830
3283.376908 0.9830 0.9830 0.9830 0.9830 0.9830
3288.060756 0.9830 0.9830 0.9830 0.9830 0.9838
3292.744604 0.9848 0.9850 0.9850 0.9850 0.9850
3297.428452 0.9850 0.9850 0.9850 0.9850 0.9850
3302.112300 0.9850 0.9850 0.9850 0.9850 0.9850
3306.796148 0.9850 0.9850 0.9850 0.9850 0.9850
3311.479996 0.9850 0.9850 0.9850 0.9850 0.9850
3316.163844 0.9850 0.9850 0.9850 0.9850 0.9850
3320.847692 0.9850 0.9850 0.9850 0.9850 0.9850
3325.531540 0.9850 0.9850 0.9850 0.9850 0.9850
3330.215388 0.9850 0.9850 0.9850 0.9850 0.9850
3334.899236 0.9850 0.9850 0.9850 0.9850 0.9850
3339.583084 0.9850 0.9850 0.9850 0.9850 0.9850
3344.266932 0.9850 0.9850 0.9850 0.9850 0.9850
3348.950780 0.9850 0.9850 0.9850 0.9850 0.9850
3353.634628 0.9850 0.9850 0.9850 0.9850 0.9850
3358.318476 0.9850 0.9850 0.9850 0.9850 0.9850
3363.002324 0.9850 0.9850 0.9844 0.9834 0.9830
3367.686172 0.9830 0.9830 0.9830 0.9830 0.9830
3372.370020 0.9830 0.9830 0.9830 0.9830 0.9830
3377.053868 0.9830 0.9830 0.9830 0.9830 0.9830
3381.737716 0.9827 0.9822 0.9820 0.9820 0.9820
3386.421564 0.9820 0.9823 0.9828 0.9830 0.9830
3391.105412 0.9830 0.9830 0.9830 0.9830 0.9830
3395.789260 0.9830 0.9835 0.9845 0.9850 0.9850
3400.473108 0.9845 0.9835 0.9830 0.9830 0.9830
3405.156956 0.9830 0.9835 0.9845 0.9850 0.9850
3409.840804 0.9852 0.9857 0.9860 0.9860 0.9860
3414.524652 0.9860 0.9860 0.9860 0.9858 0.9853
3419.208500 0.9850 0.9850 0.9846 0.9836 0.9830
3423.892348 0.9830 0.9830 0.9830 0.9828 0.9823
3428.576196 0.9820 0.9820 0.9818 0.9813 0.9810
3433.260044 0.9810 0.9810 0.9810 0.9806 0.9796
3437.943892 0.9794 0.9804 0.9810 0.9810 0.9810
3442.627740 0.9810 0.9810 0.9810 0.9810 0.9810
3447.311588 0.9810 0.9810 0.9810 0.9810 0.9810
3451.995436 0.9810 0.9807 0.9797 0.9790 0.9790
3456.679284 0.9788 0.9783 0.9777 0.9767 0.9759
3461.363132 0.9754 0.9747 0.9737 0.9730 0.9730
3466.046980 0.9729 0.9724 0.9717 0.9707 0.9699
3470.730828 0.9694 0.9685 0.9665 0.9647 0.9637
3475.414676 0.9629 0.9624 0.9616 0.9601 0.9590
3480.098524 0.9590 0.9588 0.9578 0.9570 0.9570
3484.782371 0.9570 0.9570 0.9570 0.9570 0.9572
3489.466219 0.9582 0.9591 0.9596 0.9602 0.9612
3494.150067 0.9624 0.9644 0.9664 0.9684 0.9704
3498.833915 0.9729 0.9751 0.9756 0.9762 0.9778
3503.517763 0.9792 0.9802 0.9811 0.9816 0.9821
3508.201611 0.9826 0.9832 0.9847 0.9861 0.9871
3512.885459 0.9880 0.9880 0.9881 0.9886 0.9890
3517.569307 0.9890 0.9890 0.9890 0.9890 0.9890
3522.253155 0.9890 0.9890 0.9890 0.9890 0.9890
3526.937003 0.9890 0.9890 0.9890 0.9890 0.9890
3531.620851 0.9890 0.9890 0.9890 0.9890 0.9890
3536.304699 0.9885 0.9880 0.9880 0.9880 0.9880
3540.988547 0.9880 0.9880 0.9880 0.9885 0.9890
3545.672395 0.9890 0.9890 0.9890 0.9890 0.9890
3550.356243 0.9890 0.9890 0.9890 0.9890 0.9890
3555.040091 0.9890 0.9890 0.9890 0.9890 0.9900
3559.723939 0.9910 0.9915 0.9920 0.9920 0.9920
3564.407787 0.9920 0.9920 0.9930 0.9940 0.9940
3569.091635 0.9940 0.9940 0.9940 0.9940 0.9940
3573.775483 0.9940 0.9940 0.9940 0.9940 0.9940
3578.459331 0.9940 0.9940 0.9940 0.9940 0.9940
3583.143179 0.9931 0.9921 0.9920 0.9920 0.9916
3587.827027 0.9911 0.9910 0.9910 0.9910 0.9910
3592.510875 0.9910 0.9910 0.9910 0.9910 0.9910
3597.194723 0.9910 0.9910 0.9910 0.9910 0.9910
3601.878571 0.9910 0.9910 0.9910 0.9910 0.9910
3606.562419 0.9910 0.9910 0.9910 0.9910 0.9910
3611.246267 0.9910 0.9910 0.9910 0.9910 0.9910
3615.930115 0.9910 0.9910 0.9910 0.9910 0.9910
3620.613963 0.9910 0.9910 0.9910 0.9910 0.9910
3625.297811 0.9910 0.9910 0.9910 0.9910 0.9910
3629.981659 0.9910 0.9910 0.9910 0.9910 0.9910
3634.665507 0.9910 0.9910 0.9910 0.9910 0.9910
3639.349355 0.9910 0.9910 0.9910 0.9910 0.9914
3644.033203 0.9919 0.9920 0.9920 0.9920 0.9920
3648.717051 0.9920 0.9920 0.9920 0.9920 0.9920
3653.400899 0.9920 0.9920 0.9920 0.9920 0.9920
3658.084747 0.9920 0.9920 0.9917 0.9912 0.9910
3662.768595 0.9910 0.9910 0.9910 0.9910 0.9910
3667.452443 0.9910 0.9910 0.9910 0.9910 0.9910
3672.136291 0.9910 0.9910 0.9910 0.9910 0.9910
3676.820139 0.9910 0.9910 0.9910 0.9910 0.9910
3681.503987 0.9910 0.9895 0.9870 0.9857 0.9852
3686.187835 0.9850 0.9850 0.9850 0.9850 0.9850
3690.871683 0.9850 0.9850 0.9850 0.9853 0.9858
3695.555531 0.9860 0.9860 0.9865 0.9875 0.9883
3700.239379 0.9888 0.9890 0.9890 0.9890 0.9890
3704.923227 0.9890 0.9890 0.9890 0.9890 0.9895
3709.607075 0.9905 0.9910 0.9910 0.9910 0.9910
3714.290923 0.9910 0.9910 0.9910 0.9910 0.9910
3718.974771 0.9910 0.9910 0.9910 0.9910 0.9910
3723.658619 0.9910 0.9910 0.9906 0.9896 0.9890
3728.342467 0.9890 0.9890 0.9890 0.9890 0.9890
3733.026315 0.9890 0.9890 0.9890 0.9890 0.9890
3737.710163 0.9890 0.9888 0.9883 0.9880 0.9880
3742.394011 0.9880 0.9880 0.9882 0.9887 0.9896
3747.077859 0.9911 0.9920 0.9920 0.9920 0.9920
3751.761707 0.9920 0.9920 0.9920 0.9920 0.9920
3756.445555 0.9920 0.9923 0.9933 0.9940 0.9940
3761.129403 0.9940 0.9940 0.9940 0.9940 0.9942
3765.813251 0.9947 0.9950 0.9950 0.9950 0.9950
3770.497099 0.9950 0.9950 0.9950 0.9950 0.9950
3775.180947 0.9950 0.9950 0.9950 0.9950 0.9950
3779.864795 0.9950 0.9950 0.9953 0.9963 0.9970
3784.548643 0.9970 0.9971 0.9976 0.9980 0.9980
3789.232491 0.9982 0.9992 1.0000 1.0000 1.0000
3793.916339 1.0000
##END=
