##TITLE=CYCLOPENTANE, METHYL-
##JCAMP-DX=4.24
##DATA TYPE=INFRARED SPECTRUM
##CLASS=COBLENTZ III
##ORIGIN=STANDARD OIL OF OHIO
##OWNER=COBLENTZ SOCIETY
Collection (C) 2018 copyright by the U.S. Secretary of Commerce
on behalf of the United States of America. All rights reserved.
##DATE=1976/12/20
##NAMES=methylcyclopentane
##CAS REGISTRY NO=96-37-7
##MOLFORM=C6 H12
##BP=72 C
##SOURCE REFERENCE=COBLENTZ NO. 10123
##$NIST SOURCE=COBLENTZ
##$NIST IMAGE=cob10123
##SPECTROMETER/DATA SYSTEM=PERKIN-ELMER 180 (GRATING)
##INSTRUMENT PARAMETERS=GRATING CHANGES AT 2000, 1000, 500, 250 CM^-^1
##STATE=LIQUID (NEAT)
##PATH LENGTH=0.006 CM, KBr CELL
##SAMPLING PROCEDURE=TRANSMISSION
##RESOLUTION=4
##DATA PROCESSING=DIGITIZED BY NIST FROM HARD COPY (FROM TWO SEGMENTS)
##XUNITS=1/CM
##YUNITS=TRANSMITTANCE
##XFACTOR=1.000000
##YFACTOR=1
##DELTAX=1.017168
##FIRSTX=293.198
##LASTX=3995.69
##FIRSTY=0.009
##MAXX=3995.69
##MINX=293.198
##MAXY=0.875
##MINY=0
##NPOINTS=3641
##XYDATA=(X++(Y..Y))
293.198000 0.0090 0.0110 0.0130 0.0140 0.0150
298.283838 0.0160 0.0190 0.0210 0.0240 0.0270
303.369676 0.0340 0.0350 0.0380 0.0410 0.0450
308.455513 0.0480 0.0490 0.0510 0.0550 0.0590
313.541351 0.0610 0.0650 0.0690 0.0710 0.0780
318.627189 0.0800 0.0850 0.0900 0.0930 0.0980
323.713027 0.1010 0.1080 0.1140 0.1200 0.1270
328.798865 0.1310 0.1410 0.1500 0.1570 0.1620
333.884702 0.1680 0.1720 0.1810 0.1880 0.1970
338.970540 0.2020 0.2050 0.2080 0.2100 0.2170
344.056378 0.2250 0.2330 0.2420 0.2500 0.2580
349.142216 0.2660 0.2740 0.2820 0.2900 0.2990
354.228054 0.3050 0.3200 0.3290 0.3370 0.3430
359.313892 0.3530 0.3600 0.3700 0.3800 0.3840
364.399729 0.3890 0.3900 0.4020 0.4130 0.4210
369.485567 0.4250 0.4280 0.4380 0.4490 0.4520
374.571405 0.4600 0.4640 0.4720 0.4800 0.4870
379.657243 0.4900 0.5069 0.5150 0.5180 0.5210
384.743081 0.5260 0.5320 0.5370 0.5430 0.5510
389.828918 0.5530 0.5610 0.5690 0.5720 0.5810
394.914756 0.5850 0.5890 0.5940 0.6000 0.6090
400.000594 0.6150 0.6210 0.6240 0.6300 0.6320
405.086432 0.6350 0.6400 0.6450 0.6510 0.6530
410.172270 0.6560 0.6640 0.6710 0.6740 0.6780
415.258107 0.6810 0.6830 0.6860 0.6870 0.6890
420.343945 0.6910 0.6980 0.6990 0.7000 0.7010
425.429783 0.7030 0.7110 0.7170 0.7220 0.7240
430.515621 0.7280 0.7340 0.7360 0.7390 0.7410
435.601459 0.7460 0.7500 0.7520 0.7540 0.7590
440.687297 0.7610 0.7670 0.7700 0.7710 0.7720
445.773134 0.7730 0.7750 0.7760 0.7770 0.7800
450.858972 0.7840 0.7860 0.7890 0.7900 0.7920
455.944810 0.7930 0.7950 0.7960 0.7990 0.8010
461.030648 0.8020 0.8030 0.8050 0.8050 0.8060
466.116486 0.8070 0.8080 0.8110 0.8120 0.8120
471.202323 0.8140 0.8160 0.8160 0.8180 0.8200
476.288161 0.8200 0.8210 0.8220 0.8240 0.8260
481.373999 0.8270 0.8300 0.8330 0.8340 0.8350
486.459837 0.8350 0.8350 0.8350 0.8350 0.8350
491.545675 0.8350 0.8350 0.8350 0.8360 0.8400
496.631512 0.8740 0.8750 0.8750 0.8750 0.8740
501.717350 0.8740 0.8730 0.8730 0.8720 0.8710
506.803188 0.8700 0.8700 0.8700 0.8700 0.8700
511.889026 0.8690 0.8680 0.8660 0.8620 0.8590
516.974864 0.8540 0.8510 0.8410 0.8330 0.8250
522.060702 0.8180 0.8100 0.8030 0.7930 0.7860
527.146539 0.7830 0.7830 0.7860 0.7910 0.8010
532.232377 0.8050 0.8120 0.8170 0.8210 0.8250
537.318215 0.8280 0.8330 0.8370 0.8400 0.8430
542.404053 0.8470 0.8500 0.8500 0.8510 0.8510
547.489891 0.8520 0.8540 0.8560 0.8590 0.8610
552.575728 0.8630 0.8640 0.8640 0.8650 0.8650
557.661566 0.8670 0.8670 0.8680 0.8680 0.8680
562.747404 0.8670 0.8670 0.8660 0.8660 0.8660
567.833242 0.8650 0.8650 0.8650 0.8670 0.8700
572.919080 0.8700 0.8700 0.8700 0.8700 0.8690
578.004917 0.8690 0.8680 0.8680 0.8680 0.8690
583.090755 0.8690 0.8690 0.8680 0.8680 0.8670
588.176593 0.8670 0.8650 0.8640 0.8630 0.8620
593.262431 0.8610 0.8610 0.8610 0.8610 0.8600
598.348269 0.8610 0.8620 0.8630 0.8650 0.8650
603.434107 0.8620 0.8620 0.8620 0.8620 0.8620
608.519944 0.8630 0.8630 0.8630 0.8630 0.8620
613.605782 0.8620 0.8620 0.8610 0.8620 0.8630
618.691620 0.8640 0.8630 0.8620 0.8600 0.8590
623.777458 0.8590 0.8590 0.8580 0.8580 0.8560
628.863296 0.8560 0.8570 0.8580 0.8580 0.8580
633.949133 0.8580 0.8580 0.8580 0.8570 0.8560
639.034971 0.8520 0.8510 0.8510 0.8510 0.8510
644.120809 0.8520 0.8520 0.8530 0.8530 0.8530
649.206647 0.8510 0.8510 0.8510 0.8520 0.8520
654.292485 0.8520 0.8530 0.8550 0.8570 0.8580
659.378322 0.8580 0.8580 0.8570 0.8570 0.8570
664.464160 0.8560 0.8550 0.8550 0.8530 0.8510
669.549998 0.8510 0.8490 0.8490 0.8560 0.8610
674.635836 0.8630 0.8640 0.8640 0.8630 0.8630
679.721674 0.8620 0.8630 0.8620 0.8610 0.8600
684.807512 0.8590 0.8560 0.8560 0.8570 0.8580
689.893349 0.8600 0.8600 0.8590 0.8580 0.8570
694.979187 0.8560 0.8560 0.8560 0.8550 0.8560
700.065025 0.8560 0.8550 0.8530 0.8520 0.8520
705.150863 0.8550 0.8550 0.8550 0.8540 0.8520
710.236701 0.8520 0.8510 0.8510 0.8500 0.8490
715.322538 0.8480 0.8470 0.8470 0.8460 0.8460
720.408376 0.8450 0.8430 0.8410 0.8400 0.8400
725.494214 0.8420 0.8430 0.8420 0.8410 0.8400
730.580052 0.8410 0.8390 0.8380 0.8370 0.8360
735.665890 0.8350 0.8340 0.8340 0.8330 0.8330
740.751727 0.8320 0.8320 0.8310 0.8300 0.8290
745.837565 0.8270 0.8220 0.8180 0.8140 0.8100
750.923403 0.8070 0.8050 0.8030 0.8010 0.7990
756.009241 0.7930 0.7910 0.7850 0.7840 0.7830
761.095079 0.7820 0.7820 0.7830 0.7830 0.7840
766.180916 0.7860 0.7870 0.7870 0.7900 0.7900
771.266754 0.7870 0.7860 0.7850 0.7860 0.7870
776.352592 0.7890 0.7900 0.7910 0.7910 0.7930
781.438430 0.7950 0.7960 0.7970 0.7980 0.7990
786.524268 0.7990 0.8000 0.8010 0.8010 0.8040
791.610106 0.8050 0.8050 0.8050 0.8050 0.8040
796.695943 0.8030 0.8020 0.8020 0.8010 0.8000
801.781781 0.7990 0.7980 0.7970 0.7960 0.7950
806.867619 0.7960 0.7980 0.7990 0.7990 0.7970
811.953457 0.7950 0.7940 0.7930 0.7920 0.7880
817.039295 0.7840 0.7830 0.7820 0.7810 0.7780
822.125132 0.7780 0.7770 0.7760 0.7720 0.7700
827.210970 0.7680 0.7650 0.7600 0.7570 0.7510
832.296808 0.7480 0.7480 0.7410 0.7340 0.7310
837.382646 0.7290 0.7290 0.7280 0.7280 0.7290
842.468484 0.7300 0.7310 0.7310 0.7340 0.7380
847.554321 0.7400 0.7430 0.7490 0.7520 0.7530
852.640159 0.7570 0.7570 0.7620 0.7660 0.7670
857.725997 0.7670 0.7660 0.7660 0.7660 0.7670
862.811835 0.7650 0.7610 0.7570 0.7520 0.7500
867.897673 0.7450 0.7410 0.7360 0.7250 0.7150
872.983511 0.7080 0.6980 0.6800 0.6580 0.6390
878.069348 0.6190 0.6020 0.5890 0.5731 0.5660
883.155186 0.5650 0.5660 0.5680 0.5720 0.5780
888.241024 0.5810 0.5850 0.5900 0.5940 0.5970
893.326862 0.6000 0.6010 0.6010 0.6020 0.6040
898.412700 0.6120 0.6220 0.6320 0.6420 0.6520
903.498537 0.6640 0.6730 0.6820 0.6900 0.6990
908.584375 0.7100 0.7180 0.7260 0.7360 0.7430
913.670213 0.7500 0.7530 0.7620 0.7700 0.7720
918.756051 0.7760 0.7770 0.7800 0.7840 0.7850
923.841889 0.7860 0.7870 0.7870 0.7890 0.7900
928.927726 0.7910 0.7930 0.7940 0.7940 0.7930
934.013564 0.7920 0.7900 0.7890 0.7880 0.7860
939.099402 0.7840 0.7820 0.7770 0.7750 0.7740
944.185240 0.7710 0.7680 0.7630 0.7600 0.7590
949.271078 0.7510 0.7420 0.7330 0.7240 0.7120
954.356916 0.7010 0.6910 0.6750 0.6620 0.6480
959.442753 0.6280 0.6000 0.5761 0.5571 0.5331
964.528591 0.5110 0.4990 0.4860 0.4670 0.4480
969.614429 0.4270 0.4140 0.4140 0.4170 0.4220
974.700267 0.4330 0.4520 0.4690 0.5020 0.5220
979.786105 0.5370 0.5630 0.5830 0.5990 0.6110
984.871942 0.6170 0.6230 0.6290 0.6340 0.6370
989.957780 0.6410 0.6440 0.6450 0.6460 0.6480
995.043618 0.6490 0.6500 0.6510 0.6530 0.6680
1000.129456 0.6830 0.6880 0.6930 0.6950 0.6970
1005.215294 0.7010 0.7070 0.7120 0.7170 0.7210
1010.301131 0.7230 0.7240 0.7260 0.7280 0.7320
1015.386969 0.7360 0.7410 0.7440 0.7500 0.7510
1020.472807 0.7560 0.7620 0.7710 0.7730 0.7780
1025.558645 0.7790 0.7820 0.7860 0.7930 0.7940
1030.644483 0.7960 0.8000 0.8020 0.8060 0.8070
1035.730321 0.8070 0.8070 0.8060 0.8060 0.8080
1040.816158 0.8080 0.8090 0.8100 0.8110 0.8110
1045.901996 0.8110 0.8100 0.8100 0.8090 0.8090
1050.987834 0.8100 0.8120 0.8120 0.8130 0.8130
1056.073672 0.8120 0.8130 0.8140 0.8160 0.8160
1061.159510 0.8170 0.8190 0.8200 0.8200 0.8170
1066.245347 0.8140 0.8130 0.8120 0.8090 0.8080
1071.331185 0.8100 0.8110 0.8120 0.8120 0.8120
1076.417023 0.8120 0.8120 0.8120 0.8110 0.8100
1081.502861 0.8090 0.8090 0.8120 0.8150 0.8160
1086.588699 0.8160 0.8170 0.8200 0.8210 0.8220
1091.674536 0.8240 0.8250 0.8250 0.8240 0.8190
1096.760374 0.8120 0.8090 0.8090 0.8070 0.8040
1101.846212 0.8010 0.7990 0.7990 0.7950 0.7950
1106.932050 0.7920 0.7880 0.7860 0.7820 0.7770
1112.017888 0.7740 0.7730 0.7700 0.7620 0.7600
1117.103726 0.7510 0.7450 0.7400 0.7360 0.7280
1122.189563 0.7210 0.7150 0.7030 0.6900 0.6810
1127.275401 0.6660 0.6510 0.6380 0.6240 0.6180
1132.361239 0.6170 0.6190 0.6240 0.6330 0.6440
1137.447077 0.6590 0.6750 0.6890 0.7010 0.7140
1142.532915 0.7230 0.7320 0.7410 0.7450 0.7510
1147.618752 0.7530 0.7540 0.7560 0.7590 0.7610
1152.704590 0.7600 0.7600 0.7590 0.7590 0.7560
1157.790428 0.7550 0.7540 0.7520 0.7510 0.7520
1162.876266 0.7530 0.7530 0.7530 0.7530 0.7530
1167.962104 0.7520 0.7520 0.7520 0.7490 0.7430
1173.047941 0.7400 0.7370 0.7320 0.7290 0.7280
1178.133779 0.7290 0.7300 0.7300 0.7300 0.7300
1183.219617 0.7280 0.7270 0.7260 0.7270 0.7280
1188.305455 0.7280 0.7260 0.7250 0.7240 0.7230
1193.391293 0.7220 0.7220 0.7210 0.7200 0.7200
1198.477130 0.7190 0.7180 0.7170 0.7150 0.7130
1203.562968 0.7100 0.7100 0.7090 0.7090 0.7080
1208.648806 0.7070 0.7070 0.7060 0.7040 0.7040
1213.734644 0.7040 0.7040 0.7030 0.7030 0.7040
1218.820482 0.7060 0.7060 0.7060 0.7070 0.7070
1223.906320 0.7070 0.7070 0.7060 0.7060 0.7060
1228.992157 0.7060 0.7060 0.7060 0.7040 0.7040
1234.077995 0.7040 0.7040 0.7060 0.7060 0.7060
1239.163833 0.7060 0.7060 0.7040 0.7030 0.7030
1244.249671 0.7030 0.7020 0.7010 0.7010 0.7000
1249.335509 0.7000 0.7000 0.7000 0.6990 0.6990
1254.421346 0.6990 0.6990 0.6980 0.6970 0.6950
1259.507184 0.6930 0.6910 0.6900 0.6870 0.6850
1264.593022 0.6840 0.6820 0.6800 0.6760 0.6750
1269.678860 0.6730 0.6660 0.6610 0.6600 0.6560
1274.764698 0.6500 0.6420 0.6390 0.6340 0.6300
1279.850535 0.6290 0.6260 0.6200 0.6170 0.6160
1284.936373 0.6160 0.6150 0.6140 0.6120 0.6090
1290.022211 0.6070 0.6060 0.6070 0.6110 0.6130
1295.108049 0.6140 0.6160 0.6200 0.6240 0.6290
1300.193887 0.6350 0.6400 0.6450 0.6490 0.6500
1305.279725 0.6500 0.6510 0.6550 0.6560 0.6570
1310.365562 0.6590 0.6620 0.6640 0.6660 0.6670
1315.451400 0.6680 0.6680 0.6700 0.6720 0.6710
1320.537238 0.6660 0.6650 0.6630 0.6610 0.6560
1325.623076 0.6520 0.6490 0.6340 0.6300 0.6220
1330.708914 0.6030 0.5860 0.5740 0.5550 0.5340
1335.794751 0.5150 0.5070 0.4980 0.4760 0.4541
1340.880589 0.4329 0.4150 0.4010 0.4010 0.4040
1345.966427 0.4100 0.4240 0.4470 0.4600 0.5139
1351.052265 0.5381 0.5550 0.5710 0.5780 0.5780
1356.138103 0.5770 0.5710 0.5610 0.5470 0.5201
1361.223940 0.5019 0.4829 0.4429 0.3849 0.3139
1366.309778 0.2100 0.1281 0.0721 0.0720 0.0870
1371.395616 0.1411 0.1711 0.2191 0.2661 0.3111
1376.481454 0.3540 0.3840 0.4100 0.4390 0.4570
1381.567292 0.5181 0.5400 0.5550 0.5700 0.5800
1386.653130 0.5900 0.6000 0.6030 0.6080 0.6090
1391.738967 0.6100 0.6100 0.6100 0.6110 0.6110
1396.824805 0.6100 0.6100 0.6070 0.6040 0.6010
1401.910643 0.5970 0.5910 0.5890 0.5830 0.5790
1406.996481 0.5740 0.5680 0.5610 0.5540 0.5460
1412.082319 0.5370 0.5260 0.5170 0.5100 0.5010
1417.168156 0.4960 0.4910 0.4770 0.4680 0.4510
1422.253994 0.4339 0.4170 0.4040 0.3870 0.3710
1427.339832 0.3530 0.3360 0.3120 0.2950 0.2541
1432.425670 0.2339 0.2049 0.1659 0.1409 0.1099
1437.511508 0.0620 0.0490 0.0350 0.0220 0.0050
1442.597345 0.0030 0.0020 0.0020 0.0020 0.0020
1447.683183 0.0020 0.0020 0.0020 0.0020 0.0030
1452.769021 0.0030 0.0040 0.0050 0.0100 0.0150
1457.854859 0.0230 0.0370 0.0520 0.0730 0.0840
1462.940697 0.0990 0.1111 0.1280 0.1350 0.1420
1468.026535 0.1500 0.1590 0.1700 0.1840 0.2000
1473.112372 0.2181 0.2411 0.2670 0.2840 0.3120
1478.198210 0.3340 0.3560 0.3760 0.3840 0.4329
1483.284048 0.4491 0.4671 0.4821 0.5060 0.5190
1488.369886 0.5310 0.5430 0.5540 0.5690 0.5800
1493.455724 0.5930 0.6010 0.6110 0.6200 0.6270
1498.541561 0.6340 0.6400 0.6500 0.6560 0.6660
1503.627399 0.6710 0.6740 0.6820 0.6890 0.6940
1508.713237 0.7000 0.7010 0.7100 0.7150 0.7170
1513.799075 0.7220 0.7250 0.7280 0.7330 0.7350
1518.884913 0.7390 0.7410 0.7460 0.7510 0.7510
1523.970750 0.7540 0.7590 0.7620 0.7650 0.7660
1529.056588 0.7700 0.7730 0.7730 0.7740 0.7740
1534.142426 0.7790 0.7830 0.7860 0.7910 0.7940
1539.228264 0.7950 0.7960 0.8000 0.8010 0.8010
1544.314102 0.8020 0.8020 0.8020 0.8040 0.8040
1549.399940 0.8050 0.8070 0.8090 0.8110 0.8130
1554.485777 0.8150 0.8140 0.8130 0.8120 0.8130
1559.571615 0.8130 0.8130 0.8120 0.8120 0.8140
1564.657453 0.8150 0.8170 0.8180 0.8180 0.8180
1569.743291 0.8180 0.8180 0.8190 0.8190 0.8190
1574.829129 0.8180 0.8190 0.8190 0.8200 0.8210
1579.914966 0.8220 0.8240 0.8260 0.8270 0.8270
1585.000804 0.8280 0.8280 0.8280 0.8280 0.8270
1590.086642 0.8260 0.8260 0.8240 0.8240 0.8240
1595.172480 0.8260 0.8280 0.8290 0.8290 0.8300
1600.258318 0.8300 0.8300 0.8280 0.8260 0.8250
1605.344155 0.8240 0.8240 0.8220 0.8220 0.8220
1610.429993 0.8220 0.8240 0.8260 0.8270 0.8270
1615.515831 0.8260 0.8260 0.8260 0.8250 0.8240
1620.601669 0.8240 0.8240 0.8220 0.8220 0.8240
1625.687507 0.8250 0.8250 0.8260 0.8250 0.8250
1630.773344 0.8220 0.8210 0.8200 0.8200 0.8200
1635.859182 0.8200 0.8200 0.8210 0.8220 0.8260
1640.945020 0.8270 0.8280 0.8300 0.8300 0.8310
1646.030858 0.8300 0.8290 0.8290 0.8280 0.8280
1651.116696 0.8270 0.8280 0.8290 0.8290 0.8290
1656.202534 0.8290 0.8280 0.8270 0.8270 0.8260
1661.288371 0.8240 0.8220 0.8210 0.8210 0.8210
1666.374209 0.8210 0.8200 0.8190 0.8190 0.8190
1671.460047 0.8180 0.8180 0.8170 0.8150 0.8140
1676.545885 0.8130 0.8130 0.8120 0.8110 0.8110
1681.631723 0.8110 0.8120 0.8120 0.8130 0.8140
1686.717560 0.8150 0.8150 0.8140 0.8140 0.8110
1691.803398 0.8110 0.8130 0.8150 0.8150 0.8160
1696.889236 0.8170 0.8190 0.8200 0.8220 0.8240
1701.975074 0.8260 0.8270 0.8280 0.8290 0.8300
1707.060912 0.8310 0.8310 0.8310 0.8320 0.8320
1712.146749 0.8320 0.8320 0.8320 0.8330 0.8350
1717.232587 0.8370 0.8370 0.8380 0.8370 0.8360
1722.318425 0.8350 0.8360 0.8360 0.8370 0.8380
1727.404263 0.8380 0.8390 0.8390 0.8390 0.8390
1732.490101 0.8400 0.8400 0.8400 0.8390 0.8380
1737.575939 0.8370 0.8360 0.8340 0.8340 0.8360
1742.661776 0.8370 0.8370 0.8370 0.8380 0.8390
1747.747614 0.8400 0.8410 0.8410 0.8410 0.8400
1752.833452 0.8400 0.8400 0.8410 0.8420 0.8430
1757.919290 0.8440 0.8450 0.8470 0.8480 0.8490
1763.005128 0.8490 0.8490 0.8480 0.8480 0.8470
1768.090965 0.8460 0.8460 0.8470 0.8480 0.8490
1773.176803 0.8490 0.8500 0.8510 0.8510 0.8500
1778.262641 0.8500 0.8490 0.8480 0.8480 0.8480
1783.348479 0.8480 0.8480 0.8480 0.8500 0.8500
1788.434317 0.8500 0.8490 0.8490 0.8480 0.8470
1793.520154 0.8460 0.8450 0.8440 0.8420 0.8410
1798.605992 0.8410 0.8430 0.8440 0.8450 0.8450
1803.691830 0.8460 0.8470 0.8470 0.8470 0.8470
1808.777668 0.8470 0.8470 0.8470 0.8470 0.8450
1813.863506 0.8430 0.8430 0.8460 0.8470 0.8490
1818.949344 0.8500 0.8510 0.8500 0.8480 0.8470
1824.035181 0.8470 0.8480 0.8480 0.8480 0.8480
1829.121019 0.8480 0.8480 0.8480 0.8480 0.8510
1834.206857 0.8510 0.8520 0.8530 0.8520 0.8510
1839.292695 0.8510 0.8510 0.8500 0.8500 0.8490
1844.378533 0.8490 0.8480 0.8480 0.8480 0.8480
1849.464370 0.8470 0.8460 0.8460 0.8440 0.8420
1854.550208 0.8420 0.8410 0.8410 0.8410 0.8410
1859.636046 0.8400 0.8400 0.8410 0.8420 0.8430
1864.721884 0.8440 0.8430 0.8420 0.8400 0.8390
1869.807722 0.8400 0.8400 0.8400 0.8410 0.8410
1874.893559 0.8420 0.8420 0.8420 0.8420 0.8420
1879.979397 0.8420 0.8430 0.8450 0.8440 0.8430
1885.065235 0.8420 0.8420 0.8420 0.8420 0.8420
1890.151073 0.8420 0.8430 0.8430 0.8430 0.8430
1895.236911 0.8440 0.8450 0.8440 0.8440 0.8420
1900.322749 0.8410 0.8410 0.8410 0.8410 0.8420
1905.408586 0.8420 0.8420 0.8440 0.8460 0.8500
1910.494424 0.8500 0.8500 0.8500 0.8500 0.8500
1915.580262 0.8470 0.8470 0.8470 0.8480 0.8490
1920.666100 0.8490 0.8500 0.8500 0.8500 0.8510
1925.751938 0.8520 0.8530 0.8530 0.8510 0.8510
1930.837775 0.8510 0.8510 0.8510 0.8510 0.8510
1935.923613 0.8510 0.8510 0.8510 0.8510 0.8540
1941.009451 0.8550 0.8550 0.8550 0.8540 0.8540
1946.095289 0.8540 0.8540 0.8540 0.8540 0.8550
1951.181127 0.8550 0.8550 0.8550 0.8550 0.8550
1956.266964 0.8550 0.8550 0.8540 0.8510 0.8510
1961.352802 0.8500 0.8500 0.8500 0.8500 0.8510
1966.438640 0.8510 0.8510 0.8510 0.8520 0.8550
1971.524478 0.8550 0.8530 0.8520 0.8510 0.8500
1976.610316 0.8500 0.8490 0.8490 0.8490 0.8490
1981.696153 0.8490 0.8500 0.8500 0.8490 0.8490
1986.781991 0.8480 0.8480 0.8470 0.8460 0.8450
1991.867829 0.8430 0.8430 0.8430 0.8450 0.8450
1996.953667 0.8480 0.8500 0.8510 0.8530 0.8540
2002.039505 0.8550 0.8555 0.8560 0.8570 0.8580
2007.125343 0.8585 0.8590 0.8590 0.8590 0.8580
2012.211180 0.8570 0.8565 0.8560 0.8560 0.8560
2017.297018 0.8575 0.8590 0.8595 0.8600 0.8605
2022.382856 0.8610 0.8620 0.8630 0.8630 0.8630
2027.468694 0.8610 0.8590 0.8585 0.8580 0.8575
2032.554532 0.8570 0.8575 0.8580 0.8585 0.8590
2037.640369 0.8590 0.8590 0.8590 0.8590 0.8590
2042.726207 0.8590 0.8590 0.8590 0.8585 0.8580
2047.812045 0.8570 0.8560 0.8560 0.8560 0.8555
2052.897883 0.8550 0.8550 0.8550 0.8540 0.8530
2057.983721 0.8530 0.8530 0.8530 0.8530 0.8535
2063.069558 0.8540 0.8540 0.8540 0.8545 0.8550
2068.155396 0.8550 0.8550 0.8550 0.8550 0.8550
2073.241234 0.8550 0.8555 0.8560 0.8560 0.8560
2078.327072 0.8560 0.8560 0.8560 0.8560 0.8555
2083.412910 0.8550 0.8550 0.8550 0.8550 0.8550
2088.498748 0.8550 0.8550 0.8550 0.8550 0.8550
2093.584585 0.8550 0.8545 0.8540 0.8540 0.8540
2098.670423 0.8540 0.8540 0.8540 0.8540 0.8540
2103.756261 0.8540 0.8535 0.8530 0.8530 0.8530
2108.842099 0.8530 0.8530 0.8530 0.8530 0.8525
2113.927937 0.8520 0.8520 0.8520 0.8520 0.8520
2119.013774 0.8520 0.8520 0.8515 0.8510 0.8510
2124.099612 0.8510 0.8505 0.8500 0.8495 0.8490
2129.185450 0.8490 0.8490 0.8485 0.8480 0.8470
2134.271288 0.8460 0.8455 0.8450 0.8431 0.8411
2139.357126 0.8405 0.8400 0.8395 0.8390 0.8375
2144.442963 0.8360 0.8350 0.8340 0.8335 0.8330
2149.528801 0.8325 0.8320 0.8315 0.8310 0.8305
2154.614639 0.8300 0.8300 0.8300 0.8295 0.8290
2159.700477 0.8256 0.8221 0.8210 0.8200 0.8195
2164.786315 0.8190 0.8195 0.8200 0.8205 0.8210
2169.872153 0.8215 0.8220 0.8230 0.8240 0.8245
2174.957990 0.8250 0.8250 0.8250 0.8250 0.8250
2180.043828 0.8255 0.8260 0.8275 0.8290 0.8295
2185.129666 0.8300 0.8315 0.8330 0.8330 0.8330
2190.215504 0.8325 0.8320 0.8325 0.8330 0.8330
2195.301342 0.8330 0.8335 0.8340 0.8340 0.8340
2200.387179 0.8350 0.8360 0.8350 0.8340 0.8340
2205.473017 0.8340 0.8335 0.8330 0.8330 0.8330
2210.558855 0.8335 0.8340 0.8350 0.8360 0.8360
2215.644693 0.8360 0.8365 0.8370 0.8370 0.8370
2220.730531 0.8370 0.8370 0.8370 0.8370 0.8365
2225.816368 0.8360 0.8360 0.8360 0.8355 0.8350
2230.902206 0.8345 0.8340 0.8335 0.8330 0.8320
2235.988044 0.8310 0.8310 0.8310 0.8305 0.8300
2241.073882 0.8300 0.8300 0.8295 0.8290 0.8285
2246.159720 0.8280 0.8275 0.8270 0.8260 0.8250
2251.245558 0.8250 0.8250 0.8245 0.8240 0.8230
2256.331395 0.8220 0.8220 0.8220 0.8215 0.8210
2261.417233 0.8200 0.8190 0.8185 0.8180 0.8175
2266.503071 0.8170 0.8160 0.8150 0.8150 0.8150
2271.588909 0.8150 0.8150 0.8160 0.8170 0.8175
2276.674747 0.8180 0.8180 0.8180 0.8185 0.8190
2281.760584 0.8190 0.8190 0.8190 0.8190 0.8195
2286.846422 0.8200 0.8210 0.8220 0.8230 0.8240
2291.932260 0.8240 0.8240 0.8230 0.8220 0.8220
2297.018098 0.8220 0.8210 0.8200 0.8195 0.8190
2302.103936 0.8180 0.8170 0.8170 0.8170 0.8165
2307.189773 0.8160 0.8141 0.8121 0.8101 0.8081
2312.275611 0.8070 0.8060 0.8060 0.8060 0.8070
2317.361449 0.8080 0.8085 0.8090 0.8090 0.8090
2322.447287 0.8090 0.8090 0.8085 0.8080 0.8070
2327.533125 0.8060 0.8060 0.8060 0.8055 0.8050
2332.618963 0.8050 0.8050 0.8045 0.8040 0.8035
2337.704800 0.8030 0.8030 0.8030 0.8030 0.8030
2342.790638 0.8035 0.8040 0.8040 0.8040 0.8045
2347.876476 0.8050 0.8074 0.8099 0.8105 0.8110
2352.962314 0.8120 0.8130 0.8135 0.8140 0.8145
2358.048152 0.8150 0.8155 0.8160 0.8169 0.8179
2363.133989 0.8194 0.8209 0.8215 0.8220 0.8220
2368.219827 0.8220 0.8220 0.8220 0.8239 0.8259
2373.305665 0.8279 0.8299 0.8300 0.8300 0.8314
2378.391503 0.8329 0.8339 0.8349 0.8355 0.8360
2383.477341 0.8365 0.8370 0.8370 0.8370 0.8370
2388.563178 0.8370 0.8370 0.8370 0.8370 0.8370
2393.649016 0.8375 0.8380 0.8380 0.8380 0.8375
2398.734854 0.8370 0.8370 0.8370 0.8365 0.8360
2403.820692 0.8346 0.8331 0.8321 0.8310 0.8305
2408.906530 0.8300 0.8300 0.8300 0.8295 0.8290
2413.992367 0.8247 0.8202 0.8186 0.8171 0.8161
2419.078205 0.8151 0.8150 0.8150 0.8155 0.8160
2424.164043 0.8165 0.8170 0.8170 0.8170 0.8175
2429.249881 0.8180 0.8180 0.8180 0.8180 0.8180
2434.335719 0.8185 0.8190 0.8195 0.8200 0.8200
2439.421557 0.8200 0.8191 0.8181 0.8175 0.8170
2444.507394 0.8151 0.8131 0.8121 0.8110 0.8115
2449.593232 0.8120 0.8129 0.8139 0.8145 0.8150
2454.679070 0.8164 0.8179 0.8185 0.8190 0.8181
2459.764908 0.8171 0.8179 0.8189 0.8199 0.8209
2464.850746 0.8215 0.8220 0.8234 0.8249 0.8274
2469.936583 0.8299 0.8300 0.8300 0.8291 0.8281
2475.022421 0.8285 0.8290 0.8295 0.8300 0.8300
2480.108259 0.8300 0.8309 0.8319 0.8320 0.8320
2485.194097 0.8315 0.8310 0.8301 0.8291 0.8290
2490.279935 0.8290 0.8285 0.8280 0.8285 0.8290
2495.365772 0.8295 0.8300 0.8300 0.8300 0.8300
2500.451610 0.8300 0.8300 0.8300 0.8295 0.8290
2505.537448 0.8285 0.8280 0.8280 0.8280 0.8289
2510.623286 0.8299 0.8300 0.8300 0.8295 0.8290
2515.709124 0.8276 0.8261 0.8251 0.8241 0.8231
2520.794962 0.8221 0.8211 0.8201 0.8200 0.8200
2525.880799 0.8195 0.8190 0.8185 0.8180 0.8161
2530.966637 0.8141 0.8135 0.8130 0.8125 0.8120
2536.052475 0.8115 0.8110 0.8110 0.8110 0.8110
2541.138313 0.8110 0.8101 0.8091 0.8076 0.8061
2546.224151 0.8037 0.8012 0.8001 0.7991 0.7971
2551.309988 0.7951 0.7913 0.7873 0.7861 0.7851
2556.395826 0.7836 0.7821 0.7815 0.7810 0.7778
2561.481664 0.7743 0.7722 0.7702 0.7677 0.7652
2566.567502 0.7618 0.7583 0.7552 0.7522 0.7511
2571.653340 0.7501 0.7472 0.7442 0.7389 0.7334
2576.739177 0.7279 0.7224 0.7197 0.7172 0.7165
2581.825015 0.7160 0.7160 0.7160 0.7178 0.7198
2586.910853 0.7227 0.7257 0.7269 0.7279 0.7294
2591.996691 0.7309 0.7319 0.7329 0.7335 0.7340
2597.082529 0.7345 0.7350 0.7350 0.7350 0.7341
2602.168367 0.7331 0.7325 0.7320 0.7306 0.7291
2607.254204 0.7281 0.7271 0.7238 0.7202 0.7186
2612.340042 0.7171 0.7142 0.7112 0.7101 0.7091
2617.425880 0.7090 0.7090 0.7099 0.7109 0.7138
2622.511718 0.7168 0.7184 0.7199 0.7218 0.7238
2627.597556 0.7267 0.7297 0.7328 0.7358 0.7374
2632.683393 0.7389 0.7395 0.7400 0.7414 0.7429
2637.769231 0.7435 0.7440 0.7463 0.7488 0.7513
2642.855069 0.7538 0.7558 0.7578 0.7594 0.7609
2647.940907 0.7610 0.7610 0.7619 0.7629 0.7630
2653.026745 0.7630 0.7621 0.7611 0.7610 0.7610
2658.112582 0.7610 0.7610 0.7605 0.7600 0.7591
2663.198420 0.7581 0.7566 0.7551 0.7545 0.7540
2668.284258 0.7545 0.7550 0.7550 0.7550 0.7555
2673.370096 0.7560 0.7555 0.7550 0.7532 0.7512
2678.455934 0.7501 0.7491 0.7463 0.7433 0.7398
2683.541772 0.7363 0.7355 0.7350 0.7350 0.7350
2688.627609 0.7355 0.7360 0.7374 0.7389 0.7395
2693.713447 0.7400 0.7405 0.7410 0.7405 0.7400
2698.799285 0.7395 0.7390 0.7381 0.7371 0.7361
2703.885123 0.7351 0.7323 0.7293 0.7267 0.7242
2708.970961 0.7186 0.7126 0.7056 0.6986 0.6875
2714.056798 0.6760 0.6585 0.6406 0.6030 0.5635
2719.142636 0.5600 0.5600 0.5641 0.5686 0.5821
2724.228474 0.5966 0.6129 0.6294 0.6400 0.6500
2729.314312 0.6586 0.6671 0.6734 0.6795 0.6823
2734.400150 0.6848 0.6855 0.6860 0.6865 0.6870
2739.485987 0.6865 0.6860 0.6851 0.6841 0.6826
2744.571825 0.6811 0.6796 0.6782 0.6767 0.6752
2749.657663 0.6732 0.6712 0.6660 0.6605 0.6559
2754.743501 0.6514 0.6442 0.6367 0.6324 0.6284
2759.829339 0.6221 0.6156 0.6114 0.6074 0.6048
2764.915177 0.6023 0.6016 0.6011 0.6006 0.6001
2770.001014 0.6000 0.6000 0.6000 0.6000 0.5995
2775.086852 0.5990 0.5967 0.5942 0.5926 0.5911
2780.172690 0.5865 0.5815 0.5756 0.5696 0.5654
2785.258528 0.5614 0.5556 0.5496 0.5432 0.5367
2790.344366 0.5311 0.5256 0.5205 0.5155 0.5109
2795.430203 0.5064 0.5028 0.4993 0.4954 0.4914
2800.516041 0.4824 0.4730 0.4608 0.4483 0.4345
2805.601879 0.4205 0.4051 0.3897 0.3737 0.3578
2810.687717 0.3409 0.3239 0.3059 0.2877 0.2706
2815.773555 0.2536 0.2398 0.2263 0.2137 0.2013
2820.859392 0.1874 0.1734 0.1626 0.1521 0.1407
2825.945230 0.1292 0.1164 0.1034 0.0900 0.0765
2831.031068 0.0666 0.0571 0.0413 0.0246 0.0149
2836.116906 0.0059 0.0028 0.0003 0.0000 0.0000
2841.202744 0.0000 0.0000 0.0000 0.0000 0.0000
2846.288581 0.0000 0.0000 0.0000 0.0000 0.0000
2851.374419 0.0000 0.0000 0.0000 0.0000 0.0000
2856.460257 0.0000 0.0000 0.0000 0.0000 0.0000
2861.546095 0.0000 0.0000 0.0000 0.0000 0.0000
2866.631933 0.0000 0.0000 0.0000 0.0000 0.0000
2871.717771 0.0000 0.0000 0.0000 0.0000 0.0000
2876.803608 0.0000 0.0000 0.0000 0.0000 0.0000
2881.889446 0.0000 0.0000 0.0000 0.0000 0.0000
2886.975284 0.0000 0.0000 0.0000 0.0000 0.0000
2892.061122 0.0000 0.0000 0.0000 0.0000 0.0000
2897.146960 0.0000 0.0000 0.0000 0.0000 0.0000
2902.232797 0.0000 0.0000 0.0000 0.0000 0.0000
2907.318635 0.0000 0.0000 0.0000 0.0000 0.0000
2912.404473 0.0000 0.0000 0.0000 0.0000 0.0000
2917.490311 0.0000 0.0000 0.0000 0.0000 0.0000
2922.576149 0.0000 0.0000 0.0000 0.0000 0.0000
2927.661986 0.0000 0.0000 0.0000 0.0000 0.0000
2932.747824 0.0000 0.0000 0.0000 0.0000 0.0000
2937.833662 0.0000 0.0000 0.0000 0.0000 0.0000
2942.919500 0.0000 0.0000 0.0000 0.0000 0.0000
2948.005338 0.0000 0.0000 0.0000 0.0000 0.0000
2953.091176 0.0000 0.0000 0.0000 0.0000 0.0000
2958.177013 0.0000 0.0000 0.0000 0.0000 0.0000
2963.262851 0.0000 0.0000 0.0000 0.0000 0.0000
2968.348689 0.0000 0.0000 0.0000 0.0004 0.0009
2973.434527 0.0014 0.0019 0.0020 0.0020 0.0029
2978.520365 0.0039 0.0058 0.0078 0.0168 0.0268
2983.606202 0.0372 0.0477 0.0582 0.0687 0.0796
2988.692040 0.0906 0.1011 0.1116 0.1234 0.1354
2993.777878 0.1465 0.1575 0.1699 0.1825 0.1946
2998.863716 0.2066 0.2194 0.2324 0.2542 0.2772
3003.949554 0.2918 0.3053 0.3135 0.3210 0.3303
3009.035391 0.3398 0.3519 0.3643 0.3760 0.3875
3014.121229 0.3955 0.4030 0.4144 0.4266 0.4372
3019.207067 0.4477 0.4565 0.4649 0.4861 0.5091
3024.292905 0.5181 0.5251 0.5351 0.5456 0.5531
3029.378743 0.5601 0.5675 0.5750 0.5820 0.5890
3034.464581 0.5947 0.6002 0.6058 0.6113 0.6164
3039.550418 0.6214 0.6277 0.6342 0.6420 0.6500
3044.636256 0.6536 0.6566 0.6592 0.6617 0.6659
3049.722094 0.6704 0.6749 0.6794 0.6817 0.6837
3054.807932 0.6861 0.6886 0.6925 0.6965 0.6979
3059.893770 0.6989 0.7034 0.7084 0.7125 0.7165
3064.979607 0.7183 0.7198 0.7213 0.7228 0.7239
3070.065445 0.7249 0.7276 0.7306 0.7319 0.7329
3075.151283 0.7347 0.7367 0.7383 0.7398 0.7409
3080.237121 0.7419 0.7429 0.7439 0.7457 0.7477
3085.322959 0.7489 0.7499 0.7500 0.7500 0.7504
3090.408796 0.7509 0.7523 0.7538 0.7544 0.7549
3095.494634 0.7559 0.7569 0.7579 0.7589 0.7590
3100.580472 0.7590 0.7594 0.7599 0.7600 0.7600
3105.666310 0.7600 0.7600 0.7604 0.7609 0.7619
3110.752148 0.7629 0.7630 0.7630 0.7617 0.7602
3115.837986 0.7600 0.7600 0.7600 0.7600 0.7604
3120.923823 0.7609 0.7614 0.7619 0.7633 0.7648
3126.009661 0.7650 0.7650 0.7637 0.7622 0.7607
3131.095499 0.7592 0.7590 0.7590 0.7590 0.7590
3136.181337 0.7590 0.7590 0.7586 0.7581 0.7571
3141.267175 0.7561 0.7538 0.7513 0.7506 0.7501
3146.353012 0.7491 0.7481 0.7476 0.7471 0.7466
3151.438850 0.7461 0.7460 0.7460 0.7456 0.7451
3156.524688 0.7446 0.7441 0.7427 0.7412 0.7406
3161.610526 0.7401 0.7383 0.7363 0.7351 0.7341
3166.696364 0.7340 0.7340 0.7336 0.7331 0.7326
3171.782201 0.7321 0.7312 0.7302 0.7292 0.7282
3176.868039 0.7280 0.7280 0.7284 0.7289 0.7299
3181.953877 0.7309 0.7327 0.7347 0.7367 0.7387
3187.039715 0.7394 0.7399 0.7417 0.7437 0.7457
3192.125553 0.7477 0.7488 0.7498 0.7521 0.7546
3197.211391 0.7575 0.7605 0.7631 0.7656 0.7703
3202.297228 0.7753 0.7781 0.7806 0.7814 0.7819
3207.383066 0.7833 0.7848 0.7875 0.7905 0.7944
3212.468904 0.7984 0.7994 0.7999 0.8004 0.8009
3217.554742 0.8023 0.8038 0.8048 0.8059 0.8073
3222.640580 0.8088 0.8094 0.8099 0.8104 0.8109
3227.726417 0.8123 0.8138 0.8148 0.8158 0.8168
3232.812255 0.8178 0.8176 0.8171 0.8166 0.8161
3237.898093 0.8160 0.8160 0.8160 0.8160 0.8160
3242.983931 0.8160 0.8160 0.8160 0.8156 0.8151
3248.069769 0.8137 0.8122 0.8107 0.8092 0.8073
3253.155606 0.8053 0.8046 0.8041 0.8032 0.8022
3258.241444 0.8016 0.8011 0.8006 0.8001 0.8000
3263.327282 0.8000 0.8000 0.8000 0.8004 0.8009
3268.413120 0.8018 0.8028 0.8043 0.8058 0.8073
3273.498958 0.8088 0.8098 0.8108 0.8110 0.8110
3278.584795 0.8110 0.8110 0.8110 0.8110 0.8110
3283.670633 0.8110 0.8114 0.8119 0.8120 0.8120
3288.756471 0.8128 0.8138 0.8148 0.8158 0.8156
3293.842309 0.8151 0.8150 0.8150 0.8150 0.8150
3298.928147 0.8150 0.8150 0.8150 0.8150 0.8150
3304.013985 0.8150 0.8146 0.8141 0.8140 0.8140
3309.099822 0.8136 0.8131 0.8122 0.8112 0.8110
3314.185660 0.8110 0.8131 0.8156 0.8168 0.8178
3319.271498 0.8180 0.8180 0.8172 0.8162 0.8156
3324.357336 0.8151 0.8146 0.8141 0.8140 0.8140
3329.443174 0.8140 0.8140 0.8140 0.8140 0.8140
3334.529011 0.8140 0.8140 0.8140 0.8136 0.8131
3339.614849 0.8130 0.8130 0.8126 0.8121 0.8116
3344.700687 0.8111 0.8110 0.8110 0.8110 0.8110
3349.786525 0.8110 0.8110 0.8110 0.8110 0.8110
3354.872363 0.8110 0.8110 0.8110 0.8110 0.8110
3359.958200 0.8110 0.8110 0.8118 0.8128 0.8138
3365.044038 0.8148 0.8150 0.8150 0.8129 0.8104
3370.129876 0.8100 0.8100 0.8104 0.8109 0.8118
3375.215714 0.8128 0.8134 0.8139 0.8144 0.8149
3380.301552 0.8162 0.8177 0.8184 0.8189 0.8198
3385.387390 0.8208 0.8214 0.8219 0.8237 0.8257
3390.473227 0.8277 0.8297 0.8300 0.8300 0.8304
3395.559065 0.8309 0.8310 0.8310 0.8306 0.8301
3400.644903 0.8300 0.8300 0.8300 0.8300 0.8304
3405.730741 0.8309 0.8318 0.8328 0.8334 0.8339
3410.816579 0.8344 0.8349 0.8358 0.8368 0.8370
3415.902416 0.8370 0.8354 0.8334 0.8330 0.8330
3420.988254 0.8330 0.8330 0.8330 0.8330 0.8338
3426.074092 0.8348 0.8350 0.8350 0.8350 0.8350
3431.159930 0.8346 0.8341 0.8344 0.8349 0.8350
3436.245768 0.8350 0.8350 0.8350 0.8346 0.8341
3441.331605 0.8340 0.8340 0.8332 0.8322 0.8320
3446.417443 0.8320 0.8312 0.8302 0.8296 0.8291
3451.503281 0.8290 0.8290 0.8290 0.8290 0.8282
3456.589119 0.8272 0.8262 0.8252 0.8246 0.8241
3461.674957 0.8228 0.8213 0.8198 0.8183 0.8176
3466.760795 0.8171 0.8166 0.8161 0.8156 0.8151
3471.846632 0.8146 0.8141 0.8132 0.8122 0.8120
3476.932470 0.8120 0.8116 0.8111 0.8110 0.8110
3482.018308 0.8110 0.8110 0.8110 0.8110 0.8110
3487.104146 0.8110 0.8118 0.8128 0.8134 0.8139
3492.189984 0.8152 0.8167 0.8178 0.8188 0.8198
3497.275821 0.8208 0.8210 0.8210 0.8214 0.8219
3502.361659 0.8220 0.8220 0.8228 0.8238 0.8240
3507.447497 0.8240 0.8244 0.8249 0.8254 0.8259
3512.533335 0.8264 0.8269 0.8278 0.8288 0.8290
3517.619173 0.8290 0.8278 0.8263 0.8256 0.8251
3522.705010 0.8258 0.8268 0.8270 0.8270 0.8270
3527.790848 0.8270 0.8270 0.8270 0.8274 0.8279
3532.876686 0.8280 0.8280 0.8280 0.8280 0.8280
3537.962524 0.8280 0.8284 0.8289 0.8298 0.8308
3543.048362 0.8314 0.8319 0.8316 0.8311 0.8302
3548.134200 0.8292 0.8286 0.8281 0.8288 0.8298
3553.220037 0.8300 0.8300 0.8304 0.8309 0.8310
3558.305875 0.8310 0.8310 0.8310 0.8314 0.8319
3563.391713 0.8320 0.8320 0.8312 0.8302 0.8304
3568.477551 0.8309 0.8314 0.8319 0.8324 0.8329
3573.563389 0.8330 0.8330 0.8322 0.8312 0.8310
3578.649226 0.8310 0.8310 0.8310 0.8314 0.8319
3583.735064 0.8332 0.8347 0.8354 0.8359 0.8360
3588.820902 0.8360 0.8364 0.8369 0.8370 0.8370
3593.906740 0.8366 0.8361 0.8340 0.8315 0.8318
3598.992578 0.8328 0.8342 0.8357 0.8368 0.8378
3604.078415 0.8380 0.8380 0.8376 0.8371 0.8370
3609.164253 0.8370 0.8370 0.8370 0.8370 0.8370
3614.250091 0.8374 0.8379 0.8376 0.8371 0.8370
3619.335929 0.8370 0.8370 0.8370 0.8362 0.8352
3624.421767 0.8342 0.8332 0.8342 0.8357 0.8364
3629.507605 0.8369 0.8366 0.8361 0.8360 0.8360
3634.593442 0.8360 0.8360 0.8356 0.8351 0.8346
3639.679280 0.8341 0.8348 0.8358 0.8360 0.8360
3644.765118 0.8360 0.8360 0.8360 0.8360 0.8360
3649.850956 0.8360 0.8360 0.8360 0.8352 0.8342
3654.936794 0.8332 0.8322 0.8316 0.8311 0.8318
3660.022631 0.8328 0.8326 0.8321 0.8316 0.8311
3665.108469 0.8310 0.8310 0.8298 0.8283 0.8272
3670.194307 0.8262 0.8260 0.8260 0.8280 0.8305
3675.280145 0.8310 0.8310 0.8306 0.8301 0.8288
3680.365983 0.8273 0.8262 0.8252 0.8250 0.8250
3685.451820 0.8246 0.8241 0.8228 0.8213 0.8210
3690.537658 0.8210 0.8206 0.8201 0.8196 0.8191
3695.623496 0.8182 0.8172 0.8170 0.8170 0.8166
3700.709334 0.8161 0.8160 0.8160 0.8160 0.8160
3705.795172 0.8160 0.8160 0.8156 0.8151 0.8150
3710.881009 0.8150 0.8150 0.8150 0.8150 0.8150
3715.966847 0.8154 0.8159 0.8168 0.8178 0.8180
3721.052685 0.8180 0.8180 0.8180 0.8164 0.8144
3726.138523 0.8140 0.8140 0.8136 0.8131 0.8138
3731.224361 0.8148 0.8146 0.8141 0.8140 0.8140
3736.310199 0.8140 0.8140 0.8128 0.8113 0.8087
3741.396036 0.8057 0.8046 0.8041 0.8032 0.8022
3746.481874 0.8016 0.8011 0.8002 0.7992 0.7982
3751.567712 0.7972 0.7950 0.7925 0.7908 0.7893
3756.653550 0.7882 0.7872 0.7870 0.7870 0.7866
3761.739388 0.7861 0.7860 0.7860 0.7856 0.7851
3766.825225 0.7850 0.7850 0.7850 0.7850 0.7854
3771.911063 0.7859 0.7864 0.7869 0.7874 0.7879
3776.996901 0.7880 0.7880 0.7888 0.7898 0.7904
3782.082739 0.7909 0.7902 0.7892 0.7890 0.7890
3787.168577 0.7890 0.7890 0.7894 0.7899 0.7904
3792.254414 0.7909 0.7918 0.7928 0.7934 0.7939
3797.340252 0.7948 0.7958 0.7968 0.7978 0.7984
3802.426090 0.7989 0.7990 0.7990 0.7990 0.7990
3807.511928 0.7990 0.7990 0.7986 0.7981 0.7972
3812.597766 0.7962 0.7956 0.7951 0.7942 0.7932
3817.683604 0.7930 0.7930 0.7930 0.7930 0.7922
3822.769441 0.7912 0.7902 0.7892 0.7878 0.7864
3827.855279 0.7849 0.7834 0.7815 0.7794 0.7778
3832.941117 0.7763 0.7752 0.7742 0.7736 0.7731
3838.026955 0.7730 0.7730 0.7726 0.7721 0.7716
3843.112793 0.7711 0.7702 0.7692 0.7682 0.7672
3848.198630 0.7670 0.7670 0.7682 0.7697 0.7716
3853.284468 0.7736 0.7756 0.7775 0.7784 0.7789
3858.370306 0.7794 0.7799 0.7804 0.7809 0.7822
3863.456144 0.7836 0.7851 0.7866 0.7878 0.7888
3868.541982 0.7898 0.7908 0.7914 0.7919 0.7920
3873.627819 0.7920 0.7912 0.7902 0.7900 0.7900
3878.713657 0.7919 0.7944 0.7958 0.7968 0.7974
3883.799495 0.7979 0.7984 0.7989 0.7994 0.7999
3888.885333 0.8000 0.8000 0.8004 0.8009 0.8014
3893.971171 0.8019 0.8024 0.8029 0.8030 0.8030
3899.057009 0.8034 0.8039 0.8036 0.8031 0.8026
3904.142846 0.8021 0.8012 0.8002 0.7996 0.7991
3909.228684 0.7986 0.7981 0.7980 0.7980 0.7980
3914.314522 0.7980 0.7980 0.7980 0.7976 0.7971
3919.400360 0.7970 0.7970 0.7970 0.7970 0.7970
3924.486198 0.7970 0.7974 0.7979 0.7984 0.7989
3929.572035 0.7990 0.7990 0.7994 0.7999 0.8000
3934.657873 0.8000 0.8000 0.8000 0.8008 0.8018
3939.743711 0.8028 0.8038 0.8040 0.8040 0.8044
3944.829549 0.8049 0.8054 0.8059 0.8056 0.8051
3949.915387 0.8050 0.8050 0.8050 0.8050 0.8061
3955.001224 0.8076 0.8084 0.8089 0.8094 0.8099
3960.087062 0.8104 0.8109 0.8110 0.8110 0.8114
3965.172900 0.8119 0.8120 0.8120 0.8124 0.8129
3970.258738 0.8134 0.8139 0.8148 0.8158 0.8160
3975.344576 0.8160 0.8156 0.8151 0.8142 0.8132
3980.430414 0.8126 0.8121 0.8116 0.8111 0.8106
3985.516251 0.8101 0.8100 0.8100 0.8096 0.8091
3990.602089 0.8090 0.8090 0.8083 0.8072 0.8070
3995.687927 0.8070
##END=
