##TITLE=ACETIC ACID, CHLORO-, METHYL ESTER
##JCAMP-DX=4.24
##DATA TYPE=INFRARED SPECTRUM
##CLASS=COBLENTZ III
##ORIGIN=DOW CORNING CORP.
##OWNER=COBLENTZ SOCIETY
Collection (C) 2018 copyright by the U.S. Secretary of Commerce
on behalf of the United States of America. All rights reserved.
##DATE=1966/09/13
##NAMES=methyl chloroacetate
##CAS REGISTRY NO=96-34-4
##MOLFORM=C3 H5 Cl O2
##SOURCE REFERENCE=COBLENTZ NO. 4803
##$NIST SOURCE=COBLENTZ
##$NIST IMAGE=cob4803
##SPECTROMETER/DATA SYSTEM=PERKIN-ELMER 521 (GRATING)
##INSTRUMENT PARAMETERS=FILTERS AT 3150, 2500, 2000, 1150, 700, 410; GRATING CHANGES AT 2000, 630 CM^-^1
##STATE=SOLUTION (10% IN CCl4 FOR 3800-1300, 10% IN CS2 FOR 1300-650, 10% IN CCl4 FOR 650-230 CM^-^1) VERSUS SOLVENT
##PATH LENGTH=0.011, 0.010, AND 0.010 CM (CsBr CELL)
$$ 95% PURE
##SAMPLING PROCEDURE=TRANSMISSION
##RESOLUTION=4
##DATA PROCESSING=DIGITIZED BY NIST FROM HARD COPY (FROM TWO SEGMENTS)
##XUNITS=1/CM
##YUNITS=TRANSMITTANCE
##XFACTOR=1.000000
##YFACTOR=1
##DELTAX=0.985761
##FIRSTX=215.772
##LASTX=3790.14
##FIRSTY=0.788
##MAXX=3790.14
##MINX=215.772
##MAXY=0.90095
##MINY=0.009
##NPOINTS=3627
##XYDATA=(X++(Y..Y))
215.772000 0.7880 0.7880 0.7880 0.7880 0.7840
220.700807 0.7830 0.7820 0.7800 0.7790 0.7780
225.629613 0.7760 0.7750 0.7740 0.7720 0.7680
230.558420 0.7670 0.7660 0.7640 0.7620 0.7600
235.487227 0.7590 0.7560 0.7550 0.7540 0.7540
240.416033 0.7520 0.7510 0.7510 0.7500 0.7500
245.344840 0.7480 0.7470 0.7470 0.7440 0.7410
250.273646 0.7390 0.7370 0.7370 0.7360 0.7350
255.202453 0.7330 0.7330 0.7320 0.7310 0.7310
260.131260 0.7290 0.7280 0.7270 0.7270 0.7270
265.060066 0.7250 0.7250 0.7250 0.7240 0.7240
269.988873 0.7230 0.7230 0.7210 0.7200 0.7200
274.917680 0.7190 0.7190 0.7170 0.7170 0.7160
279.846486 0.7150 0.7130 0.7120 0.7120 0.7110
284.775293 0.7110 0.7090 0.7090 0.7080 0.7080
289.704099 0.7070 0.7070 0.7050 0.7050 0.7040
294.632906 0.7030 0.7010 0.7000 0.6990 0.6990
299.561713 0.6970 0.6970 0.6960 0.6960 0.6950
304.490519 0.6950 0.6950 0.6930 0.6930 0.6920
309.419326 0.6920 0.6920 0.6920 0.6930 0.6950
314.348133 0.6970 0.7000 0.7030 0.7070 0.7120
319.276939 0.7240 0.7310 0.7330 0.7370 0.7410
324.205746 0.7450 0.7540 0.7560 0.7590 0.7630
329.134552 0.7670 0.7700 0.7720 0.7740 0.7760
334.063359 0.7820 0.7860 0.7870 0.7900 0.7910
338.992166 0.7920 0.7940 0.7950 0.7950 0.7960
343.920972 0.7960 0.7960 0.7960 0.7960 0.7960
348.849779 0.7960 0.7950 0.7950 0.7950 0.7940
353.778586 0.7940 0.7940 0.7940 0.7940 0.7940
358.707392 0.7940 0.7940 0.7940 0.7920 0.7920
363.636199 0.7920 0.7910 0.7910 0.7910 0.7900
368.565006 0.7900 0.7900 0.7880 0.7880 0.7880
373.493812 0.7870 0.7860 0.7860 0.7840 0.7830
378.422619 0.7790 0.7750 0.7720 0.7710 0.7670
383.351425 0.7630 0.7590 0.7540 0.7400 0.7350
388.280232 0.7210 0.7081 0.7000 0.6920 0.6840
393.209039 0.6770 0.6690 0.6600 0.6590 0.6600
398.137845 0.6770 0.6790 0.6999 0.7080 0.7160
403.066652 0.7280 0.7390 0.7400 0.7410 0.7430
407.995459 0.7430 0.7410 0.7400 0.7360 0.7241
412.924265 0.7160 0.7080 0.7040 0.6970 0.6910
417.853072 0.6840 0.6840 0.6890 0.6950 0.7089
422.781878 0.7190 0.7210 0.7390 0.7550 0.7600
427.710685 0.7620 0.7640 0.7660 0.7670 0.7670
432.639492 0.7680 0.7680 0.7680 0.7680 0.7680
437.568298 0.7670 0.7670 0.7680 0.7680 0.7700
442.497105 0.7710 0.7720 0.7720 0.7740 0.7720
447.425912 0.7740 0.7750 0.7750 0.7760 0.7750
452.354718 0.7750 0.7740 0.7750 0.7750 0.7750
457.283525 0.7750 0.7760 0.7750 0.7760 0.7760
462.212331 0.7760 0.7780 0.7790 0.7800 0.7800
467.141138 0.7820 0.7820 0.7800 0.7790 0.7780
472.069945 0.7760 0.7750 0.7740 0.7620 0.7510
476.998751 0.7480 0.7480 0.7510 0.7629 0.7720
481.927558 0.7790 0.7910 0.7940 0.7960 0.7960
486.856365 0.7960 0.7980 0.7980 0.7990 0.8000
491.785171 0.8000 0.8000 0.8030 0.8040 0.8040
496.713978 0.8060 0.8100 0.8110 0.8120 0.8140
501.642785 0.8150 0.8150 0.8150 0.8160 0.8180
506.571591 0.8200 0.8220 0.8240 0.8270 0.8280
511.500398 0.8300 0.8320 0.8340 0.8350 0.8360
516.429204 0.8360 0.8380 0.8390 0.8390 0.8390
521.358011 0.8400 0.8400 0.8420 0.8420 0.8400
526.286818 0.8400 0.8400 0.8400 0.8390 0.8380
531.215624 0.8380 0.8360 0.8360 0.8360 0.8340
536.144431 0.8340 0.8320 0.8310 0.8300 0.8300
541.073238 0.8280 0.8280 0.8270 0.8270 0.8260
546.002044 0.8230 0.8220 0.8200 0.8160 0.8120
550.930851 0.8100 0.8040 0.8020 0.7950 0.7940
555.859657 0.7840 0.7790 0.7760 0.7631 0.7481
560.788464 0.7320 0.7210 0.7030 0.6870 0.6681
565.717271 0.6521 0.6490 0.6520 0.6570 0.6630
570.646077 0.6680 0.6750 0.6810 0.6850 0.6870
575.574884 0.6880 0.6890 0.6920 0.6930 0.6930
580.503691 0.6960 0.6970 0.6970 0.6990 0.7000
585.432497 0.7030 0.7070 0.7080 0.7130 0.7190
590.361304 0.7270 0.7370 0.7390 0.7440 0.7550
595.290110 0.7590 0.7620 0.7630 0.7660 0.7720
600.218917 0.7760 0.7760 0.7780 0.7790 0.7800
605.147724 0.7800 0.7800 0.7820 0.7830 0.7840
610.076530 0.7870 0.7870 0.7880 0.7900 0.7910
615.005337 0.7940 0.7940 0.7950 0.7980 0.7990
619.934144 0.8020 0.8200 0.8220 0.8220 0.8220
624.862950 0.8220 0.8220 0.8200 0.8200 0.8190
629.791757 0.8190 0.8180 0.8180 0.8160 0.8150
634.720564 0.8150 0.8140 0.8140 0.8140 0.8120
639.649370 0.8120 0.8110 0.8110 0.8110 0.8110
644.578177 0.8100 0.8100 0.8100 0.8100 0.8070
649.506983 0.8040 0.7990 0.7980 0.7950 0.7950
654.435790 0.7940 0.7940 0.7920 0.7920 0.7920
659.364597 0.7920 0.7920 0.7910 0.7910 0.7910
664.293403 0.7900 0.7900 0.7870 0.7830 0.7800
669.222210 0.7780 0.7760 0.7740 0.7740 0.7720
674.151017 0.7710 0.7700 0.7670 0.7620 0.7550
679.079823 0.7450 0.7350 0.7230 0.7110 0.7080
684.008630 0.6990 0.6870 0.6810 0.6790 0.6790
688.937436 0.6760 0.6760 0.6750 0.6750 0.6730
693.866243 0.6730 0.6730 0.6730 0.6720 0.6720
698.795050 0.6720 0.6710 0.6680 0.6650 0.6650
703.723856 0.6640 0.6640 0.6650 0.6680 0.6710
708.652663 0.6730 0.6760 0.6880 0.6890 0.6920
713.581470 0.6950 0.7040 0.7090 0.7229 0.7280
718.510276 0.7350 0.7440 0.7560 0.7630 0.7700
723.439083 0.7710 0.7750 0.7790 0.7860 0.7940
728.367890 0.7950 0.8000 0.8070 0.8080 0.8100
733.296696 0.8120 0.8150 0.8150 0.8160 0.8180
738.225503 0.8180 0.8190 0.8190 0.8190 0.8180
743.154309 0.8180 0.8160 0.8140 0.8110 0.8100
748.083116 0.8070 0.8060 0.8030 0.8020 0.7990
753.011923 0.7980 0.7960 0.7950 0.7940 0.7920
757.940729 0.7910 0.7900 0.7800 0.7790 0.7780
762.869536 0.7760 0.7710 0.7660 0.7600 0.7560
767.798343 0.7500 0.7430 0.7320 0.7190 0.7070
772.727149 0.6970 0.6890 0.6760 0.6571 0.6441
777.655956 0.6270 0.6180 0.5930 0.5740 0.5301
782.584762 0.5180 0.5021 0.4910 0.4791 0.4740
787.513569 0.4690 0.4650 0.4550 0.4420 0.4211
792.442376 0.4110 0.3931 0.3681 0.3391 0.2982
797.371182 0.2980 0.3220 0.3440 0.3540 0.3859
802.299989 0.4249 0.4778 0.5457 0.5719 0.5959
807.228796 0.6350 0.6650 0.6970 0.7329 0.7589
812.157602 0.7640 0.7700 0.7780 0.7899 0.7950
817.086409 0.7980 0.8030 0.8080 0.8150 0.8200
822.015215 0.8240 0.8260 0.8270 0.8310 0.8310
826.944022 0.8320 0.8340 0.8340 0.8340 0.8340
831.872829 0.8340 0.8340 0.8320 0.8320 0.8310
836.801635 0.8280 0.8270 0.8260 0.8260 0.8240
841.730442 0.8220 0.8220 0.8200 0.8190 0.8180
846.659249 0.8160 0.8160 0.8140 0.8110 0.8070
851.588055 0.8020 0.7980 0.7960 0.7920 0.7910
856.516862 0.7910 0.7900 0.7880 0.7880 0.7880
861.445669 0.7870 0.7870 0.7870 0.7860 0.7860
866.374475 0.7860 0.7840 0.7840 0.7820 0.7790
871.303282 0.7750 0.7710 0.7640 0.7620 0.7560
876.232088 0.7480 0.7400 0.7190 0.7070 0.7010
881.160895 0.6950 0.6850 0.6760 0.6680 0.6670
886.089702 0.6680 0.6810 0.6870 0.6990 0.7170
891.018508 0.7469 0.7709 0.7919 0.7990 0.8040
895.947315 0.8060 0.8070 0.8100 0.8110 0.8120
900.876122 0.8140 0.8140 0.8150 0.8160 0.8180
905.804928 0.8180 0.8180 0.8160 0.8150 0.8140
910.733735 0.8110 0.8080 0.8040 0.8000 0.7950
915.662541 0.7920 0.7840 0.7780 0.7750 0.7630
920.591348 0.7500 0.7331 0.7250 0.7091 0.6921
925.520155 0.6710 0.6470 0.6320 0.6290 0.6290
930.448961 0.6350 0.6400 0.6510 0.6610 0.6759
935.377768 0.6770 0.7010 0.7200 0.7390 0.7590
940.306575 0.7759 0.7909 0.7990 0.8099 0.8160
945.235381 0.8230 0.8280 0.8310 0.8340 0.8350
950.164188 0.8360 0.8380 0.8380 0.8380 0.8390
955.092994 0.8390 0.8390 0.8380 0.8380 0.8380
960.021801 0.8360 0.8350 0.8340 0.8320 0.8310
964.950608 0.8310 0.8300 0.8280 0.8270 0.8240
969.879414 0.8160 0.8110 0.8070 0.8040 0.8040
974.808221 0.8030 0.7980 0.7980 0.7960 0.7940
979.737028 0.7880 0.7830 0.7780 0.7700 0.7670
984.665834 0.7580 0.7400 0.7240 0.7170 0.7110
989.594641 0.6931 0.6771 0.6631 0.6521 0.6361
994.523448 0.6200 0.6160 0.6160 0.4973 0.4701
999.452254 0.4391 0.4101 0.3791 0.3482 0.3192
1004.381061 0.2880 0.2540 0.2160 0.2090 0.2030
1009.309867 0.1970 0.1910 0.1830 0.1800 0.1770
1014.238674 0.1750 0.1730 0.1750 0.1770 0.1830
1019.167481 0.1880 0.1960 0.2089 0.2976 0.3676
1024.096287 0.4170 0.4770 0.5170 0.5340 0.5500
1029.025094 0.5979 0.6209 0.6449 0.6530 0.6610
1033.953901 0.6750 0.6810 0.6880 0.6970 0.7040
1038.882707 0.7050 0.7050 0.7080 0.7090 0.7090
1043.811514 0.7090 0.7080 0.7080 0.7070 0.7050
1048.740320 0.7040 0.7030 0.7010 0.7000 0.6990
1053.669127 0.6970 0.6970 0.6960 0.6960 0.6930
1058.597934 0.6930 0.6890 0.6870 0.6800 0.6770
1063.526740 0.6750 0.6680 0.6670 0.6640 0.6630
1068.455547 0.6610 0.6600 0.6590 0.6570 0.6560
1073.384354 0.6560 0.6560 0.6570 0.6590 0.6610
1078.313160 0.6710 0.6790 0.6840 0.6850 0.6850
1083.241967 0.6870 0.6870 0.6880 0.6910 0.6910
1088.170773 0.6920 0.6920 0.6930 0.6930 0.6930
1093.099580 0.6930 0.6930 0.6920 0.6910 0.6910
1098.028387 0.6890 0.6880 0.6850 0.6830 0.6810
1102.957193 0.6800 0.6770 0.6750 0.6730 0.6680
1107.886000 0.6670 0.6630 0.6481 0.6410 0.6400
1112.814807 0.6370 0.6310 0.6280 0.6210 0.6160
1117.743613 0.6050 0.6010 0.5960 0.5741 0.5491
1122.672420 0.5410 0.5260 0.5170 0.5050 0.5000
1127.601227 0.4830 0.4700 0.4461 0.4271 0.4051
1132.530033 0.3950 0.3870 0.3700 0.3550 0.3440
1137.458840 0.3221 0.3110 0.3040 0.2662 0.2521
1142.387646 0.2440 0.2400 0.2370 0.2310 0.2280
1147.316453 0.2270 0.2240 0.2230 0.2210 0.2160
1152.245260 0.2070 0.1950 0.1910 0.1880 0.1810
1157.174066 0.1650 0.1570 0.1550 0.1440 0.1251
1162.102873 0.1100 0.0880 0.0720 0.0650 0.0580
1167.031680 0.0530 0.0480 0.0450 0.0440 0.0440
1171.960486 0.0450 0.0480 0.0500 0.0530 0.0570
1176.889293 0.0600 0.0620 0.0759 0.0959 0.0970
1181.818099 0.1020 0.1060 0.1080 0.1100 0.1120
1186.746906 0.1120 0.1100 0.1050 0.0960 0.0851
1191.675713 0.0760 0.0730 0.0720 0.0700 0.0700
1196.604519 0.0720 0.0730 0.0770 0.0820 0.0850
1201.533326 0.0900 0.0960 0.1010 0.1050 0.1170
1206.462133 0.1280 0.1430 0.1599 0.1789 0.1969
1211.390939 0.2160 0.2350 0.2480 0.2590 0.2780
1216.319746 0.2940 0.3159 0.3240 0.3340 0.3658
1221.248552 0.3810 0.3890 0.3950 0.4090 0.4130
1226.177359 0.4170 0.4180 0.4190 0.4190 0.4190
1231.106166 0.4180 0.4170 0.4150 0.4130 0.4100
1236.034972 0.4030 0.4010 0.3950 0.3870 0.3830
1240.963779 0.3660 0.3580 0.3540 0.3470 0.3380
1245.892586 0.3220 0.3160 0.3120 0.3001 0.2940
1250.821392 0.2790 0.2630 0.2430 0.2320 0.2190
1255.750199 0.2050 0.1960 0.1920 0.1910 0.1910
1260.679006 0.1920 0.1930 0.1960 0.1990 0.2010
1265.607812 0.2030 0.2040 0.2040 0.2030 0.1970
1270.536619 0.1920 0.1910 0.1840 0.1810 0.1730
1275.465425 0.1680 0.1590 0.1520 0.1450 0.1410
1280.394232 0.1280 0.1250 0.1200 0.1130 0.1090
1285.323039 0.1020 0.0900 0.0810 0.0780 0.0770
1290.251845 0.0700 0.0700 0.0690 0.0690 0.0690
1295.180652 0.0690 0.0690 0.0690 0.0690 0.0660
1300.109459 0.0580 0.0570 0.0560 0.0540 0.0520
1305.038265 0.0500 0.0480 0.0450 0.0410 0.0380
1309.967072 0.0380 0.0370 0.0370 0.0380 0.0420
1314.895878 0.0450 0.0500 0.0560 0.0889 0.0980
1319.824685 0.1080 0.1520 0.1879 0.2149 0.2409
1324.753492 0.2699 0.2989 0.3179 0.3389 0.3619
1329.682298 0.3750 0.4150 0.4510 0.4570 0.4770
1334.611105 0.4950 0.5169 0.5260 0.5360 0.5450
1339.539912 0.5530 0.5600 0.5730 0.5820 0.5980
1344.468718 0.6010 0.6050 0.6090 0.6140 0.6239
1349.397525 0.6290 0.6410 0.6600 0.6670 0.6710
1354.326331 0.6730 0.6760 0.6790 0.6870 0.6910
1359.255138 0.6930 0.6930 0.6950 0.6950 0.6960
1364.183945 0.6960 0.6960 0.6960 0.6960 0.6960
1369.112751 0.6960 0.6960 0.6960 0.6970 0.6970
1374.041558 0.6970 0.6970 0.6970 0.6970 0.6970
1378.970365 0.6970 0.6970 0.6970 0.6970 0.6970
1383.899171 0.6970 0.6970 0.6970 0.6970 0.6960
1388.827978 0.6960 0.6950 0.6930 0.6920 0.6910
1393.756785 0.6880 0.6870 0.6840 0.6810 0.6800
1398.685591 0.6790 0.6710 0.6630 0.6510 0.6430
1403.614398 0.6310 0.6220 0.6160 0.6011 0.5741
1408.543204 0.5360 0.4890 0.4580 0.4231 0.3821
1413.472011 0.3670 0.3481 0.3301 0.3111 0.3080
1418.400818 0.3120 0.3310 0.3640 0.4249 0.4290
1423.329624 0.4410 0.4510 0.4689 0.4710 0.4700
1428.258431 0.4650 0.4570 0.4470 0.4330 0.4091
1433.187238 0.3831 0.3541 0.3122 0.1996 0.1523
1438.116044 0.0850 0.0570 0.0570 0.0820 0.1020
1443.044851 0.1209 0.1559 0.1879 0.2547 0.2799
1447.973657 0.3060 0.3140 0.3400 0.3659 0.3850
1452.902464 0.3980 0.4050 0.4110 0.4170 0.4250
1457.831271 0.4290 0.4350 0.4450 0.4550 0.4849
1462.760077 0.4970 0.5130 0.5299 0.5449 0.5579
1467.688884 0.5800 0.5960 0.6020 0.6309 0.6440
1472.617691 0.6600 0.6640 0.6710 0.6770 0.6850
1477.546497 0.6950 0.7000 0.7050 0.7090 0.7160
1482.475304 0.7230 0.7250 0.7290 0.7320 0.7350
1487.404110 0.7350 0.7360 0.7370 0.7370 0.7390
1492.332917 0.7390 0.7400 0.7400 0.7410 0.7430
1497.261724 0.7430 0.7440 0.7450 0.7500 0.7540
1502.190530 0.7580 0.7600 0.7620 0.7660 0.7670
1507.119337 0.7670 0.7680 0.7700 0.7710 0.7710
1512.048144 0.7740 0.7750 0.7750 0.7750 0.7760
1516.976950 0.7760 0.7760 0.7760 0.7780 0.7780
1521.905757 0.7780 0.7760 0.7760 0.7760 0.7760
1526.834564 0.7780 0.7780 0.7780 0.7780 0.7780
1531.763370 0.7790 0.7800 0.7800 0.7820 0.7820
1536.692177 0.7830 0.7830 0.7830 0.7830 0.7830
1541.620983 0.7820 0.7820 0.7800 0.7800 0.7790
1546.549790 0.7780 0.7760 0.7750 0.7750 0.7750
1551.478597 0.7740 0.7740 0.7740 0.7720 0.7710
1556.407403 0.7710 0.7700 0.7680 0.7680 0.7680
1561.336210 0.7670 0.7660 0.7660 0.7660 0.7660
1566.265017 0.7660 0.7670 0.7670 0.7670 0.7670
1571.193823 0.7700 0.7710 0.7710 0.7710 0.7720
1576.122630 0.7720 0.7720 0.7750 0.7750 0.7760
1581.051436 0.7760 0.7750 0.7750 0.7750 0.7720
1585.980243 0.7720 0.7720 0.7710 0.7710 0.7710
1590.909050 0.7700 0.7700 0.7680 0.7680 0.7680
1595.837856 0.7680 0.7670 0.7670 0.7670 0.7670
1600.766663 0.7670 0.7680 0.7680 0.7680 0.7680
1605.695470 0.7680 0.7680 0.7680 0.7680 0.7700
1610.624276 0.7710 0.7710 0.7720 0.7740 0.7740
1615.553083 0.7750 0.7750 0.7750 0.7750 0.7760
1620.481890 0.7780 0.7780 0.7790 0.7790 0.7790
1625.410696 0.7790 0.7790 0.7790 0.7790 0.7800
1630.339503 0.7800 0.7800 0.7800 0.7800 0.7800
1635.268309 0.7790 0.7790 0.7780 0.7780 0.7780
1640.197116 0.7790 0.7790 0.7790 0.7780 0.7780
1645.125923 0.7780 0.7780 0.7780 0.7760 0.7760
1650.054729 0.7750 0.7750 0.7740 0.7740 0.7720
1654.983536 0.7720 0.7710 0.7680 0.7670 0.7660
1659.912343 0.7640 0.7640 0.7630 0.7630 0.7620
1664.841149 0.7620 0.7600 0.7590 0.7580 0.7560
1669.769956 0.7550 0.7520 0.7500 0.7470 0.7430
1674.698762 0.7400 0.7370 0.7290 0.7250 0.7240
1679.627569 0.7230 0.7200 0.7190 0.7130 0.7110
1684.556376 0.7050 0.6950 0.6920 0.6910 0.6910
1689.485182 0.6890 0.6790 0.6710 0.6630 0.6590
1694.413989 0.6480 0.6450 0.6370 0.6310 0.6220
1699.342796 0.6060 0.5881 0.5840 0.5740 0.5481
1704.271602 0.5410 0.5340 0.5240 0.5120 0.5000
1709.200409 0.4940 0.4781 0.4661 0.4421 0.4350
1714.129215 0.4250 0.4140 0.4050 0.3890 0.3780
1719.058022 0.3720 0.3630 0.3381 0.3041 0.2881
1723.986829 0.2790 0.2620 0.2400 0.2270 0.2170
1728.915635 0.1991 0.1880 0.1521 0.1351 0.1171
1733.844442 0.0780 0.0640 0.0540 0.0400 0.0320
1738.773249 0.0210 0.0160 0.0130 0.0130 0.0120
1743.702055 0.0100 0.0100 0.0100 0.0090 0.0090
1748.630862 0.0090 0.0090 0.0090 0.0100 0.0100
1753.559669 0.0100 0.0120 0.0120 0.0130 0.0130
1758.488475 0.0130 0.0140 0.0140 0.0140 0.0160
1763.417282 0.0160 0.0160 0.0160 0.0160 0.0160
1768.346088 0.0170 0.0170 0.0170 0.0180 0.0180
1773.274895 0.0200 0.0210 0.0210 0.0220 0.0220
1778.203702 0.0240 0.0250 0.0320 0.0400 0.0619
1783.132508 0.0960 0.1080 0.1200 0.1589 0.1949
1788.061315 0.2548 0.2789 0.3029 0.3597 0.4057
1792.990122 0.4210 0.4390 0.4530 0.4830 0.5060
1797.918928 0.5120 0.5329 0.5420 0.5520 0.5739
1802.847735 0.5940 0.6100 0.6130 0.6270 0.6330
1807.776541 0.6450 0.6590 0.6600 0.6670 0.6760
1812.705348 0.6850 0.6930 0.7010 0.7080 0.7130
1817.634155 0.7190 0.7230 0.7230 0.7270 0.7360
1822.562961 0.7440 0.7450 0.7500 0.7520 0.7560
1827.491768 0.7580 0.7590 0.7620 0.7630 0.7670
1832.420575 0.7740 0.7760 0.7780 0.7800 0.7820
1837.349381 0.7830 0.7870 0.7940 0.7940 0.7950
1842.278188 0.7960 0.7960 0.7980 0.7990 0.7990
1847.206994 0.8000 0.8000 0.8020 0.8020 0.8020
1852.135801 0.8020 0.8030 0.8030 0.8030 0.8030
1857.064608 0.8030 0.8040 0.8040 0.8040 0.8040
1861.993414 0.8060 0.8060 0.8060 0.8060 0.8060
1866.922221 0.8060 0.8060 0.8060 0.8060 0.8060
1871.851028 0.8040 0.8040 0.8040 0.8040 0.8040
1876.779834 0.8040 0.8060 0.8060 0.8070 0.8070
1881.708641 0.8070 0.8080 0.8080 0.8080 0.8110
1886.637448 0.8120 0.8140 0.8150 0.8160 0.8200
1891.566254 0.8230 0.8260 0.8300 0.8310 0.8320
1896.495061 0.8340 0.8350 0.8350 0.8360 0.8360
1901.423867 0.8360 0.8380 0.8380 0.8380 0.8390
1906.352674 0.8390 0.8380 0.8380 0.8380 0.8380
1911.281481 0.8380 0.8390 0.8390 0.8390 0.8390
1916.210287 0.8390 0.8390 0.8390 0.8390 0.8390
1921.139094 0.8390 0.8400 0.8400 0.8400 0.8400
1926.067901 0.8400 0.8400 0.8400 0.8400 0.8400
1930.996707 0.8400 0.8400 0.8400 0.8400 0.8400
1935.925514 0.8400 0.8390 0.8380 0.8380 0.8360
1940.854320 0.8360 0.8360 0.8360 0.8350 0.8350
1945.783127 0.8350 0.8350 0.8350 0.8350 0.8340
1950.711934 0.8340 0.8320 0.8310 0.8310 0.8310
1955.640740 0.8310 0.8300 0.8300 0.8280 0.8280
1960.569547 0.8280 0.8270 0.8270 0.8270 0.8270
1965.498354 0.8260 0.8240 0.8240 0.8260 0.8240
1970.427160 0.8240 0.8240 0.8240 0.8240 0.8240
1975.355967 0.8240 0.8230 0.8230 0.8230 0.8230
1980.284773 0.8230 0.8230 0.8220 0.8220 0.8200
1985.213580 0.8200 0.8200 0.8220 0.8220 0.8220
1990.142387 0.8230 0.8230 0.8240 0.8240 0.8260
1995.071193 0.8270 0.8270 0.8300 0.8310 0.8340
2000.000000 0.8360 0.8375 0.8390 0.8395 0.8400
2004.928807 0.8415 0.8430 0.8445 0.8460 0.8460
2009.857613 0.8460 0.8465 0.8470 0.8470 0.8470
2014.786420 0.8470 0.8470 0.8470 0.8470 0.8470
2019.715227 0.8470 0.8470 0.8470 0.8470 0.8470
2024.644033 0.8475 0.8480 0.8475 0.8470 0.8470
2029.572840 0.8470 0.8470 0.8470 0.8470 0.8470
2034.501646 0.8475 0.8480 0.8480 0.8480 0.8480
2039.430453 0.8480 0.8480 0.8480 0.8475 0.8470
2044.359260 0.8465 0.8460 0.8460 0.8460 0.8460
2049.288066 0.8460 0.8460 0.8460 0.8460 0.8460
2054.216873 0.8460 0.8460 0.8460 0.8460 0.8460
2059.145680 0.8460 0.8460 0.8460 0.8460 0.8460
2064.074486 0.8460 0.8460 0.8460 0.8461 0.8466
2069.003293 0.8470 0.8470 0.8470 0.8470 0.8470
2073.932099 0.8470 0.8470 0.8470 0.8471 0.8476
2078.860906 0.8480 0.8480 0.8482 0.8492 0.8501
2083.789713 0.8506 0.8510 0.8510 0.8510 0.8510
2088.718519 0.8511 0.8516 0.8522 0.8532 0.8541
2093.647326 0.8546 0.8550 0.8550 0.8549 0.8544
2098.576133 0.8541 0.8546 0.8553 0.8568 0.8581
2103.504939 0.8586 0.8590 0.8590 0.8590 0.8590
2108.433746 0.8590 0.8590 0.8590 0.8590 0.8590
2113.362552 0.8590 0.8590 0.8590 0.8590 0.8590
2118.291359 0.8590 0.8590 0.8590 0.8590 0.8590
2123.220166 0.8590 0.8590 0.8590 0.8590 0.8590
2128.148972 0.8589 0.8584 0.8580 0.8580 0.8580
2133.077779 0.8580 0.8580 0.8580 0.8577 0.8567
2138.006586 0.8560 0.8560 0.8560 0.8560 0.8560
2142.935392 0.8560 0.8563 0.8573 0.8580 0.8580
2147.864199 0.8580 0.8580 0.8580 0.8580 0.8580
2152.793006 0.8580 0.8582 0.8587 0.8590 0.8590
2157.721812 0.8590 0.8590 0.8592 0.8597 0.8604
2162.650619 0.8614 0.8620 0.8620 0.8616 0.8606
2167.579425 0.8604 0.8614 0.8620 0.8620 0.8620
2172.508232 0.8620 0.8620 0.8620 0.8620 0.8620
2177.437039 0.8620 0.8620 0.8622 0.8627 0.8630
2182.365845 0.8630 0.8630 0.8630 0.8628 0.8623
2187.294652 0.8622 0.8627 0.8630 0.8630 0.8636
2192.223459 0.8651 0.8660 0.8660 0.8662 0.8667
2197.152265 0.8670 0.8670 0.8677 0.8692 0.8700
2202.081072 0.8700 0.8702 0.8707 0.8710 0.8710
2207.009878 0.8712 0.8717 0.8720 0.8720 0.8725
2211.938685 0.8735 0.8740 0.8740 0.8740 0.8740
2216.867492 0.8740 0.8740 0.8740 0.8740 0.8740
2221.796298 0.8740 0.8740 0.8740 0.8740 0.8740
2226.725105 0.8742 0.8747 0.8750 0.8750 0.8750
2231.653912 0.8750 0.8748 0.8742 0.8740 0.8740
2236.582718 0.8740 0.8740 0.8740 0.8740 0.8743
2241.511525 0.8748 0.8750 0.8750 0.8750 0.8750
2246.440331 0.8750 0.8750 0.8750 0.8750 0.8750
2251.369138 0.8750 0.8750 0.8750 0.8747 0.8742
2256.297945 0.8740 0.8740 0.8740 0.8740 0.8740
2261.226751 0.8740 0.8740 0.8740 0.8740 0.8740
2266.155558 0.8740 0.8740 0.8740 0.8740 0.8740
2271.084365 0.8740 0.8740 0.8740 0.8740 0.8740
2276.013171 0.8740 0.8740 0.8740 0.8740 0.8734
2280.941978 0.8724 0.8720 0.8720 0.8717 0.8712
2285.870785 0.8710 0.8710 0.8710 0.8710 0.8710
2290.799591 0.8710 0.8710 0.8710 0.8710 0.8710
2295.728398 0.8710 0.8710 0.8710 0.8710 0.8710
2300.657204 0.8710 0.8710 0.8710 0.8710 0.8710
2305.586011 0.8710 0.8710 0.8710 0.8710 0.8713
2310.514818 0.8718 0.8720 0.8720 0.8727 0.8737
2315.443624 0.8740 0.8740 0.8740 0.8740 0.8740
2320.372431 0.8740 0.8733 0.8723 0.8727 0.8737
2325.301238 0.8740 0.8740 0.8740 0.8740 0.8740
2330.230044 0.8740 0.8740 0.8740 0.8740 0.8740
2335.158851 0.8740 0.8740 0.8744 0.8749 0.8750
2340.087657 0.8750 0.8750 0.8750 0.8750 0.8750
2345.016464 0.8746 0.8741 0.8740 0.8740 0.8740
2349.945271 0.8740 0.8740 0.8740 0.8740 0.8740
2354.874077 0.8744 0.8749 0.8758 0.8768 0.8762
2359.802884 0.8752 0.8750 0.8750 0.8750 0.8750
2364.731691 0.8746 0.8741 0.8728 0.8713 0.8706
2369.660497 0.8701 0.8700 0.8700 0.8692 0.8682
2374.589304 0.8676 0.8671 0.8670 0.8670 0.8657
2379.518110 0.8642 0.8632 0.8622 0.8620 0.8620
2384.446917 0.8612 0.8602 0.8600 0.8600 0.8600
2389.375724 0.8600 0.8600 0.8600 0.8596 0.8591
2394.304530 0.8590 0.8590 0.8590 0.8590 0.8590
2399.233337 0.8590 0.8590 0.8590 0.8590 0.8590
2404.162144 0.8590 0.8590 0.8590 0.8590 0.8590
2409.090950 0.8590 0.8590 0.8590 0.8590 0.8590
2414.019757 0.8590 0.8590 0.8590 0.8590 0.8585
2418.948564 0.8580 0.8580 0.8580 0.8580 0.8580
2423.877370 0.8571 0.8561 0.8560 0.8560 0.8560
2428.806177 0.8560 0.8560 0.8560 0.8555 0.8550
2433.734983 0.8550 0.8550 0.8550 0.8550 0.8550
2438.663790 0.8550 0.8545 0.8540 0.8540 0.8540
2443.592597 0.8540 0.8540 0.8540 0.8540 0.8540
2448.521403 0.8540 0.8545 0.8550 0.8550 0.8550
2453.450210 0.8550 0.8550 0.8550 0.8550 0.8545
2458.379017 0.8540 0.8540 0.8540 0.8540 0.8540
2463.307823 0.8540 0.8540 0.8540 0.8540 0.8530
2468.236630 0.8520 0.8520 0.8520 0.8520 0.8520
2473.165436 0.8515 0.8509 0.8494 0.8480 0.8475
2478.094243 0.8470 0.8465 0.8459 0.8449 0.8440
2483.023050 0.8435 0.8430 0.8430 0.8430 0.8430
2487.951856 0.8430 0.8430 0.8430 0.8430 0.8430
2492.880663 0.8430 0.8430 0.8430 0.8430 0.8430
2497.809470 0.8430 0.8436 0.8440 0.8440 0.8439
2502.738276 0.8434 0.8430 0.8430 0.8430 0.8430
2507.667083 0.8430 0.8430 0.8430 0.8430 0.8430
2512.595890 0.8430 0.8430 0.8430 0.8430 0.8430
2517.524696 0.8430 0.8430 0.8430 0.8430 0.8429
2522.453503 0.8424 0.8420 0.8420 0.8420 0.8420
2527.382309 0.8420 0.8420 0.8418 0.8408 0.8400
2532.311116 0.8400 0.8400 0.8400 0.8400 0.8400
2537.239923 0.8400 0.8400 0.8400 0.8400 0.8400
2542.168729 0.8400 0.8400 0.8400 0.8402 0.8412
2547.097536 0.8420 0.8420 0.8418 0.8408 0.8400
2552.026343 0.8400 0.8400 0.8400 0.8399 0.8394
2556.955149 0.8390 0.8390 0.8389 0.8384 0.8380
2561.883956 0.8380 0.8381 0.8386 0.8390 0.8390
2566.812762 0.8389 0.8384 0.8380 0.8380 0.8377
2571.741569 0.8367 0.8360 0.8360 0.8360 0.8360
2576.670376 0.8360 0.8360 0.8360 0.8360 0.8360
2581.599182 0.8360 0.8360 0.8360 0.8360 0.8360
2586.527989 0.8360 0.8360 0.8363 0.8373 0.8380
2591.456796 0.8380 0.8380 0.8380 0.8380 0.8380
2596.385602 0.8380 0.8380 0.8382 0.8387 0.8390
2601.314409 0.8390 0.8390 0.8390 0.8390 0.8390
2606.243215 0.8390 0.8390 0.8390 0.8390 0.8390
2611.172022 0.8390 0.8390 0.8390 0.8390 0.8390
2616.100829 0.8390 0.8390 0.8390 0.8390 0.8392
2621.029635 0.8397 0.8398 0.8393 0.8390 0.8390
2625.958442 0.8390 0.8390 0.8390 0.8390 0.8390
2630.887249 0.8390 0.8390 0.8390 0.8390 0.8390
2635.816055 0.8392 0.8397 0.8400 0.8400 0.8400
2640.744862 0.8400 0.8400 0.8400 0.8398 0.8393
2645.673669 0.8390 0.8390 0.8390 0.8390 0.8390
2650.602475 0.8390 0.8390 0.8390 0.8390 0.8390
2655.531282 0.8390 0.8390 0.8392 0.8397 0.8398
2660.460088 0.8393 0.8392 0.8397 0.8398 0.8393
2665.388895 0.8390 0.8390 0.8390 0.8390 0.8390
2670.317702 0.8390 0.8390 0.8390 0.8390 0.8390
2675.246508 0.8390 0.8390 0.8390 0.8390 0.8390
2680.175315 0.8390 0.8390 0.8390 0.8390 0.8390
2685.104122 0.8390 0.8390 0.8393 0.8398 0.8400
2690.032928 0.8400 0.8405 0.8415 0.8420 0.8420
2694.961735 0.8420 0.8420 0.8420 0.8420 0.8423
2699.890541 0.8428 0.8430 0.8430 0.8427 0.8422
2704.819348 0.8420 0.8420 0.8420 0.8420 0.8420
2709.748155 0.8420 0.8420 0.8420 0.8423 0.8428
2714.676961 0.8430 0.8430 0.8430 0.8430 0.8430
2719.605768 0.8430 0.8430 0.8430 0.8430 0.8430
2724.534575 0.8430 0.8430 0.8433 0.8438 0.8440
2729.463381 0.8440 0.8440 0.8440 0.8437 0.8432
2734.392188 0.8430 0.8430 0.8430 0.8430 0.8430
2739.320994 0.8430 0.8430 0.8430 0.8430 0.8430
2744.249801 0.8427 0.8422 0.8420 0.8420 0.8420
2749.178608 0.8420 0.8413 0.8403 0.8400 0.8400
2754.107414 0.8400 0.8400 0.8397 0.8392 0.8390
2759.036221 0.8390 0.8380 0.8365 0.8360 0.8360
2763.965028 0.8360 0.8360 0.8357 0.8351 0.8350
2768.893834 0.8350 0.8346 0.8341 0.8340 0.8340
2773.822641 0.8333 0.8323 0.8320 0.8320 0.8316
2778.751448 0.8311 0.8296 0.8276 0.8259 0.8244
2783.680254 0.8236 0.8231 0.8230 0.8230 0.8226
2788.609061 0.8221 0.8220 0.8220 0.8220 0.8220
2793.537867 0.8212 0.8202 0.8200 0.8200 0.8192
2798.466674 0.8182 0.8172 0.8162 0.8152 0.8142
2803.395481 0.8132 0.8122 0.8116 0.8111 0.8110
2808.324287 0.8110 0.8098 0.8083 0.8076 0.8071
2813.253094 0.8066 0.8061 0.8060 0.8060 0.8052
2818.181901 0.8042 0.8032 0.8022 0.7996 0.7966
2823.110707 0.7956 0.7951 0.7946 0.7941 0.7915
2828.039514 0.7885 0.7855 0.7825 0.7791 0.7755
2832.968320 0.7720 0.7685 0.7663 0.7643 0.7521
2837.897127 0.7381 0.7254 0.7129 0.7093 0.7073
2842.825934 0.6989 0.6894 0.6880 0.6880 0.6964
2847.754740 0.7059 0.7114 0.7164 0.7219 0.7274
2852.683547 0.7400 0.7535 0.7586 0.7626 0.7648
2857.612354 0.7668 0.7674 0.7679 0.7680 0.7680
2862.541160 0.7676 0.7671 0.7670 0.7670 0.7665
2867.469967 0.7660 0.7651 0.7641 0.7635 0.7630
2872.398773 0.7625 0.7620 0.7606 0.7591 0.7567
2877.327580 0.7542 0.7507 0.7472 0.7456 0.7441
2882.256387 0.7421 0.7401 0.7362 0.7321 0.7286
2887.185193 0.7251 0.7240 0.7230 0.7211 0.7191
2892.114000 0.7175 0.7160 0.7160 0.7160 0.7155
2897.042807 0.7150 0.7150 0.7150 0.7140 0.7130
2901.971613 0.7130 0.7130 0.7140 0.7150 0.7150
2906.900420 0.7150 0.7155 0.7160 0.7160 0.7160
2911.829227 0.7160 0.7160 0.7155 0.7150 0.7150
2916.758033 0.7150 0.7135 0.7120 0.7105 0.7090
2921.686840 0.7080 0.7069 0.7033 0.6997 0.6942
2926.615646 0.6888 0.6848 0.6809 0.6783 0.6757
2931.544453 0.6702 0.6646 0.6586 0.6528 0.6498
2936.473260 0.6469 0.6449 0.6420 0.6275 0.6130
2941.402066 0.5990 0.5839 0.5550 0.5276 0.5136
2946.330873 0.4973 0.4602 0.4224 0.3779 0.3353
2951.259680 0.3092 0.2827 0.2522 0.2250 0.2250
2956.188486 0.2284 0.2589 0.2881 0.3066 0.3263
2961.117293 0.3543 0.3823 0.4101 0.4404 0.4855
2966.046099 0.5260 0.5400 0.5539 0.5669 0.5810
2970.974906 0.6010 0.6190 0.6255 0.6315 0.6345
2975.903713 0.6372 0.6387 0.6401 0.6406 0.6412
2980.832519 0.6422 0.6428 0.6418 0.6406 0.6386
2985.761326 0.6368 0.6358 0.6330 0.6225 0.6136
2990.690133 0.6116 0.6084 0.6004 0.5932 0.5892
2995.618939 0.5823 0.5638 0.5474 0.5394 0.5307
3000.547746 0.5192 0.5100 0.5100 0.5128 0.5248
3005.476552 0.5353 0.5408 0.5461 0.5506 0.5544
3010.405359 0.5559 0.5588 0.5663 0.5744 0.5844
3015.334166 0.5932 0.5982 0.6033 0.6089 0.6131
3020.262972 0.6136 0.6144 0.6159 0.6170 0.6170
3025.191779 0.6171 0.6176 0.6183 0.6193 0.6201
3030.120586 0.6206 0.6214 0.6229 0.6261 0.6336
3035.049392 0.6401 0.6442 0.6489 0.6554 0.6623
3039.978199 0.6703 0.6796 0.6917 0.7011 0.7046
3044.907006 0.7080 0.7110 0.7140 0.7170 0.7196
3049.835812 0.7217 0.7243 0.7283 0.7318 0.7343
3054.764619 0.7368 0.7393 0.7420 0.7450 0.7477
3059.693425 0.7497 0.7517 0.7537 0.7552 0.7557
3064.622232 0.7560 0.7560 0.7564 0.7574 0.7580
3069.551039 0.7580 0.7584 0.7594 0.7604 0.7614
3074.479845 0.7622 0.7627 0.7632 0.7637 0.7640
3079.408652 0.7640 0.7640 0.7640 0.7644 0.7654
3084.337459 0.7660 0.7660 0.7660 0.7660 0.7660
3089.266265 0.7660 0.7662 0.7667 0.7672 0.7677
3094.195072 0.7686 0.7701 0.7712 0.7717 0.7724
3099.123878 0.7734 0.7740 0.7740 0.7740 0.7740
3104.052685 0.7742 0.7747 0.7750 0.7750 0.7750
3108.981492 0.7750 0.7750 0.7750 0.7750 0.7750
3113.910298 0.7750 0.7750 0.7750 0.7750 0.7750
3118.839105 0.7750 0.7750 0.7750 0.7750 0.7750
3123.767912 0.7748 0.7743 0.7740 0.7740 0.7740
3128.696718 0.7740 0.7740 0.7740 0.7740 0.7740
3133.625525 0.7735 0.7725 0.7720 0.7720 0.7720
3138.554331 0.7720 0.7720 0.7720 0.7717 0.7712
3143.483138 0.7710 0.7710 0.7710 0.7710 0.7710
3148.411945 0.7710 0.7710 0.7710 0.7710 0.7710
3153.340751 0.7710 0.7710 0.7710 0.7710 0.7710
3158.269558 0.7710 0.7710 0.7710 0.7710 0.7710
3163.198365 0.7710 0.7710 0.7710 0.7710 0.7707
3168.127171 0.7702 0.7700 0.7700 0.7700 0.7700
3173.055978 0.7700 0.7700 0.7700 0.7700 0.7700
3177.984785 0.7700 0.7700 0.7700 0.7700 0.7700
3182.913591 0.7700 0.7700 0.7700 0.7700 0.7700
3187.842398 0.7700 0.7700 0.7700 0.7700 0.7700
3192.771204 0.7700 0.7700 0.7700 0.7700 0.7703
3197.700011 0.7708 0.7710 0.7710 0.7710 0.7710
3202.628818 0.7710 0.7710 0.7710 0.7710 0.7707
3207.557624 0.7702 0.7700 0.7700 0.7700 0.7700
3212.486431 0.7700 0.7700 0.7700 0.7700 0.7700
3217.415238 0.7700 0.7700 0.7700 0.7700 0.7700
3222.344044 0.7700 0.7700 0.7700 0.7700 0.7700
3227.272851 0.7700 0.7700 0.7700 0.7700 0.7700
3232.201657 0.7700 0.7700 0.7700 0.7700 0.7693
3237.130464 0.7683 0.7680 0.7680 0.7688 0.7698
3242.059271 0.7700 0.7700 0.7700 0.7700 0.7700
3246.988077 0.7700 0.7700 0.7700 0.7700 0.7700
3251.916884 0.7700 0.7700 0.7700 0.7700 0.7700
3256.845691 0.7700 0.7700 0.7700 0.7700 0.7700
3261.774497 0.7692 0.7682 0.7680 0.7680 0.7680
3266.703304 0.7680 0.7680 0.7680 0.7680 0.7680
3271.632110 0.7680 0.7680 0.7680 0.7680 0.7680
3276.560917 0.7680 0.7680 0.7680 0.7680 0.7680
3281.489724 0.7680 0.7680 0.7680 0.7680 0.7680
3286.418530 0.7680 0.7680 0.7680 0.7680 0.7680
3291.347337 0.7680 0.7680 0.7680 0.7680 0.7680
3296.276144 0.7680 0.7680 0.7680 0.7680 0.7680
3301.204950 0.7689 0.7699 0.7700 0.7700 0.7700
3306.133757 0.7700 0.7700 0.7700 0.7709 0.7719
3311.062564 0.7729 0.7739 0.7740 0.7740 0.7740
3315.991370 0.7740 0.7745 0.7750 0.7750 0.7750
3320.920177 0.7755 0.7760 0.7760 0.7760 0.7769
3325.848983 0.7779 0.7785 0.7790 0.7795 0.7800
3330.777790 0.7800 0.7800 0.7800 0.7800 0.7814
3335.706597 0.7829 0.7844 0.7860 0.7865 0.7870
3340.635403 0.7875 0.7880 0.7890 0.7900 0.7905
3345.564210 0.7910 0.7915 0.7920 0.7920 0.7920
3350.493017 0.7920 0.7920 0.7930 0.7940 0.7940
3355.421823 0.7940 0.7940 0.7940 0.7945 0.7950
3360.350630 0.7950 0.7950 0.7950 0.7950 0.7950
3365.279436 0.7950 0.7955 0.7960 0.7960 0.7960
3370.208243 0.7970 0.7980 0.7980 0.7980 0.7980
3375.137050 0.7980 0.7980 0.7980 0.7980 0.7980
3380.065856 0.7985 0.7990 0.7990 0.7990 0.7995
3384.994663 0.8000 0.8000 0.8000 0.8000 0.8001
3389.923470 0.8011 0.8020 0.8025 0.8030 0.8035
3394.852276 0.8040 0.8040 0.8041 0.8051 0.8060
3399.781083 0.8060 0.8060 0.8060 0.8060 0.8060
3404.709890 0.8060 0.8060 0.8060 0.8060 0.8060
3409.638696 0.8060 0.8060 0.8060 0.8060 0.8060
3414.567503 0.8060 0.8060 0.8059 0.8049 0.8040
3419.496309 0.8040 0.8040 0.8040 0.8040 0.8040
3424.425116 0.8039 0.8034 0.8030 0.8030 0.8030
3429.353923 0.8030 0.8031 0.8036 0.8039 0.8034
3434.282729 0.8030 0.8030 0.8029 0.8024 0.8020
3439.211536 0.8020 0.8018 0.8008 0.8000 0.8000
3444.140343 0.7999 0.7994 0.7989 0.7984 0.7980
3449.069149 0.7980 0.7978 0.7968 0.7960 0.7960
3453.997956 0.7960 0.7960 0.7959 0.7954 0.7950
3458.926762 0.7950 0.7950 0.7950 0.7949 0.7944
3463.855569 0.7940 0.7940 0.7940 0.7940 0.7940
3468.784376 0.7940 0.7940 0.7940 0.7940 0.7940
3473.713182 0.7940 0.7940 0.7940 0.7940 0.7940
3478.641989 0.7940 0.7940 0.7940 0.7940 0.7940
3483.570796 0.7940 0.7940 0.7940 0.7940 0.7940
3488.499602 0.7940 0.7941 0.7946 0.7950 0.7950
3493.428409 0.7950 0.7950 0.7950 0.7950 0.7952
3498.357215 0.7957 0.7960 0.7960 0.7960 0.7960
3503.286022 0.7960 0.7960 0.7963 0.7973 0.7980
3508.214829 0.7980 0.7980 0.7980 0.7982 0.7987
3513.143635 0.7992 0.7997 0.8000 0.8000 0.8004
3518.072442 0.8014 0.8022 0.8027 0.8032 0.8037
3523.001249 0.8044 0.8054 0.8068 0.8088 0.8104
3527.930055 0.8114 0.8126 0.8141 0.8160 0.8185
3532.858862 0.8206 0.8221 0.8236 0.8251 0.8264
3537.787669 0.8274 0.8284 0.8294 0.8302 0.8307
3542.716475 0.8310 0.8310 0.8310 0.8310 0.8310
3547.645282 0.8310 0.8312 0.8317 0.8320 0.8320
3552.574088 0.8324 0.8334 0.8342 0.8347 0.8350
3557.502895 0.8350 0.8350 0.8350 0.8350 0.8350
3562.431702 0.8352 0.8357 0.8360 0.8360 0.8360
3567.360508 0.8360 0.8360 0.8360 0.8360 0.8360
3572.289315 0.8365 0.8375 0.8382 0.8387 0.8393
3577.218122 0.8398 0.8408 0.8423 0.8438 0.8453
3582.146928 0.8465 0.8475 0.8480 0.8480 0.8488
3587.075735 0.8503 0.8510 0.8510 0.8520 0.8540
3592.004541 0.8553 0.8558 0.8568 0.8583 0.8590
3596.933348 0.8590 0.8593 0.8598 0.8605 0.8615
3601.862155 0.8620 0.8620 0.8620 0.8620 0.8620
3606.790961 0.8620 0.8623 0.8628 0.8630 0.8630
3611.719768 0.8630 0.8630 0.8630 0.8630 0.8630
3616.648575 0.8630 0.8633 0.8638 0.8640 0.8640
3621.577381 0.8646 0.8656 0.8660 0.8660 0.8660
3626.506188 0.8660 0.8660 0.8660 0.8660 0.8660
3631.434994 0.8663 0.8668 0.8670 0.8670 0.8670
3636.363801 0.8670 0.8670 0.8670 0.8673 0.8678
3641.292608 0.8677 0.8672 0.8670 0.8670 0.8670
3646.221414 0.8670 0.8670 0.8670 0.8673 0.8678
3651.150221 0.8680 0.8680 0.8680 0.8680 0.8680
3656.079028 0.8680 0.8680 0.8680 0.8677 0.8672
3661.007834 0.8670 0.8670 0.8670 0.8670 0.8670
3665.936641 0.8670 0.8670 0.8670 0.8670 0.8670
3670.865448 0.8670 0.8670 0.8674 0.8679 0.8680
3675.794254 0.8680 0.8687 0.8697 0.8704 0.8709
3680.723061 0.8721 0.8736 0.8744 0.8749 0.8757
3685.651867 0.8767 0.8774 0.8779 0.8784 0.8789
3690.580674 0.8797 0.8808 0.8810 0.8810 0.8814
3695.509481 0.8819 0.8835 0.8855 0.8864 0.8869
3700.438287 0.8878 0.8888 0.8890 0.8890 0.8894
3705.367094 0.8899 0.8900 0.8900 0.8900 0.8900
3710.295901 0.8904 0.8909 0.8910 0.8910 0.8910
3715.224707 0.8910 0.8906 0.8901 0.8900 0.8900
3720.153514 0.8900 0.8900 0.8896 0.8891 0.8890
3725.082320 0.8890 0.8890 0.8890 0.8882 0.8872
3730.011127 0.8870 0.8870 0.8866 0.8861 0.8860
3734.939934 0.8860 0.8860 0.8860 0.8860 0.8860
3739.868740 0.8860 0.8860 0.8864 0.8869 0.8883
3744.797547 0.8898 0.8904 0.8909 0.8910 0.8910
3749.726354 0.8919 0.8929 0.8934 0.8939 0.8940
3754.655160 0.8940 0.8944 0.8949 0.8959 0.8969
3759.583967 0.8975 0.8980 0.8980 0.8980 0.8980
3764.512773 0.8980 0.8985 0.8990 0.8990 0.8990
3769.441580 0.8990 0.8990 0.8990 0.8990 0.8990
3774.370387 0.8990 0.8990 0.8990 0.8990 0.8990
3779.299193 0.8990 0.8990 0.8990 0.8990 0.8999
3784.228000 0.9010 0.9000 0.8990 0.8990 0.8990
3789.156807 0.8990 0.8990
##END=
