##TITLE=Methylphosphonic acid
##JCAMP-DX=4.24
$$ By DXEDIT 1.05 (RS McDonald)
##DATA TYPE=INFRARED SPECTRUM
##CLASS=COBLENTZ II
##ORIGIN=DOW CHEMICAL COMPANY
##OWNER=COPYRIGHT (C) 1988 by COBLENTZ SOCIETY INC.
Collection (C) 2018 copyright by the U.S. Secretary of Commerce
on behalf of the United States of America. All rights reserved.
##DATE=1966/02/23
##CAS REGISTRY NO=993-13-5
##MOLFORM=C H5 O3 P
##SOURCE REFERENCE=COBLENTZ NO. 08948
##$NIST SOURCE=COBLENTZ
##$NIST IMAGE=cob8948
##SPECTROMETER/DATA SYSTEM=DOW KBr FOREPRISM-GRATING
##INSTRUMENT PARAMETERS=BLAZED AT 3.5, 12.0, 20.0 MICRON AND CHANGED AT 5.0, 7.5, 14.9 MICRON
##STATE=SOLID (SPLIT MULL), FLUOROLUBE FOR 3800-1330 CM^-^1, NUJOL FOR 1330-400 CM^-^1; (DRY BOX UNDER N2)
##SAMPLING PROCEDURE=TRANSMISSION
##RESOLUTION=2
##DATA PROCESSING=DIGITIZED BY COBLENTZ SOCIETY (BATCH I) FROM HARD COPY
##XUNITS=1/CM
##YUNITS=TRANSMITTANCE
##XFACTOR=1
##YFACTOR=1
##DELTAX=1
##FIRSTX=3810
##LASTX=385
##FIRSTY=0.892
##MAXX=3810
##MINX=385
##MAXY=0.8947
##MINY=0.0452
##NPOINTS=3426
##XYDATA=(X++(Y..Y))
3810.000000 0.8920 0.8920 0.8920 0.8920 0.8921
3805.000000 0.8921 0.8921 0.8921 0.8923 0.8923
3800.000000 0.8923 0.8923 0.8924 0.8924 0.8925
3795.000000 0.8925 0.8925 0.8925 0.8925 0.8927
3790.000000 0.8928 0.8928 0.8928 0.8930 0.8931
3785.000000 0.8931 0.8932 0.8933 0.8934 0.8934
3780.000000 0.8935 0.8936 0.8937 0.8937 0.8938
3775.000000 0.8939 0.8940 0.8940 0.8941 0.8942
3770.000000 0.8943 0.8943 0.8944 0.8945 0.8946
3765.000000 0.8947 0.8947 0.8947 0.8947 0.8946
3760.000000 0.8946 0.8945 0.8945 0.8945 0.8945
3755.000000 0.8944 0.8944 0.8943 0.8943 0.8943
3750.000000 0.8943 0.8942 0.8942 0.8941 0.8941
3745.000000 0.8940 0.8940 0.8940 0.8940 0.8939
3740.000000 0.8939 0.8938 0.8938 0.8937 0.8937
3735.000000 0.8937 0.8937 0.8936 0.8936 0.8935
3730.000000 0.8935 0.8935 0.8935 0.8935 0.8935
3725.000000 0.8935 0.8936 0.8936 0.8936 0.8936
3720.000000 0.8936 0.8936 0.8937 0.8937 0.8937
3715.000000 0.8937 0.8938 0.8938 0.8938 0.8938
3710.000000 0.8938 0.8938 0.8939 0.8939 0.8939
3705.000000 0.8939 0.8940 0.8940 0.8940 0.8940
3700.000000 0.8940 0.8940 0.8941 0.8941 0.8941
3695.000000 0.8941 0.8941 0.8941 0.8942 0.8942
3690.000000 0.8942 0.8942 0.8943 0.8943 0.8943
3685.000000 0.8943 0.8943 0.8943 0.8943 0.8942
3680.000000 0.8941 0.8939 0.8938 0.8937 0.8936
3675.000000 0.8934 0.8933 0.8932 0.8931 0.8928
3670.000000 0.8928 0.8927 0.8925 0.8924 0.8923
3665.000000 0.8921 0.8921 0.8918 0.8918 0.8917
3660.000000 0.8916 0.8914 0.8913 0.8912 0.8911
3655.000000 0.8909 0.8908 0.8907 0.8906 0.8905
3650.000000 0.8904 0.8902 0.8901 0.8899 0.8898
3645.000000 0.8896 0.8895 0.8893 0.8892 0.8890
3640.000000 0.8889 0.8888 0.8887 0.8885 0.8884
3635.000000 0.8882 0.8881 0.8878 0.8878 0.8875
3630.000000 0.8875 0.8873 0.8871 0.8870 0.8868
3625.000000 0.8867 0.8866 0.8864 0.8863 0.8861
3620.000000 0.8860 0.8858 0.8857 0.8855 0.8854
3615.000000 0.8852 0.8851 0.8849 0.8848 0.8846
3610.000000 0.8844 0.8842 0.8841 0.8839 0.8838
3605.000000 0.8836 0.8835 0.8833 0.8832 0.8830
3600.000000 0.8828 0.8827 0.8825 0.8824 0.8823
3595.000000 0.8821 0.8820 0.8818 0.8817 0.8815
3590.000000 0.8814 0.8812 0.8811 0.8809 0.8808
3585.000000 0.8806 0.8805 0.8803 0.8802 0.8800
3580.000000 0.8799 0.8796 0.8794 0.8791 0.8788
3575.000000 0.8785 0.8783 0.8780 0.8777 0.8774
3570.000000 0.8771 0.8768 0.8765 0.8762 0.8759
3565.000000 0.8756 0.8753 0.8750 0.8747 0.8744
3560.000000 0.8741 0.8738 0.8735 0.8732 0.8728
3555.000000 0.8725 0.8723 0.8720 0.8717 0.8713
3550.000000 0.8710 0.8707 0.8704 0.8701 0.8698
3545.000000 0.8694 0.8691 0.8688 0.8685 0.8682
3540.000000 0.8678 0.8675 0.8673 0.8668 0.8666
3535.000000 0.8663 0.8660 0.8657 0.8654 0.8651
3530.000000 0.8648 0.8644 0.8641 0.8638 0.8635
3525.000000 0.8632 0.8628 0.8625 0.8621 0.8618
3520.000000 0.8616 0.8613 0.8610 0.8607 0.8604
3515.000000 0.8600 0.8597 0.8593 0.8590 0.8586
3510.000000 0.8583 0.8578 0.8575 0.8571 0.8568
3505.000000 0.8564 0.8561 0.8557 0.8554 0.8550
3500.000000 0.8546 0.8542 0.8539 0.8535 0.8532
3495.000000 0.8528 0.8524 0.8520 0.8517 0.8513
3490.000000 0.8510 0.8506 0.8502 0.8498 0.8495
3485.000000 0.8491 0.8488 0.8484 0.8480 0.8475
3480.000000 0.8473 0.8468 0.8466 0.8462 0.8458
3475.000000 0.8454 0.8451 0.8447 0.8444 0.8440
3470.000000 0.8436 0.8432 0.8428 0.8425 0.8421
3465.000000 0.8418 0.8414 0.8410 0.8407 0.8403
3460.000000 0.8400 0.8396 0.8392 0.8388 0.8385
3455.000000 0.8381 0.8378 0.8374 0.8371 0.8367
3450.000000 0.8364 0.8361 0.8358 0.8354 0.8351
3445.000000 0.8347 0.8344 0.8340 0.8337 0.8333
3440.000000 0.8330 0.8327 0.8324 0.8320 0.8317
3435.000000 0.8313 0.8310 0.8306 0.8303 0.8299
3430.000000 0.8296 0.8292 0.8289 0.8286 0.8283
3425.000000 0.8278 0.8275 0.8271 0.8268 0.8265
3420.000000 0.8262 0.8258 0.8255 0.8252 0.8249
3415.000000 0.8245 0.8242 0.8238 0.8235 0.8231
3410.000000 0.8228 0.8223 0.8218 0.8215 0.8211
3405.000000 0.8206 0.8202 0.8197 0.8193 0.8189
3400.000000 0.8185 0.8180 0.8175 0.8171 0.8168
3395.000000 0.8162 0.8158 0.8155 0.8151 0.8146
3390.000000 0.8142 0.8138 0.8134 0.8128 0.8125
3385.000000 0.8121 0.8117 0.8111 0.8108 0.8103
3380.000000 0.8099 0.8095 0.8091 0.8086 0.8082
3375.000000 0.8078 0.8074 0.8068 0.8064 0.8058
3370.000000 0.8053 0.8047 0.8041 0.8035 0.8030
3365.000000 0.8024 0.8018 0.8011 0.8006 0.8000
3360.000000 0.7995 0.7989 0.7983 0.7976 0.7971
3355.000000 0.7965 0.7960 0.7954 0.7948 0.7942
3350.000000 0.7937 0.7931 0.7925 0.7918 0.7912
3345.000000 0.7906 0.7899 0.7891 0.7883 0.7875
3340.000000 0.7867 0.7858 0.7851 0.7843 0.7835
3335.000000 0.7826 0.7819 0.7811 0.7804 0.7796
3330.000000 0.7788 0.7780 0.7771 0.7764 0.7756
3325.000000 0.7748 0.7740 0.7732 0.7724 0.7715
3320.000000 0.7708 0.7700 0.7693 0.7685 0.7676
3315.000000 0.7667 0.7658 0.7649 0.7640 0.7630
3310.000000 0.7621 0.7611 0.7603 0.7593 0.7584
3305.000000 0.7575 0.7565 0.7556 0.7547 0.7538
3300.000000 0.7528 0.7518 0.7508 0.7498 0.7488
3295.000000 0.7476 0.7467 0.7457 0.7447 0.7436
3290.000000 0.7425 0.7417 0.7408 0.7396 0.7385
3285.000000 0.7372 0.7361 0.7350 0.7339 0.7326
3280.000000 0.7315 0.7304 0.7292 0.7280 0.7268
3275.000000 0.7257 0.7246 0.7234 0.7222 0.7211
3270.000000 0.7199 0.7187 0.7175 0.7164 0.7153
3265.000000 0.7142 0.7131 0.7118 0.7108 0.7096
3260.000000 0.7084 0.7071 0.7061 0.7049 0.7037
3255.000000 0.7025 0.7012 0.7001 0.6990 0.6978
3250.000000 0.6965 0.6954 0.6942 0.6930 0.6918
3245.000000 0.6907 0.6895 0.6883 0.6871 0.6858
3240.000000 0.6848 0.6836 0.6824 0.6811 0.6800
3235.000000 0.6787 0.6774 0.6761 0.6748 0.6735
3230.000000 0.6721 0.6708 0.6696 0.6683 0.6669
3225.000000 0.6657 0.6645 0.6632 0.6618 0.6606
3220.000000 0.6593 0.6580 0.6567 0.6554 0.6541
3215.000000 0.6525 0.6511 0.6495 0.6480 0.6464
3210.000000 0.6449 0.6433 0.6418 0.6401 0.6386
3205.000000 0.6370 0.6355 0.6339 0.6324 0.6308
3200.000000 0.6293 0.6277 0.6262 0.6247 0.6233
3195.000000 0.6219 0.6206 0.6192 0.6178 0.6164
3190.000000 0.6151 0.6137 0.6123 0.6109 0.6096
3185.000000 0.6082 0.6069 0.6055 0.6041 0.6027
3180.000000 0.6014 0.6000 0.5986 0.5972 0.5959
3175.000000 0.5945 0.5931 0.5917 0.5904 0.5890
3170.000000 0.5876 0.5860 0.5846 0.5831 0.5816
3165.000000 0.5801 0.5787 0.5772 0.5757 0.5742
3160.000000 0.5727 0.5712 0.5698 0.5683 0.5668
3155.000000 0.5653 0.5639 0.5622 0.5606 0.5589
3150.000000 0.5572 0.5555 0.5539 0.5522 0.5505
3145.000000 0.5488 0.5471 0.5454 0.5438 0.5421
3140.000000 0.5404 0.5387 0.5370 0.5353 0.5336
3135.000000 0.5319 0.5303 0.5286 0.5269 0.5253
3130.000000 0.5237 0.5222 0.5207 0.5192 0.5177
3125.000000 0.5162 0.5147 0.5132 0.5117 0.5102
3120.000000 0.5087 0.5072 0.5057 0.5042 0.5027
3115.000000 0.5012 0.4997 0.4981 0.4966 0.4951
3110.000000 0.4936 0.4921 0.4906 0.4891 0.4876
3105.000000 0.4860 0.4846 0.4831 0.4816 0.4799
3100.000000 0.4783 0.4766 0.4750 0.4734 0.4718
3095.000000 0.4701 0.4685 0.4668 0.4652 0.4635
3090.000000 0.4619 0.4603 0.4587 0.4570 0.4554
3085.000000 0.4537 0.4521 0.4505 0.4489 0.4476
3080.000000 0.4462 0.4451 0.4439 0.4427 0.4415
3075.000000 0.4403 0.4391 0.4379 0.4367 0.4355
3070.000000 0.4343 0.4331 0.4319 0.4307 0.4296
3065.000000 0.4284 0.4272 0.4260 0.4248 0.4235
3060.000000 0.4223 0.4209 0.4196 0.4182 0.4169
3055.000000 0.4156 0.4143 0.4129 0.4116 0.4103
3050.000000 0.4090 0.4076 0.4062 0.4050 0.4037
3045.000000 0.4023 0.4009 0.3996 0.3982 0.3970
3040.000000 0.3957 0.3943 0.3930 0.3916 0.3903
3035.000000 0.3889 0.3876 0.3862 0.3848 0.3830
3030.000000 0.3814 0.3796 0.3779 0.3762 0.3745
3025.000000 0.3716 0.3690 0.3662 0.3637 0.3612
3020.000000 0.3589 0.3566 0.3543 0.3536 0.3530
3015.000000 0.3526 0.3522 0.3518 0.3514 0.3509
3010.000000 0.3506 0.3500 0.3495 0.3489 0.3484
3005.000000 0.3478 0.3473 0.3468 0.3464 0.3460
3000.000000 0.3457 0.3453 0.3449 0.3444 0.3439
2995.000000 0.3432 0.3425 0.3418 0.3410 0.3404
2990.000000 0.3397 0.3390 0.3382 0.3376 0.3368
2985.000000 0.3362 0.3355 0.3348 0.3341 0.3332
2980.000000 0.3326 0.3318 0.3312 0.3305 0.3298
2975.000000 0.3291 0.3284 0.3277 0.3270 0.3262
2970.000000 0.3256 0.3249 0.3242 0.3234 0.3226
2965.000000 0.3216 0.3209 0.3200 0.3191 0.3182
2960.000000 0.3174 0.3165 0.3157 0.3150 0.3144
2955.000000 0.3137 0.3131 0.3124 0.3118 0.3111
2950.000000 0.3105 0.3099 0.3093 0.3084 0.3077
2945.000000 0.3067 0.3058 0.3046 0.3034 0.3019
2940.000000 0.3003 0.2992 0.2981 0.2973 0.2965
2935.000000 0.2957 0.2949 0.2941 0.2933 0.2926
2930.000000 0.2920 0.2916 0.2913 0.2909 0.2905
2925.000000 0.2901 0.2898 0.2894 0.2891 0.2888
2920.000000 0.2884 0.2882 0.2879 0.2876 0.2873
2915.000000 0.2870 0.2867 0.2862 0.2858 0.2852
2910.000000 0.2847 0.2841 0.2835 0.2831 0.2826
2905.000000 0.2820 0.2815 0.2809 0.2804 0.2799
2900.000000 0.2794 0.2788 0.2783 0.2777 0.2772
2895.000000 0.2768 0.2764 0.2760 0.2757 0.2753
2890.000000 0.2749 0.2745 0.2741 0.2737 0.2733
2885.000000 0.2729 0.2725 0.2721 0.2718 0.2714
2880.000000 0.2710 0.2706 0.2702 0.2698 0.2694
2875.000000 0.2690 0.2685 0.2682 0.2678 0.2673
2870.000000 0.2669 0.2664 0.2659 0.2653 0.2648
2865.000000 0.2642 0.2637 0.2632 0.2627 0.2621
2860.000000 0.2616 0.2610 0.2605 0.2600 0.2595
2855.000000 0.2589 0.2584 0.2578 0.2573 0.2568
2850.000000 0.2563 0.2559 0.2555 0.2552 0.2549
2845.000000 0.2546 0.2544 0.2541 0.2539 0.2535
2840.000000 0.2533 0.2530 0.2528 0.2525 0.2522
2835.000000 0.2519 0.2517 0.2514 0.2511 0.2508
2830.000000 0.2506 0.2503 0.2500 0.2497 0.2495
2825.000000 0.2492 0.2489 0.2485 0.2484 0.2481
2820.000000 0.2478 0.2475 0.2473 0.2470 0.2467
2815.000000 0.2464 0.2461 0.2458 0.2456 0.2453
2810.000000 0.2450 0.2447 0.2445 0.2442 0.2439
2805.000000 0.2435 0.2434 0.2432 0.2430 0.2428
2800.000000 0.2426 0.2424 0.2422 0.2420 0.2419
2795.000000 0.2417 0.2415 0.2413 0.2411 0.2409
2790.000000 0.2408 0.2406 0.2404 0.2402 0.2400
2785.000000 0.2398 0.2397 0.2395 0.2393 0.2391
2780.000000 0.2389 0.2387 0.2385 0.2384 0.2382
2775.000000 0.2380 0.2379 0.2377 0.2376 0.2375
2770.000000 0.2379 0.2372 0.2371 0.2371 0.2372
2765.000000 0.2372 0.2373 0.2373 0.2374 0.2374
2760.000000 0.2374 0.2374 0.2375 0.2375 0.2376
2755.000000 0.2376 0.2377 0.2377 0.2378 0.2378
2750.000000 0.2379 0.2379 0.2380 0.2380 0.2381
2745.000000 0.2381 0.2382 0.2382 0.2382 0.2382
2740.000000 0.2383 0.2383 0.2384 0.2384 0.2385
2735.000000 0.2387 0.2388 0.2389 0.2390 0.2390
2730.000000 0.2391 0.2392 0.2393 0.2394 0.2395
2725.000000 0.2396 0.2397 0.2398 0.2399 0.2402
2720.000000 0.2405 0.2408 0.2412 0.2415 0.2418
2715.000000 0.2421 0.2424 0.2427 0.2431 0.2434
2710.000000 0.2437 0.2440 0.2444 0.2447 0.2450
2705.000000 0.2453 0.2457 0.2462 0.2467 0.2472
2700.000000 0.2478 0.2483 0.2488 0.2493 0.2499
2695.000000 0.2504 0.2510 0.2515 0.2521 0.2526
2690.000000 0.2531 0.2535 0.2542 0.2547 0.2553
2685.000000 0.2558 0.2564 0.2569 0.2574 0.2579
2680.000000 0.2584 0.2590 0.2596 0.2601 0.2607
2675.000000 0.2612 0.2617 0.2623 0.2630 0.2635
2670.000000 0.2643 0.2649 0.2656 0.2662 0.2669
2665.000000 0.2675 0.2682 0.2689 0.2696 0.2702
2660.000000 0.2709 0.2715 0.2722 0.2728 0.2734
2655.000000 0.2741 0.2748 0.2754 0.2761 0.2767
2650.000000 0.2774 0.2780 0.2787 0.2793 0.2800
2645.000000 0.2806 0.2813 0.2820 0.2827 0.2833
2640.000000 0.2840 0.2846 0.2853 0.2859 0.2866
2635.000000 0.2872 0.2879 0.2884 0.2892 0.2898
2630.000000 0.2905 0.2911 0.2918 0.2924 0.2931
2625.000000 0.2938 0.2945 0.2953 0.2962 0.2970
2620.000000 0.2979 0.2987 0.2996 0.3004 0.3013
2615.000000 0.3021 0.3030 0.3038 0.3047 0.3055
2610.000000 0.3064 0.3072 0.3081 0.3089 0.3098
2605.000000 0.3106 0.3115 0.3123 0.3132 0.3140
2600.000000 0.3149 0.3157 0.3166 0.3174 0.3183
2595.000000 0.3191 0.3200 0.3208 0.3216 0.3225
2590.000000 0.3234 0.3243 0.3253 0.3262 0.3271
2585.000000 0.3280 0.3290 0.3299 0.3309 0.3318
2580.000000 0.3327 0.3336 0.3346 0.3355 0.3364
2575.000000 0.3374 0.3384 0.3393 0.3402 0.3410
2570.000000 0.3421 0.3430 0.3440 0.3449 0.3458
2565.000000 0.3466 0.3477 0.3484 0.3493 0.3500
2560.000000 0.3509 0.3516 0.3525 0.3532 0.3540
2555.000000 0.3548 0.3556 0.3564 0.3572 0.3580
2550.000000 0.3588 0.3595 0.3603 0.3609 0.3616
2545.000000 0.3624 0.3630 0.3638 0.3645 0.3652
2540.000000 0.3659 0.3666 0.3674 0.3678 0.3682
2535.000000 0.3687 0.3691 0.3695 0.3699 0.3703
2530.000000 0.3707 0.3710 0.3714 0.3718 0.3723
2525.000000 0.3727 0.3730 0.3734 0.3738 0.3742
2520.000000 0.3746 0.3750 0.3754 0.3758 0.3762
2515.000000 0.3764 0.3768 0.3772 0.3775 0.3777
2510.000000 0.3780 0.3782 0.3784 0.3788 0.3791
2505.000000 0.3793 0.3796 0.3798 0.3800 0.3803
2500.000000 0.3805 0.3806 0.3808 0.3809 0.3812
2495.000000 0.3812 0.3814 0.3816 0.3818 0.3820
2490.000000 0.3822 0.3824 0.3826 0.3827 0.3829
2485.000000 0.3830 0.3832 0.3834 0.3837 0.3838
2480.000000 0.3840 0.3842 0.3845 0.3848 0.3852
2475.000000 0.3855 0.3859 0.3862 0.3866 0.3870
2470.000000 0.3874 0.3878 0.3882 0.3884 0.3889
2465.000000 0.3891 0.3894 0.3897 0.3900 0.3902
2460.000000 0.3905 0.3907 0.3909 0.3912 0.3940
2455.000000 0.3918 0.3921 0.3923 0.3926 0.3927
2450.000000 0.3929 0.3929 0.3930 0.3930 0.3930
2445.000000 0.3930 0.3930 0.3930 0.3930 0.3930
2440.000000 0.3932 0.3924 0.3916 0.3909 0.3902
2435.000000 0.3894 0.3886 0.3878 0.3871 0.3862
2430.000000 0.3855 0.3846 0.3838 0.3828 0.3818
2425.000000 0.3809 0.3800 0.3792 0.3782 0.3773
2420.000000 0.3764 0.3755 0.3746 0.3736 0.3727
2415.000000 0.3718 0.3709 0.3700 0.3691 0.3680
2410.000000 0.3672 0.3659 0.3647 0.3634 0.3621
2405.000000 0.3608 0.3596 0.3582 0.3570 0.3557
2400.000000 0.3545 0.3532 0.3518 0.3499 0.3480
2395.000000 0.3450 0.3420 0.3390 0.3360 0.3330
2390.000000 0.3300 0.3260 0.3221 0.3214 0.3209
2385.000000 0.3204 0.3199 0.3195 0.3192 0.3188
2380.000000 0.3184 0.3181 0.3178 0.3175 0.3172
2375.000000 0.3170 0.3168 0.3166 0.3165 0.3163
2370.000000 0.3161 0.3159 0.3158 0.3156 0.3154
2365.000000 0.3151 0.3149 0.3146 0.3144 0.3142
2360.000000 0.3140 0.3137 0.3134 0.3132 0.3130
2355.000000 0.3127 0.3125 0.3123 0.3121 0.3118
2350.000000 0.3116 0.3114 0.3112 0.3109 0.3107
2345.000000 0.3105 0.3103 0.3100 0.3098 0.3095
2340.000000 0.3092 0.3087 0.3083 0.3079 0.3075
2335.000000 0.3070 0.3066 0.3062 0.3058 0.3053
2330.000000 0.3049 0.3042 0.3034 0.3028 0.3022
2325.000000 0.3015 0.3009 0.3002 0.2995 0.2988
2320.000000 0.2982 0.2977 0.2973 0.2968 0.2963
2315.000000 0.2960 0.2957 0.2954 0.2952 0.2949
2310.000000 0.2947 0.2944 0.2942 0.2940 0.2940
2305.000000 0.2939 0.2941 0.2942 0.2944 0.2948
2300.000000 0.2953 0.2959 0.2965 0.2971 0.2977
2295.000000 0.2983 0.2989 0.2995 0.3002 0.3008
2290.000000 0.3014 0.3020 0.3026 0.3034 0.3044
2285.000000 0.3054 0.3064 0.3074 0.3084 0.3095
2280.000000 0.3105 0.3115 0.3126 0.3137 0.3148
2275.000000 0.3163 0.3179 0.3195 0.3210 0.3226
2270.000000 0.3242 0.3257 0.3273 0.3289 0.3305
2265.000000 0.3320 0.3336 0.3350 0.3366 0.3382
2260.000000 0.3399 0.3414 0.3430 0.3446 0.3462
2255.000000 0.3477 0.3493 0.3508 0.3524 0.3540
2250.000000 0.3556 0.3571 0.3587 0.3602 0.3618
2245.000000 0.3634 0.3650 0.3674 0.3699 0.3718
2240.000000 0.3740 0.3752 0.3764 0.3775 0.3787
2235.000000 0.3798 0.3809 0.3822 0.3834 0.3844
2230.000000 0.3854 0.3862 0.3873 0.3882 0.3892
2225.000000 0.3902 0.3912 0.3921 0.3930 0.3940
2220.000000 0.3950 0.3959 0.3971 0.3982 0.3994
2215.000000 0.4006 0.4018 0.4029 0.4041 0.4052
2210.000000 0.4064 0.4075 0.4087 0.4099 0.4110
2205.000000 0.4122 0.4134 0.4145 0.4157 0.4170
2200.000000 0.4183 0.4197 0.4210 0.4225 0.4240
2195.000000 0.4254 0.4269 0.4283 0.4297 0.4310
2190.000000 0.4326 0.4339 0.4352 0.4365 0.4379
2185.000000 0.4392 0.4406 0.4419 0.4432 0.4445
2180.000000 0.4459 0.4468 0.4478 0.4484 0.4491
2175.000000 0.4497 0.4504 0.4510 0.4517 0.4523
2170.000000 0.4530 0.4536 0.4543 0.4549 0.4556
2165.000000 0.4562 0.4569 0.4575 0.4582 0.4588
2160.000000 0.4595 0.4604 0.4614 0.4624 0.4634
2155.000000 0.4644 0.4654 0.4664 0.4674 0.4684
2150.000000 0.4694 0.4704 0.4714 0.4724 0.4734
2145.000000 0.4744 0.4755 0.4765 0.4775 0.4785
2140.000000 0.4796 0.4810 0.4825 0.4839 0.4854
2135.000000 0.4868 0.4883 0.4898 0.4912 0.4927
2130.000000 0.4942 0.4956 0.4971 0.4986 0.5001
2125.000000 0.5015 0.5030 0.5044 0.5059 0.5073
2120.000000 0.5088 0.5102 0.5117 0.5131 0.5146
2115.000000 0.5160 0.5175 0.5189 0.5204 0.5218
2110.000000 0.5233 0.5247 0.5262 0.5276 0.5290
2105.000000 0.5304 0.5319 0.5334 0.5349 0.5362
2100.000000 0.5378 0.5393 0.5408 0.5422 0.5437
2095.000000 0.5452 0.5467 0.5481 0.5496 0.5510
2090.000000 0.5526 0.5540 0.5555 0.5569 0.5584
2085.000000 0.5597 0.5610 0.5623 0.5636 0.5648
2080.000000 0.5660 0.5674 0.5687 0.5700 0.5712
2075.000000 0.5726 0.5739 0.5751 0.5764 0.5777
2070.000000 0.5790 0.5803 0.5816 0.5829 0.5842
2065.000000 0.5855 0.5868 0.5880 0.5892 0.5901
2060.000000 0.5910 0.5920 0.5930 0.5939 0.5949
2055.000000 0.5958 0.5968 0.5977 0.5987 0.5996
2050.000000 0.6006 0.6015 0.6025 0.6034 0.6044
2045.000000 0.6053 0.6062 0.6072 0.6082 0.6091
2040.000000 0.6101 0.6110 0.6119 0.6127 0.6135
2035.000000 0.6142 0.6150 0.6158 0.6166 0.6174
2030.000000 0.6182 0.6189 0.6197 0.6205 0.6212
2025.000000 0.6221 0.6229 0.6236 0.6244 0.6252
2020.000000 0.6260 0.6266 0.6273 0.6278 0.6284
2015.000000 0.6290 0.6296 0.6302 0.6308 0.6314
2010.000000 0.6320 0.6326 0.6332 0.6338 0.6344
2005.000000 0.6349 0.6355 0.6360 0.6367 0.6378
2000.000000 0.6389 0.6398 0.6408 0.6418 0.6428
1995.000000 0.6437 0.6447 0.6457 0.6467 0.6475
1990.000000 0.6486 0.6496 0.6505 0.6515 0.6526
1985.000000 0.6539 0.6550 0.6561 0.6574 0.6585
1980.000000 0.6597 0.6608 0.6621 0.6632 0.6644
1975.000000 0.6656 0.6667 0.6675 0.6685 0.6694
1970.000000 0.6703 0.6711 0.6721 0.6730 0.6739
1965.000000 0.6749 0.6758 0.6768 0.6778 0.6789
1960.000000 0.6799 0.6808 0.6818 0.6828 0.6837
1955.000000 0.6845 0.6851 0.6860 0.6868 0.6875
1950.000000 0.6883 0.6891 0.6899 0.6907 0.6915
1945.000000 0.6921 0.6930 0.6938 0.6945 0.6951
1940.000000 0.6958 0.6965 0.6971 0.6978 0.6985
1935.000000 0.6992 0.6998 0.7005 0.7011 0.7018
1930.000000 0.7025 0.7032 0.7039 0.7044 0.7049
1925.000000 0.7053 0.7057 0.7061 0.7065 0.7071
1920.000000 0.7075 0.7080 0.7084 0.7089 0.7093
1915.000000 0.7097 0.7101 0.7106 0.7108 0.7111
1910.000000 0.7115 0.7118 0.7122 0.7125 0.7128
1905.000000 0.7133 0.7136 0.7139 0.7142 0.7145
1900.000000 0.7148 0.7151 0.7154 0.7157 0.7160
1895.000000 0.7162 0.7167 0.7169 0.7174 0.7178
1890.000000 0.7182 0.7185 0.7189 0.7193 0.7197
1885.000000 0.7201 0.7204 0.7208 0.7211 0.7215
1880.000000 0.7218 0.7222 0.7226 0.7231 0.7233
1875.000000 0.7236 0.7239 0.7241 0.7244 0.7246
1870.000000 0.7249 0.7251 0.7254 0.7256 0.7258
1865.000000 0.7261 0.7264 0.7264 0.7265 0.7265
1860.000000 0.7265 0.7265 0.7262 0.7261 0.7258
1855.000000 0.7258 0.7256 0.7254 0.7251 0.7251
1850.000000 0.7249 0.7249 0.7249 0.7251 0.7255
1845.000000 0.7258 0.7261 0.7264 0.7267 0.7269
1840.000000 0.7272 0.7275 0.7276 0.7278 0.7281
1835.000000 0.7282 0.7284 0.7285 0.7288 0.7291
1830.000000 0.7295 0.7299 0.7301 0.7306 0.7308
1825.000000 0.7312 0.7317 0.7319 0.7324 0.7326
1820.000000 0.7330 0.7334 0.7337 0.7340 0.7343
1815.000000 0.7346 0.7349 0.7351 0.7355 0.7358
1810.000000 0.7361 0.7365 0.7368 0.7371 0.7374
1805.000000 0.7378 0.7381 0.7385 0.7388 0.7392
1800.000000 0.7395 0.7398 0.7397 0.7396 0.7395
1795.000000 0.7394 0.7393 0.7392 0.7391 0.7389
1790.000000 0.7387 0.7384 0.7382 0.7378 0.7376
1785.000000 0.7397 0.7368 0.7364 0.7358 0.7354
1780.000000 0.7349 0.7344 0.7339 0.7334 0.7328
1775.000000 0.7325 0.7321 0.7318 0.7315 0.7311
1770.000000 0.7310 0.7308 0.7308 0.7307 0.7306
1765.000000 0.7305 0.7304 0.7303 0.7301 0.7301
1760.000000 0.7300 0.7299 0.7298 0.7297 0.7301
1755.000000 0.7305 0.7308 0.7311 0.7315 0.7321
1750.000000 0.7328 0.7337 0.7344 0.7351 0.7358
1745.000000 0.7365 0.7372 0.7380 0.7382 0.7383
1740.000000 0.7384 0.7385 0.7386 0.7386 0.7386
1735.000000 0.7386 0.7386 0.7382 0.7376 0.7371
1730.000000 0.7367 0.7365 0.7364 0.7362 0.7361
1725.000000 0.7361 0.7360 0.7360 0.7358 0.7358
1720.000000 0.7357 0.7357 0.7356 0.7356 0.7356
1715.000000 0.7356 0.7355 0.7355 0.7355 0.7354
1710.000000 0.7354 0.7354 0.7353 0.7353 0.7353
1705.000000 0.7351 0.7351 0.7351 0.7351 0.7351
1700.000000 0.7351 0.7350 0.7350 0.7349 0.7349
1695.000000 0.7349 0.7348 0.7348 0.7347 0.7347
1690.000000 0.7346 0.7346 0.7346 0.7345 0.7345
1685.000000 0.7344 0.7344 0.7343 0.7343 0.7343
1680.000000 0.7342 0.7341 0.7341 0.7340 0.7339
1675.000000 0.7338 0.7337 0.7336 0.7335 0.7335
1670.000000 0.7334 0.7328 0.7322 0.7318 0.7310
1665.000000 0.7303 0.7296 0.7292 0.7288 0.7283
1660.000000 0.7278 0.7275 0.7271 0.7265 0.7261
1655.000000 0.7258 0.7254 0.7249 0.7245 0.7240
1650.000000 0.7233 0.7225 0.7218 0.7211 0.7204
1645.000000 0.7196 0.7189 0.7182 0.7174 0.7167
1640.000000 0.7160 0.7151 0.7145 0.7138 0.7130
1635.000000 0.7122 0.7117 0.7110 0.7104 0.7098
1630.000000 0.7091 0.7085 0.7078 0.7071 0.7065
1625.000000 0.7058 0.7053 0.7047 0.7040 0.7034
1620.000000 0.7028 0.7021 0.7015 0.7008 0.7005
1615.000000 0.7001 0.6999 0.6996 0.6993 0.6990
1610.000000 0.6987 0.6984 0.6980 0.6976 0.6974
1605.000000 0.6971 0.6968 0.6965 0.6962 0.6960
1600.000000 0.6958 0.6956 0.6953 0.6951 0.6949
1595.000000 0.6946 0.6944 0.6942 0.6940 0.6939
1590.000000 0.6938 0.6937 0.6935 0.6934 0.6933
1585.000000 0.6931 0.6930 0.6928 0.6928 0.6925
1580.000000 0.6925 0.6924 0.6921 0.6921 0.6919
1575.000000 0.6918 0.6917 0.6915 0.6914 0.6912
1570.000000 0.6911 0.6910 0.6908 0.6908 0.6907
1565.000000 0.6905 0.6904 0.6903 0.6899 0.6894
1560.000000 0.6888 0.6883 0.6876 0.6871 0.6865
1555.000000 0.6861 0.6855 0.6843 0.6832 0.6819
1550.000000 0.6808 0.6799 0.6790 0.6781 0.6771
1545.000000 0.6762 0.6754 0.6745 0.6736 0.6726
1540.000000 0.6718 0.6708 0.6700 0.6690 0.6681
1535.000000 0.6671 0.6668 0.6664 0.6660 0.6656
1530.000000 0.6653 0.6653 0.6653 0.6651 0.6653
1525.000000 0.6660 0.6668 0.6675 0.6684 0.6695
1520.000000 0.6705 0.6715 0.6725 0.6735 0.6742
1515.000000 0.6745 0.6746 0.6748 0.6749 0.6751
1510.000000 0.6751 0.6754 0.6755 0.6757 0.6758
1505.000000 0.6761 0.6765 0.6768 0.6771 0.6775
1500.000000 0.6778 0.6782 0.6786 0.6792 0.6799
1495.000000 0.6807 0.6814 0.6821 0.6828 0.6838
1490.000000 0.6846 0.6855 0.6862 0.6871 0.6880
1485.000000 0.6889 0.6897 0.6905 0.6910 0.6915
1480.000000 0.6919 0.6924 0.6928 0.6932 0.6934
1475.000000 0.6935 0.6937 0.6939 0.6940 0.6941
1470.000000 0.6941 0.6941 0.6941 0.6941 0.6941
1465.000000 0.6941 0.6941 0.6941 0.6940 0.6936
1460.000000 0.6931 0.6925 0.6921 0.6915 0.6911
1455.000000 0.6906 0.6901 0.6896 0.6890 0.6884
1450.000000 0.6878 0.6871 0.6868 0.6864 0.6861
1445.000000 0.6858 0.6857 0.6856 0.6857 0.6861
1440.000000 0.6865 0.6868 0.6875 0.6883 0.6892
1435.000000 0.6900 0.6911 0.6926 0.6931 0.6935
1430.000000 0.6940 0.6944 0.6944 0.6944 0.6939
1425.000000 0.6925 0.6908 0.6798 0.6581 0.6489
1420.000000 0.6458 0.6518 0.6525 0.6547 0.6568
1415.000000 0.6567 0.6567 0.6564 0.6560 0.6568
1410.000000 0.6583 0.6611 0.6862 0.6983 0.7054
1405.000000 0.7083 0.7112 0.7143 0.7168 0.7194
1400.000000 0.7219 0.7246 0.7271 0.7297 0.7322
1395.000000 0.7353 0.7385 0.7415 0.7447 0.7476
1390.000000 0.7501 0.7528 0.7553 0.7578 0.7608
1385.000000 0.7637 0.7671 0.7701 0.7724 0.7730
1380.000000 0.7738 0.7722 0.7717 0.7710 0.7704
1375.000000 0.7697 0.7690 0.7683 0.7675 0.7668
1370.000000 0.7660 0.7651 0.7644 0.7635 0.7625
1365.000000 0.7617 0.7608 0.7599 0.7590 0.7576
1360.000000 0.7561 0.7546 0.7531 0.7511 0.7491
1355.000000 0.7469 0.7449 0.7422 0.7393 0.7361
1350.000000 0.7332 0.7290 0.7236 0.7171 0.7106
1345.000000 0.7049 0.6994 0.6944 0.6911 0.6880
1340.000000 0.6850 0.6818 0.6789 0.6756 0.6719
1335.000000 0.6684 0.6658 0.6630 0.6596 0.6561
1330.000000 0.6511 0.6453 0.6377 0.6002 0.5197
1325.000000 0.4393 0.3588 0.2651 0.2660 0.2658
1320.000000 0.2671 0.3318 0.3838 0.3866 0.3888
1315.000000 0.3914 0.4251 0.4587 0.4923 0.5259
1310.000000 0.5594 0.5930 0.6266 0.6359 0.6381
1305.000000 0.6380 0.6375 0.6369 0.6347 0.6325
1300.000000 0.6288 0.6243 0.6198 0.6136 0.6056
1295.000000 0.5976 0.5907 0.5854 0.5801 0.5749
1290.000000 0.5696 0.5639 0.5564 0.5488 0.5412
1285.000000 0.5321 0.5229 0.5139 0.5051 0.4964
1280.000000 0.4876 0.4784 0.4692 0.4614 0.4539
1275.000000 0.4464 0.4389 0.4297 0.4203 0.4096
1270.000000 0.3982 0.3880 0.3799 0.3718 0.3645
1265.000000 0.3573 0.3508 0.3464 0.3421 0.3377
1260.000000 0.3334 0.3297 0.3264 0.3237 0.3209
1255.000000 0.3185 0.3164 0.3148 0.3141 0.3133
1250.000000 0.3106 0.3122 0.3122 0.3124 0.3141
1245.000000 0.3158 0.3178 0.3202 0.3225 0.3248
1240.000000 0.3272 0.3295 0.3321 0.3347 0.3374
1235.000000 0.3400 0.3426 0.3452 0.3478 0.3504
1230.000000 0.3530 0.3557 0.3582 0.3609 0.3634
1225.000000 0.3659 0.3682 0.3707 0.3721 0.3732
1220.000000 0.3745 0.3757 0.3766 0.3771 0.3775
1215.000000 0.3779 0.3782 0.3786 0.3788 0.3788
1210.000000 0.3788 0.3788 0.3788 0.3788 0.3787
1205.000000 0.3787 0.3787 0.3787 0.3782 0.3775
1200.000000 0.3762 0.3748 0.3729 0.3709 0.3690
1195.000000 0.3647 0.3604 0.3560 0.3516 0.3471
1190.000000 0.3425 0.3377 0.3320 0.3268 0.3232
1185.000000 0.3218 0.3205 0.3191 0.3187 0.3184
1180.000000 0.3184 0.3182 0.3189 0.3205 0.3221
1175.000000 0.3246 0.3264 0.3280 0.3296 0.3307
1170.000000 0.3316 0.3316 0.3316 0.3314 0.3302
1165.000000 0.3282 0.3245 0.3202 0.3154 0.3106
1160.000000 0.3052 0.2987 0.2897 0.2805 0.2712
1155.000000 0.2644 0.2585 0.2550 0.2527 0.2507
1150.000000 0.2516 0.2525 0.2555 0.2640 0.2738
1145.000000 0.2822 0.2918 0.3033 0.3338 0.3476
1140.000000 0.3614 0.3753 0.3891 0.4026 0.4080
1135.000000 0.4101 0.4109 0.4116 0.4104 0.4089
1130.000000 0.4060 0.3994 0.3852 0.3671 0.3484
1125.000000 0.3296 0.3108 0.2920 0.2732 0.2545
1120.000000 0.2357 0.2169 0.2006 0.1953 0.1931
1115.000000 0.1911 0.1911 0.1920 0.1941 0.1986
1110.000000 0.2059 0.2361 0.2560 0.2760 0.2959
1105.000000 0.3158 0.3358 0.3557 0.3757 0.3956
1100.000000 0.4156 0.4355 0.4554 0.4810 0.4959
1095.000000 0.5089 0.5183 0.5280 0.5387 0.5484
1090.000000 0.5579 0.5674 0.5726 0.5760 0.5797
1085.000000 0.5833 0.5868 0.5912 0.5960 0.5988
1080.000000 0.6014 0.6040 0.6067 0.6083 0.6092
1075.000000 0.6100 0.6106 0.6112 0.6116 0.6121
1070.000000 0.6125 0.6129 0.6145 0.6124 0.6112
1065.000000 0.6100 0.6084 0.6065 0.6037 0.6010
1060.000000 0.5982 0.5936 0.5879 0.5818 0.5753
1055.000000 0.5689 0.5620 0.5552 0.5421 0.5259
1050.000000 0.5160 0.5062 0.4959 0.4766 0.4586
1045.000000 0.4427 0.4303 0.4238 0.4165 0.4077
1040.000000 0.3846 0.3616 0.3388 0.3159 0.2930
1035.000000 0.2701 0.2472 0.2243 0.2014 0.1784
1030.000000 0.1556 0.1327 0.1208 0.1092 0.0929
1025.000000 0.0821 0.0734 0.0650 0.0572 0.0512
1020.000000 0.0483 0.0467 0.0457 0.0454 0.0453
1015.000000 0.0452 0.0453 0.0458 0.0469 0.0500
1010.000000 0.0547 0.0620 0.0700 0.0791 0.0933
1005.000000 0.1078 0.1242 0.1459 0.1675 0.1891
1000.000000 0.2107 0.2323 0.2539 0.2755 0.2971
995.000000 0.3187 0.3468 0.3590 0.3718 0.3856
990.000000 0.4217 0.4386 0.4478 0.4570 0.4649
985.000000 0.4724 0.4790 0.4857 0.4924 0.4985
980.000000 0.5041 0.5082 0.5105 0.5112 0.5144
975.000000 0.5118 0.5114 0.5104 0.5055 0.4941
970.000000 0.4839 0.4549 0.4223 0.3898 0.3573
965.000000 0.3247 0.2922 0.2597 0.2271 0.1945
960.000000 0.1621 0.1296 0.0989 0.0959 0.0956
955.000000 0.0964 0.0996 0.1250 0.1594 0.1939
950.000000 0.2283 0.2627 0.2971 0.3314 0.3659
945.000000 0.4003 0.4348 0.4399 0.4376 0.4367
940.000000 0.4358 0.4318 0.4290 0.4258 0.4233
935.000000 0.4212 0.4188 0.4186 0.4170 0.4168
930.000000 0.4384 0.4687 0.4990 0.5293 0.5596
925.000000 0.5899 0.6202 0.6504 0.6661 0.6785
920.000000 0.6917 0.6982 0.7041 0.7101 0.7160
915.000000 0.7219 0.7281 0.7333 0.7358 0.7384
910.000000 0.7408 0.7433 0.7449 0.7465 0.7481
905.000000 0.7497 0.7511 0.7524 0.7535 0.7547
900.000000 0.7558 0.7568 0.7572 0.7578 0.7583
895.000000 0.7586 0.7568 0.7538 0.7500 0.7468
890.000000 0.7437 0.7391 0.7401 0.7408 0.7415
885.000000 0.7428 0.7448 0.7467 0.7485 0.7499
880.000000 0.7512 0.7528 0.7542 0.7556 0.7569
875.000000 0.7575 0.7582 0.7588 0.7594 0.7601
870.000000 0.7605 0.7604 0.7603 0.7601 0.7601
865.000000 0.7600 0.7599 0.7598 0.7595 0.7589
860.000000 0.7583 0.7576 0.7571 0.7565 0.7560
855.000000 0.7554 0.7548 0.7542 0.7537 0.7525
850.000000 0.7515 0.7506 0.7496 0.7486 0.7475
845.000000 0.7465 0.7458 0.7450 0.7442 0.7434
840.000000 0.7424 0.7410 0.7396 0.7381 0.7367
835.000000 0.7347 0.7318 0.7292 0.7264 0.7237
830.000000 0.7208 0.7167 0.7111 0.7048 0.6985
825.000000 0.6917 0.6833 0.6750 0.6687 0.6626
820.000000 0.6567 0.6507 0.6438 0.6332 0.6227
815.000000 0.6105 0.5980 0.5868 0.5775 0.5682
810.000000 0.5636 0.5602 0.5567 0.5524 0.5482
805.000000 0.5439 0.5388 0.5331 0.5278 0.5242
800.000000 0.5208 0.5198 0.5188 0.5179 0.5170
795.000000 0.5156 0.5140 0.5125 0.5106 0.5087
790.000000 0.5068 0.5049 0.5030 0.5012 0.4994
785.000000 0.4971 0.4940 0.4908 0.4877 0.4830
780.000000 0.4748 0.4597 0.4537 0.4404 0.4082
775.000000 0.3759 0.3438 0.3115 0.2793 0.2649
770.000000 0.2620 0.2684 0.2947 0.3375 0.3803
765.000000 0.4231 0.4659 0.5291 0.5460 0.5612
760.000000 0.5758 0.5866 0.5973 0.6056 0.6133
755.000000 0.6210 0.6283 0.6356 0.6428 0.6496
750.000000 0.6561 0.6628 0.6692 0.6748 0.6805
745.000000 0.6861 0.6904 0.6943 0.6982 0.7021
740.000000 0.7058 0.7098 0.7128 0.7158 0.7190
735.000000 0.7221 0.7246 0.7260 0.7265 0.7272
730.000000 0.7282 0.7284 0.7284 0.7285 0.7284
725.000000 0.7283 0.7283 0.7290 0.7297 0.7321
720.000000 0.7356 0.7386 0.7415 0.7456 0.7503
715.000000 0.7549 0.7594 0.7636 0.7678 0.7719
710.000000 0.7750 0.7778 0.7806 0.7834 0.7861
705.000000 0.7886 0.7908 0.7930 0.7951 0.7969
700.000000 0.7986 0.8001 0.8017 0.8032 0.8048
695.000000 0.8064 0.8081 0.8097 0.8114 0.8131
690.000000 0.8148 0.8165 0.8181 0.8198 0.8209
685.000000 0.8218 0.8228 0.8239 0.8250 0.8258
680.000000 0.8263 0.8268 0.8275 0.8278 0.8278
675.000000 0.8281 0.8282 0.8284 0.8285 0.8287
670.000000 0.8287 0.8287 0.8287 0.8287 0.8287
665.000000 0.8287 0.8288 0.8288 0.8289 0.8290
660.000000 0.8291 0.8293 0.8295 0.8297 0.8298
655.000000 0.8300 0.8302 0.8304 0.8305 0.8307
650.000000 0.8309 0.8310 0.8312 0.8313 0.8315
645.000000 0.8317 0.8318 0.8318 0.8318 0.8318
640.000000 0.8318 0.8318 0.8318 0.8320 0.8320
635.000000 0.8320 0.8320 0.8313 0.8312 0.8312
630.000000 0.8309 0.8306 0.8303 0.8301 0.8298
625.000000 0.8295 0.8292 0.8288 0.8284 0.8278
620.000000 0.8275 0.8270 0.8266 0.8261 0.8257
615.000000 0.8252 0.8248 0.8242 0.8236 0.8231
610.000000 0.8225 0.8221 0.8220 0.8218 0.8218
605.000000 0.8217 0.8216 0.8215 0.8214 0.8213
600.000000 0.8213 0.8213 0.8214 0.8214 0.8214
595.000000 0.8215 0.8215 0.8215 0.8215 0.8215
590.000000 0.8213 0.8212 0.8210 0.8209 0.8208
585.000000 0.8205 0.8203 0.8200 0.8198 0.8195
580.000000 0.8193 0.8190 0.8188 0.8185 0.8183
575.000000 0.8180 0.8176 0.8172 0.8169 0.8165
570.000000 0.8162 0.8160 0.8156 0.8153 0.8149
565.000000 0.8146 0.8142 0.8139 0.8136 0.8131
560.000000 0.8125 0.8118 0.8114 0.8108 0.8103
555.000000 0.8097 0.8091 0.8086 0.8080 0.8071
550.000000 0.8062 0.8053 0.8043 0.8034 0.8024
545.000000 0.8014 0.8004 0.7993 0.7982 0.7971
540.000000 0.7958 0.7948 0.7936 0.7925 0.7908
535.000000 0.7892 0.7875 0.7858 0.7838 0.7812
530.000000 0.7789 0.7764 0.7740 0.7711 0.7682
525.000000 0.7643 0.7568 0.7351 0.7108 0.6921
520.000000 0.6730 0.6583 0.6408 0.6295 0.6230
515.000000 0.6183 0.6157 0.6145 0.6143 0.6149
510.000000 0.6159 0.6169 0.6174 0.6174 0.6174
505.000000 0.6120 0.5612 0.5105 0.4597 0.4090
500.000000 0.3582 0.3547 0.3518 0.3614 0.3937
495.000000 0.4260 0.4583 0.4906 0.5229 0.5552
490.000000 0.5876 0.6199 0.6521 0.6783 0.6862
485.000000 0.6922 0.6962 0.7042 0.7021 0.7017
480.000000 0.7005 0.6988 0.6968 0.6896 0.6611
475.000000 0.6337 0.5980 0.5624 0.5267 0.4910
470.000000 0.4553 0.4196 0.3839 0.3482 0.3125
465.000000 0.2768 0.2412 0.2143 0.2104 0.2095
460.000000 0.2100 0.2275 0.2543 0.2705 0.2896
455.000000 0.3087 0.3278 0.3468 0.3659 0.3850
450.000000 0.4042 0.4233 0.4424 0.4615 0.4806
445.000000 0.4997 0.5188 0.5379 0.5570 0.5760
440.000000 0.5952 0.6143 0.6294 0.6430 0.6507
435.000000 0.6584 0.6639 0.6686 0.6719 0.6753
430.000000 0.6786 0.6814 0.6838 0.6854 0.6868
425.000000 0.6876 0.6878 0.6880 0.6882 0.6882
420.000000 0.6871 0.6874 0.6868 0.6865 0.6861
415.000000 0.6858 0.6854 0.6851 0.6847 0.6844
410.000000 0.6840 0.6834 0.6828 0.6821 0.6815
405.000000 0.6810 0.6804 0.6798 0.6793 0.6787
400.000000 0.6782 0.6775 0.6771 0.6765 0.6758
395.000000 0.6751 0.6743 0.6735 0.6726 0.6718
390.000000 0.6711 0.6704 0.6697 0.6691 0.6685
385.000000 0.6683
##END=
