##TITLE=OZONE
##JCAMP-DX=4.24
##DATA TYPE=INFRARED SPECTRUM
##CLASS=COBLENTZ
##ORIGIN=DOW CHEMICAL COMPANY
##OWNER=COBLENTZ SOCIETY
Collection (C) 2018 copyright by the U.S. Secretary of Commerce
on behalf of the United States of America. All rights reserved.
##DATE=1969/04/03
##CAS REGISTRY NO=10028-15-6
##MOLFORM=O3
##SOURCE REFERENCE=COBLENTZ NO. 10565
##$NIST SOURCE=COBLENTZ
##$NIST IMAGE=cob-r10565
##SPECTROMETER/DATA SYSTEM=BECKMAN IR-9 (GRATING)
##INSTRUMENT PARAMETERS=
$$ ABSORPTIONS DUE TO UNKNOWNS AT 2244 AND 2215 CM^-^1.
$$ ABSORPTION DUE TO CO2 AT 2376 CM^-^1.
##STATE=GAS (40 PPM)
##PATH LENGTH=1000 CM
##SAMPLING PROCEDURE=TRANSMISSION
##RESOLUTION=2
##DATA PROCESSING=DIGITIZED BY NIST FROM HARD COPY (FROM TWO SEGMENTS)
##XUNITS=1/CM
##YUNITS=TRANSMITTANCE
##XFACTOR=1.000000
##YFACTOR=1
##DELTAX=1.305486
##FIRSTX=402.089
##LASTX=3795.05
##FIRSTY=0.963
##MAXX=3795.05
##MINX=402.089
##MAXY=1.028
##MINY=0.135
##NPOINTS=2600
##XYDATA=(X++(Y..Y))
402.089000 0.9630 0.9630 0.9630 0.9610 0.9590
408.616431 0.9590 0.9560 0.9560 0.9540 0.9540
415.143863 0.9520 0.9520 0.9480 0.9420 0.9400
421.671294 0.9380 0.9360 0.9340 0.9320 0.9320
428.198726 0.9300 0.9240 0.9220 0.9200 0.9200
434.726157 0.9150 0.9130 0.9130 0.9110 0.9090
441.253588 0.9050 0.9050 0.9050 0.9050 0.9050
447.781020 0.9030 0.9030 0.9010 0.9010 0.9010
454.308451 0.9010 0.9010 0.8990 0.8990 0.8970
460.835882 0.8950 0.8950 0.8950 0.8970 0.8970
467.363314 0.8990 0.8990 0.8990 0.8990 0.8990
473.890745 0.9010 0.9030 0.9030 0.9090 0.9090
480.418177 0.9090 0.9110 0.9110 0.9110 0.9110
486.945608 0.9130 0.9150 0.9180 0.9200 0.9200
493.473039 0.9200 0.9220 0.9220 0.9300 0.9340
500.000471 0.9340 0.9360 0.9360 0.9360 0.9360
506.527902 0.9380 0.9400 0.9420 0.9420 0.9440
513.055333 0.9440 0.9460 0.9460 0.9480 0.9500
519.582765 0.9520 0.9540 0.9560 0.9560 0.9590
526.110196 0.9590 0.9610 0.9630 0.9670 0.9710
532.637628 0.9730 0.9750 0.9770 0.9770 0.9790
539.165059 0.9830 0.9850 0.9870 0.9890 0.9910
545.692490 0.9930 1.0040 1.0060 1.0080 1.0080
552.219922 1.0100 1.0100 1.0120 1.0120 1.0160
558.747353 1.0180 1.0180 1.0180 1.0200 1.0220
565.274785 1.0220 1.0220 1.0240 1.0240 1.0240
571.802216 1.0260 1.0260 1.0260 1.0260 1.0260
578.329647 1.0260 1.0260 1.0280 1.0280 1.0280
584.857079 1.0260 1.0260 1.0260 1.0260 1.0260
591.384510 1.0260 1.0260 1.0260 1.0280 1.0280
597.911941 1.0280 1.0280 1.0280 1.0280 1.0260
604.439373 1.0260 1.0280 1.0280 1.0260 1.0260
610.966804 1.0240 1.0220 1.0220 1.0140 1.0080
617.494236 1.0060 1.0060 1.0060 1.0060 1.0060
624.021667 1.0040 1.0040 1.0020 1.0020 1.0000
630.549098 1.0000 1.0000 0.9970 0.9930 0.9890
637.076530 0.9810 0.9770 0.9750 0.9710 0.9670
643.603961 0.9610 0.9590 0.9481 0.9381 0.9320
650.131392 0.9300 0.9280 0.9240 0.9220 0.9200
656.658824 0.9200 0.9200 0.9200 0.9180 0.9180
663.186255 0.9130 0.9030 0.8950 0.8850 0.8790
669.713687 0.8750 0.8750 0.8830 0.8830 0.8174
676.241118 0.7950 0.7930 0.7930 0.7930 0.7930
682.768549 0.7930 0.7930 0.7930 0.7950 0.7970
689.295981 0.8050 0.8050 0.8110 0.8130 0.8150
695.823412 0.8230 0.8270 0.8360 0.8440 0.8460
702.350843 0.8500 0.8520 0.8520 0.8520 0.8520
708.878275 0.8520 0.8520 0.8520 0.8520 0.8520
715.405706 0.8500 0.8500 0.8500 0.8480 0.8460
721.933138 0.8480 0.8500 0.8540 0.8600 0.8660
728.460569 0.8700 0.8720 0.8750 0.8770 0.8790
734.988000 0.8830 0.8850 0.8850 0.8910 0.8910
741.515432 0.8930 0.8930 0.8950 0.8950 0.8950
748.042863 0.8990 0.9010 0.9050 0.9070 0.9110
754.570295 0.9110 0.9130 0.9130 0.9130 0.9130
761.097726 0.9150 0.9180 0.9180 0.9180 0.9180
767.625157 0.9180 0.9200 0.9200 0.9200 0.9200
774.152589 0.9180 0.9150 0.9150 0.9150 0.9130
780.680020 0.9070 0.9050 0.9030 0.9030 0.9010
787.207451 0.8990 0.8970 0.8950 0.8950 0.8910
793.734883 0.8890 0.8870 0.8870 0.8870 0.8890
800.262314 0.8890 0.8910 0.8910 0.8910 0.8910
806.789746 0.8910 0.8910 0.8930 0.8950 0.9010
813.317177 0.9050 0.9110 0.9110 0.9130 0.9150
819.844608 0.9180 0.9200 0.9220 0.9240 0.9240
826.372040 0.9240 0.9260 0.9260 0.9280 0.9280
832.899471 0.9280 0.9280 0.9280 0.9280 0.9280
839.426902 0.9280 0.9260 0.9260 0.9260 0.9260
845.954334 0.9260 0.9240 0.9240 0.9240 0.9240
852.481765 0.9240 0.9240 0.9260 0.9260 0.9260
859.009197 0.9260 0.9260 0.9260 0.9260 0.9260
865.536628 0.9260 0.9260 0.9260 0.9260 0.9260
872.064059 0.9260 0.9260 0.9260 0.9260 0.9260
878.591491 0.9260 0.9260 0.9260 0.9260 0.9260
885.118922 0.9260 0.9260 0.9260 0.9260 0.9260
891.646354 0.9260 0.9240 0.9240 0.9220 0.9220
898.173785 0.9220 0.9220 0.9240 0.9240 0.9220
904.701216 0.9200 0.9200 0.9200 0.9200 0.9200
911.228648 0.9200 0.9180 0.9180 0.9180 0.9180
917.756079 0.9180 0.9150 0.9150 0.9150 0.9150
924.283510 0.9150 0.9130 0.9130 0.9130 0.9130
930.810942 0.9110 0.9110 0.9110 0.9110 0.9090
937.338373 0.9090 0.9090 0.9070 0.9070 0.9070
943.865805 0.9070 0.9070 0.9070 0.9070 0.9070
950.393236 0.9070 0.9070 0.9070 0.9070 0.9070
956.920667 0.9050 0.9070 0.9070 0.9070 0.9050
963.448099 0.9050 0.9050 0.9050 0.9030 0.9030
969.975530 0.9010 0.9010 0.8990 0.8970 0.8950
976.502961 0.8950 0.8930 0.8910 0.8870 0.8830
983.030393 0.8790 0.8750 0.8700 0.8640 0.8580
989.557824 0.8540 0.8360 0.8310 0.8170 0.7990
996.085256 0.7820 0.7661 0.7580 0.7291 0.7131
1002.612687 0.6940 0.6700 0.6330 0.6020 0.5880
1009.140118 0.5611 0.5361 0.4912 0.4562 0.4361
1015.667550 0.3990 0.3910 0.3810 0.3660 0.3480
1022.194981 0.3171 0.2931 0.2821 0.2721 0.2621
1028.722413 0.2600 0.2600 0.2600 0.2600 0.2620
1035.249844 0.2660 0.2720 0.2720 0.2740 0.2740
1041.777275 0.2739 0.2314 0.7170 0.5771 0.4362
1048.304707 0.3911 0.3461 0.2683 0.2133 0.1633
1054.832138 0.1470 0.1390 0.1350 0.1370 0.1450
1061.359569 0.1550 0.1650 0.2596 0.4660 0.5018
1067.887001 0.5882 0.7251 0.7970 0.8340 0.8500
1074.414432 0.8520 0.8540 0.8540 0.8600 0.8680
1080.941864 0.8700 0.8720 0.8720 0.8750 0.8770
1087.469295 0.8790 0.8810 0.8810 0.8830 0.8830
1093.996726 0.8830 0.8830 0.8830 0.8830 0.8830
1100.524158 0.8830 0.8850 0.8850 0.8850 0.8850
1107.051589 0.8850 0.8830 0.8830 0.8830 0.8830
1113.579020 0.8830 0.8830 0.8830 0.8810 0.8810
1120.106452 0.8810 0.8810 0.8830 0.8830 0.8830
1126.633883 0.8830 0.8830 0.8850 0.8890 0.8890
1133.161315 0.8910 0.8910 0.8930 0.8930 0.8930
1139.688746 0.8910 0.8910 0.8870 0.8870 0.8850
1146.216177 0.8870 0.8910 0.8910 0.8930 0.8930
1152.743609 0.8930 0.8930 0.8930 0.8930 0.8950
1159.271040 0.8950 0.8950 0.8930 0.8910 0.8890
1165.798471 0.8870 0.8890 0.8950 0.9089 0.9110
1172.325903 0.9110 0.9130 0.9150 0.9200 0.9200
1178.853334 0.9130 0.9090 0.9090 0.9110 0.9150
1185.380766 0.9180 0.9220 0.9260 0.9300 0.9300
1191.908197 0.9300 0.9320 0.9320 0.9320 0.9320
1198.435628 0.9320 0.9320 0.9280 0.9200 0.8910
1204.963060 0.8750 0.8720 0.8700 0.8700 0.8700
1211.490491 0.8680 0.8680 0.8660 0.8620 0.8620
1218.017923 0.8580 0.8580 0.8620 0.8620 0.8640
1224.545354 0.8640 0.8660 0.8700 0.8640 0.8640
1231.072785 0.8640 0.8640 0.8640 0.8660 0.8680
1237.600217 0.8700 0.8750 0.8770 0.8770 0.8770
1244.127648 0.8790 0.8790 0.8810 0.8810 0.8810
1250.655079 0.8810 0.8770 0.8750 0.8750 0.8720
1257.182511 0.8700 0.8700 0.8700 0.8700 0.8680
1263.709942 0.8680 0.8600 0.8600 0.8660 0.8660
1270.237374 0.8660 0.8660 0.8660 0.8640 0.8640
1276.764805 0.8640 0.8620 0.8620 0.8640 0.8640
1283.292236 0.8680 0.8700 0.8700 0.8720 0.8720
1289.819668 0.8720 0.8700 0.8680 0.8680 0.8640
1296.347099 0.8600 0.8560 0.8520 0.8520 0.8520
1302.874530 0.8500 0.8500 0.8500 0.8480 0.8480
1309.401962 0.8480 0.8480 0.8500 0.8500 0.8520
1315.929393 0.8520 0.8540 0.8560 0.8560 0.8560
1322.456825 0.8560 0.8560 0.8560 0.8560 0.8540
1328.984256 0.8540 0.8540 0.8520 0.8520 0.8520
1335.511687 0.8520 0.8500 0.8500 0.8480 0.8480
1342.039119 0.8480 0.8480 0.8460 0.8420 0.8380
1348.566550 0.8360 0.8360 0.8340 0.8310 0.8310
1355.093982 0.8290 0.8250 0.8230 0.8170 0.8130
1361.621413 0.8110 0.8110 0.8110 0.8110 0.8110
1368.148844 0.8090 0.8030 0.8010 0.7990 0.7970
1374.676276 0.7970 0.7970 0.7970 0.7970 0.7990
1381.203707 0.7990 0.7990 0.8010 0.8010 0.8050
1387.731138 0.8070 0.8090 0.8170 0.8170 0.8190
1394.258570 0.8190 0.8190 0.8210 0.8250 0.8270
1400.786001 0.8290 0.8310 0.8310 0.8340 0.8340
1407.313433 0.8360 0.8380 0.8400 0.8420 0.8420
1413.840864 0.8420 0.8420 0.8420 0.8311 0.8340
1420.368295 0.8360 0.8420 0.8420 0.8440 0.8480
1426.895727 0.8480 0.8500 0.8500 0.8500 0.8500
1433.423158 0.8500 0.8500 0.8480 0.8380 0.8500
1439.950589 0.8500 0.8500 0.8520 0.8520 0.8520
1446.478021 0.8520 0.8520 0.8500 0.8500 0.8500
1453.005452 0.8480 0.8440 0.8380 0.8360 0.8270
1459.532884 0.8340 0.8420 0.8440 0.8460 0.8460
1466.060315 0.8460 0.8460 0.8500 0.8500 0.8401
1472.587746 0.8340 0.8310 0.8340 0.8360 0.8440
1479.115178 0.8480 0.8480 0.8480 0.8500 0.8500
1485.642609 0.8500 0.8500 0.8420 0.8400 0.8360
1492.170040 0.8400 0.8420 0.8480 0.8500 0.8500
1498.697472 0.8460 0.8440 0.8440 0.8440 0.8440
1505.224903 0.8380 0.8250 0.8150 0.8150 0.8250
1511.752335 0.8270 0.8290 0.8340 0.8340 0.8310
1518.279766 0.8250 0.8190 0.8150 0.8170 0.8190
1524.807197 0.8210 0.8210 0.8210 0.8250 0.8270
1531.334629 0.8310 0.8310 0.8310 0.8310 0.8270
1537.862060 0.8190 0.8150 0.8110 0.8030 0.8030
1544.389492 0.8090 0.8130 0.8170 0.8230 0.8310
1550.916923 0.8360 0.8340 0.8310 0.8290 0.8290
1557.444354 0.8110 0.7761 0.7760 0.8308 0.8340
1563.971786 0.8360 0.8360 0.8360 0.8290 0.8250
1570.499217 0.8270 0.8360 0.8360 0.8360 0.8360
1577.026648 0.8250 0.8340 0.8360 0.8400 0.8420
1583.554080 0.8420 0.8420 0.8440 0.8440 0.8460
1590.081511 0.8460 0.8460 0.8440 0.8440 0.8440
1596.608943 0.8440 0.8440 0.8480 0.8480 0.8440
1603.136374 0.8440 0.8440 0.8440 0.8440 0.8440
1609.663805 0.8440 0.8420 0.8420 0.8420 0.8400
1616.191237 0.8290 0.8270 0.8290 0.8340 0.8340
1622.718668 0.8340 0.8340 0.8340 0.8340 0.8340
1629.246099 0.8310 0.8310 0.8340 0.8340 0.8340
1635.773531 0.8250 0.8150 0.8150 0.8270 0.8270
1642.300962 0.8270 0.8270 0.8250 0.8230 0.8210
1648.828394 0.8190 0.8170 0.8030 0.7861 0.7860
1655.355825 0.7951 0.8170 0.8230 0.8250 0.8290
1661.883256 0.8270 0.8250 0.8250 0.8250 0.8250
1668.410688 0.8170 0.8130 0.8110 0.8090 0.8090
1674.938119 0.8090 0.8110 0.8110 0.8130 0.8150
1681.465551 0.8130 0.8110 0.7970 0.7950 0.7950
1687.992982 0.8090 0.8110 0.8110 0.8090 0.8070
1694.520413 0.8050 0.8030 0.7970 0.7680 0.7640
1701.047845 0.7660 0.7969 0.7990 0.8010 0.7970
1707.575276 0.8010 0.8070 0.8090 0.8110 0.8110
1714.102707 0.8030 0.7950 0.7880 0.7721 0.7720
1720.630139 0.7820 0.7820 0.7840 0.7840 0.7840
1727.157570 0.7840 0.7840 0.7820 0.7780 0.7740
1733.685002 0.7580 0.7520 0.7450 0.7430 0.7430
1740.212433 0.7430 0.7430 0.7430 0.7450 0.7470
1746.739864 0.7500 0.7500 0.7520 0.7580 0.7600
1753.267296 0.7640 0.7700 0.7720 0.7760 0.7780
1759.794727 0.7820 0.7840 0.7840 0.7900 0.7930
1766.322158 0.7950 0.7970 0.7990 0.7990 0.7930
1772.849590 0.7900 0.7930 0.7950 0.7970 0.8030
1779.377021 0.8050 0.8090 0.8090 0.8090 0.8090
1785.904453 0.8090 0.8090 0.8090 0.8070 0.8070
1792.431884 0.8050 0.8050 0.8050 0.8070 0.8070
1798.959315 0.8070 0.8090 0.8090 0.8110 0.8110
1805.486747 0.8110 0.8130 0.8130 0.8130 0.8130
1812.014178 0.8150 0.8150 0.8170 0.8170 0.8190
1818.541610 0.8190 0.8210 0.8210 0.8210 0.8210
1825.069041 0.8190 0.8190 0.8170 0.8130 0.8130
1831.596472 0.8130 0.8150 0.8170 0.8190 0.8210
1838.123904 0.8210 0.8250 0.8250 0.8230 0.8130
1844.651335 0.8130 0.8150 0.8150 0.8190 0.8210
1851.178766 0.8230 0.8270 0.8270 0.8270 0.8290
1857.706198 0.8290 0.8290 0.8290 0.8290 0.8290
1864.233629 0.8290 0.8270 0.8270 0.8250 0.8250
1870.761061 0.8250 0.8270 0.8270 0.8270 0.8290
1877.288492 0.8290 0.8310 0.8310 0.8310 0.8310
1883.815923 0.8310 0.8310 0.8310 0.8340 0.8340
1890.343355 0.8310 0.8310 0.8310 0.8310 0.8310
1896.870786 0.8310 0.8310 0.8340 0.8340 0.8340
1903.398217 0.8340 0.8340 0.8340 0.8310 0.8310
1909.925649 0.8310 0.8310 0.8310 0.8290 0.8290
1916.453080 0.8270 0.8250 0.8250 0.8250 0.8270
1922.980512 0.8270 0.8270 0.8270 0.8250 0.8250
1929.507943 0.8290 0.8290 0.8290 0.8290 0.8290
1936.035374 0.8290 0.8290 0.8290 0.8270 0.8270
1942.562806 0.8270 0.8270 0.8270 0.8270 0.8270
1949.090237 0.8270 0.8250 0.8250 0.8250 0.8250
1955.617668 0.8250 0.8250 0.8250 0.8230 0.8230
1962.145100 0.8250 0.8250 0.8250 0.8250 0.8290
1968.672531 0.8290 0.8250 0.8250 0.8250 0.8270
1975.199963 0.8290 0.8290 0.8290 0.8270 0.8250
1981.727394 0.8250 0.8250 0.8250 0.8250 0.8270
1988.254825 0.8270 0.8270 0.8250 0.8230 0.8230
1994.782257 0.8230 0.8250 0.8290 0.8290 0.8290
2001.309688 0.8290 0.8290 0.8280 0.8270 0.8220
2007.837120 0.8170 0.8160 0.8150 0.8140 0.8130
2014.364551 0.8130 0.8130 0.8130 0.8130 0.8120
2020.891982 0.8110 0.8100 0.8090 0.8090 0.8089
2027.419414 0.8069 0.8049 0.8029 0.8010 0.8010
2033.946845 0.8010 0.8000 0.7990 0.7990 0.7990
2040.474276 0.7990 0.7990 0.7980 0.7970 0.7970
2047.001708 0.7970 0.7959 0.7949 0.7939 0.7929
2053.529139 0.7914 0.7900 0.7900 0.7899 0.7889
2060.056571 0.7879 0.7869 0.7859 0.7849 0.7837
2066.584002 0.7807 0.7778 0.7758 0.7739 0.7729
2073.111433 0.7719 0.7709 0.7696 0.7656 0.7618
2079.638865 0.7598 0.7579 0.7569 0.7559 0.7549
2086.166296 0.7534 0.7489 0.7445 0.7405 0.7366
2092.693727 0.7336 0.7306 0.7276 0.7247 0.7227
2099.221159 0.7207 0.7187 0.7170 0.7170 0.7168
2105.748590 0.7158 0.7152 0.7162 0.7173 0.7193
2112.276022 0.7212 0.7222 0.7230 0.7230 0.7220
2118.803453 0.7160 0.7099 0.7034 0.6965 0.6875
2125.330884 0.6790 0.6730 0.6672 0.6627 0.6592
2131.858316 0.6602 0.6674 0.6994 0.7283 0.7448
2138.385747 0.7592 0.7652 0.7702 0.7712 0.7722
2144.913179 0.7732 0.7740 0.7740 0.7742 0.7752
2151.440610 0.7760 0.7760 0.7760 0.7760 0.7760
2157.968041 0.7760 0.7755 0.7735 0.7720 0.7720
2164.495473 0.7720 0.7720 0.7718 0.7708 0.7695
2171.022904 0.7675 0.7660 0.7660 0.7658 0.7648
2177.550335 0.7638 0.7628 0.7620 0.7620 0.7617
2184.077767 0.7607 0.7600 0.7600 0.7594 0.7574
2190.605198 0.7557 0.7547 0.7537 0.7527 0.7513
2197.132630 0.7488 0.7464 0.7444 0.7424 0.7404
2203.660061 0.7387 0.7377 0.7353 0.7292 0.7244
2210.187492 0.7224 0.7210 0.7210 0.7207 0.7197
2216.714924 0.7193 0.7203 0.7213 0.7223 0.7233
2223.242355 0.7243 0.7260 0.7290 0.7320 0.7350
2229.769786 0.7370 0.7370 0.7350 0.7289 0.7236
2236.297218 0.7196 0.7143 0.7068 0.7016 0.7006
2242.824649 0.7000 0.7000 0.7004 0.7014 0.7027
2249.352081 0.7047 0.7073 0.7108 0.7141 0.7171
2255.879512 0.7205 0.7245 0.7281 0.7312 0.7342
2262.406943 0.7372 0.7394 0.7404 0.7414 0.7424
2268.934375 0.7430 0.7430 0.7434 0.7444 0.7450
2275.461806 0.7450 0.7454 0.7464 0.7476 0.7491
2281.989238 0.7500 0.7500 0.7504 0.7514 0.7520
2288.516669 0.7520 0.7520 0.7520 0.7509 0.7484
2295.044100 0.7457 0.7427 0.7392 0.7352 0.7312
2301.571532 0.7272 0.7246 0.7236 0.7217 0.7187
2308.098963 0.7146 0.7091 0.7033 0.6972 0.6897
2314.626394 0.6807 0.6746 0.6716 0.6645 0.6530
2321.153826 0.6432 0.6352 0.6265 0.6170 0.6096
2327.681257 0.6046 0.5965 0.5850 0.5747 0.5657
2334.208689 0.5576 0.5506 0.5438 0.5372 0.5330
2340.736120 0.5310 0.5295 0.5285 0.5270 0.5250
2347.263551 0.5230 0.5210 0.5195 0.5185 0.5175
2353.790983 0.5165 0.5150 0.5130 0.5110 0.5090
2360.318414 0.5070 0.5050 0.5035 0.5025 0.5014
2366.845845 0.5004 0.4970 0.4915 0.4884 0.4874
2373.373277 0.4864 0.4854 0.4856 0.4866 0.4892
2379.900708 0.4932 0.5059 0.5254 0.5700 0.6345
2386.428140 0.6803 0.7114 0.7301 0.7393 0.7457
2392.955571 0.7502 0.7526 0.7536 0.7540 0.7540
2399.483002 0.7552 0.7572 0.7580 0.7580 0.7580
2406.010434 0.7580 0.7580 0.7580 0.7580 0.7580
2412.537865 0.7580 0.7580 0.7586 0.7596 0.7600
2419.065296 0.7600 0.7600 0.7600 0.7600 0.7600
2425.592728 0.7600 0.7600 0.7600 0.7600 0.7600
2432.120159 0.7600 0.7600 0.7600 0.7594 0.7584
2438.647591 0.7580 0.7580 0.7580 0.7580 0.7580
2445.175022 0.7580 0.7573 0.7563 0.7560 0.7560
2451.702453 0.7560 0.7560 0.7560 0.7560 0.7567
2458.229885 0.7577 0.7580 0.7580 0.7580 0.7580
2464.757316 0.7580 0.7580 0.7580 0.7580 0.7580
2471.284748 0.7580 0.7580 0.7580 0.7580 0.7580
2477.812179 0.7580 0.7580 0.7580 0.7580 0.7580
2484.339610 0.7580 0.7573 0.7563 0.7560 0.7560
2490.867042 0.7560 0.7560 0.7560 0.7560 0.7560
2497.394473 0.7560 0.7560 0.7560 0.7560 0.7560
2503.921904 0.7560 0.7560 0.7560 0.7560 0.7560
2510.449336 0.7560 0.7560 0.7560 0.7560 0.7560
2516.976767 0.7560 0.7560 0.7560 0.7560 0.7560
2523.504199 0.7560 0.7560 0.7560 0.7560 0.7560
2530.031630 0.7560 0.7560 0.7568 0.7578 0.7572
2536.559061 0.7562 0.7560 0.7560 0.7560 0.7560
2543.086493 0.7560 0.7560 0.7560 0.7560 0.7560
2549.613924 0.7560 0.7560 0.7560 0.7560 0.7560
2556.141355 0.7560 0.7560 0.7552 0.7542 0.7540
2562.668787 0.7540 0.7540 0.7540 0.7540 0.7540
2569.196218 0.7540 0.7540 0.7540 0.7540 0.7540
2575.723650 0.7540 0.7540 0.7540 0.7531 0.7521
2582.251081 0.7520 0.7520 0.7520 0.7520 0.7520
2588.778512 0.7520 0.7511 0.7501 0.7500 0.7500
2595.305944 0.7500 0.7500 0.7500 0.7500 0.7486
2601.833375 0.7471 0.7470 0.7470 0.7470 0.7470
2608.360807 0.7470 0.7470 0.7470 0.7470 0.7461
2614.888238 0.7451 0.7450 0.7450 0.7450 0.7450
2621.415669 0.7450 0.7450 0.7441 0.7431 0.7430
2627.943101 0.7430 0.7430 0.7430 0.7430 0.7430
2634.470532 0.7430 0.7430 0.7430 0.7430 0.7421
2640.997963 0.7411 0.7410 0.7410 0.7410 0.7410
2647.525395 0.7410 0.7410 0.7410 0.7410 0.7410
2654.052826 0.7410 0.7410 0.7410 0.7410 0.7410
2660.580258 0.7410 0.7410 0.7410 0.7410 0.7400
2667.107689 0.7390 0.7390 0.7390 0.7390 0.7390
2673.635120 0.7380 0.7370 0.7380 0.7390 0.7390
2680.162552 0.7390 0.7380 0.7370 0.7370 0.7370
2686.689983 0.7370 0.7370 0.7360 0.7350 0.7350
2693.217414 0.7350 0.7350 0.7350 0.7340 0.7330
2699.744846 0.7330 0.7330 0.7330 0.7330 0.7330
2706.272277 0.7330 0.7330 0.7330 0.7330 0.7330
2712.799709 0.7330 0.7330 0.7330 0.7331 0.7341
2719.327140 0.7349 0.7339 0.7330 0.7330 0.7330
2725.854571 0.7330 0.7330 0.7330 0.7330 0.7330
2732.382003 0.7330 0.7330 0.7330 0.7330 0.7329
2738.909434 0.7319 0.7310 0.7310 0.7310 0.7310
2745.436865 0.7310 0.7310 0.7309 0.7299 0.7290
2751.964297 0.7290 0.7290 0.7290 0.7290 0.7290
2758.491728 0.7290 0.7290 0.7290 0.7290 0.7290
2765.019160 0.7290 0.7289 0.7279 0.7269 0.7259
2771.546591 0.7250 0.7250 0.7250 0.7250 0.7249
2778.074022 0.7239 0.7230 0.7230 0.7230 0.7230
2784.601454 0.7230 0.7230 0.7230 0.7230 0.7228
2791.128885 0.7218 0.7210 0.7210 0.7210 0.7210
2797.656317 0.7208 0.7198 0.7190 0.7190 0.7190
2804.183748 0.7190 0.7188 0.7178 0.7170 0.7170
2810.711179 0.7170 0.7170 0.7170 0.7170 0.7170
2817.238611 0.7170 0.7170 0.7170 0.7170 0.7170
2823.766042 0.7170 0.7170 0.7170 0.7170 0.7170
2830.293473 0.7170 0.7170 0.7170 0.7167 0.7157
2836.820905 0.7150 0.7150 0.7150 0.7150 0.7153
2843.348336 0.7163 0.7170 0.7170 0.7167 0.7157
2849.875768 0.7150 0.7150 0.7150 0.7150 0.7150
2856.403199 0.7150 0.7147 0.7137 0.7127 0.7117
2862.930630 0.7110 0.7110 0.7107 0.7097 0.7090
2869.458062 0.7090 0.7090 0.7090 0.7090 0.7090
2875.985493 0.7090 0.7090 0.7085 0.7070 0.7060
2882.512924 0.7060 0.7060 0.7060 0.7060 0.7060
2889.040356 0.7060 0.7060 0.7060 0.7060 0.7057
2895.567787 0.7047 0.7040 0.7040 0.7040 0.7040
2902.095219 0.7040 0.7040 0.7040 0.7040 0.7040
2908.622650 0.7040 0.7040 0.7040 0.7036 0.7026
2915.150081 0.7020 0.7020 0.7020 0.7020 0.7020
2921.677513 0.7020 0.7016 0.7006 0.7000 0.7000
2928.204944 0.7000 0.7000 0.7000 0.7000 0.6996
2934.732376 0.6986 0.6980 0.6980 0.6976 0.6966
2941.259807 0.6960 0.6960 0.6960 0.6960 0.6960
2947.787238 0.6960 0.6960 0.6960 0.6960 0.6960
2954.314670 0.6956 0.6946 0.6940 0.6940 0.6940
2960.842101 0.6940 0.6940 0.6940 0.6940 0.6940
2967.369532 0.6935 0.6925 0.6920 0.6920 0.6920
2973.896964 0.6920 0.6920 0.6920 0.6920 0.6920
2980.424395 0.6920 0.6920 0.6920 0.6920 0.6920
2986.951827 0.6920 0.6920 0.6920 0.6920 0.6920
2993.479258 0.6920 0.6920 0.6920 0.6920 0.6920
3000.006689 0.6920 0.6920 0.6920 0.6920 0.6920
3006.534121 0.6920 0.6920 0.6920 0.6920 0.6920
3013.061552 0.6920 0.6920 0.6920 0.6920 0.6920
3019.588983 0.6915 0.6905 0.6900 0.6900 0.6900
3026.116415 0.6900 0.6895 0.6885 0.6880 0.6880
3032.643846 0.6880 0.6880 0.6880 0.6880 0.6880
3039.171278 0.6880 0.6880 0.6880 0.6880 0.6880
3045.698709 0.6874 0.6864 0.6860 0.6860 0.6860
3052.226140 0.6860 0.6860 0.6860 0.6860 0.6860
3058.753572 0.6860 0.6860 0.6854 0.6844 0.6840
3065.281003 0.6840 0.6840 0.6840 0.6846 0.6856
3071.808435 0.6860 0.6860 0.6860 0.6860 0.6860
3078.335866 0.6860 0.6860 0.6860 0.6860 0.6860
3084.863297 0.6860 0.6860 0.6860 0.6860 0.6866
3091.390729 0.6876 0.6880 0.6880 0.6880 0.6880
3097.918160 0.6880 0.6880 0.6880 0.6880 0.6880
3104.445591 0.6880 0.6873 0.6863 0.6860 0.6860
3110.973023 0.6860 0.6860 0.6860 0.6860 0.6860
3117.500454 0.6860 0.6860 0.6860 0.6860 0.6860
3124.027886 0.6860 0.6860 0.6860 0.6860 0.6860
3130.555317 0.6860 0.6853 0.6843 0.6840 0.6840
3137.082748 0.6840 0.6840 0.6840 0.6840 0.6840
3143.610180 0.6840 0.6840 0.6840 0.6833 0.6823
3150.137611 0.6820 0.6820 0.6820 0.6820 0.6820
3156.665042 0.6820 0.6813 0.6803 0.6800 0.6800
3163.192474 0.6800 0.6800 0.6800 0.6800 0.6800
3169.719905 0.6800 0.6800 0.6800 0.6800 0.6800
3176.247337 0.6792 0.6782 0.6780 0.6780 0.6780
3182.774768 0.6780 0.6780 0.6780 0.6780 0.6780
3189.302199 0.6780 0.6780 0.6780 0.6780 0.6780
3195.829631 0.6780 0.6780 0.6780 0.6780 0.6780
3202.357062 0.6780 0.6780 0.6780 0.6780 0.6780
3208.884493 0.6780 0.6780 0.6780 0.6772 0.6762
3215.411925 0.6760 0.6760 0.6760 0.6760 0.6760
3221.939356 0.6760 0.6760 0.6760 0.6752 0.6742
3228.466788 0.6740 0.6740 0.6740 0.6740 0.6740
3234.994219 0.6740 0.6740 0.6740 0.6732 0.6722
3241.521650 0.6720 0.6720 0.6720 0.6720 0.6720
3248.049082 0.6720 0.6720 0.6720 0.6711 0.6701
3254.576513 0.6700 0.6700 0.6700 0.6700 0.6691
3261.103945 0.6681 0.6680 0.6680 0.6680 0.6680
3267.631376 0.6667 0.6652 0.6650 0.6650 0.6650
3274.158807 0.6650 0.6650 0.6650 0.6641 0.6631
3280.686239 0.6630 0.6630 0.6630 0.6630 0.6621
3287.213670 0.6611 0.6610 0.6610 0.6610 0.6610
3293.741101 0.6610 0.6610 0.6610 0.6610 0.6610
3300.268533 0.6610 0.6601 0.6590 0.6590 0.6590
3306.795964 0.6580 0.6570 0.6570 0.6570 0.6570
3313.323396 0.6570 0.6570 0.6570 0.6560 0.6550
3319.850827 0.6540 0.6530 0.6530 0.6530 0.6530
3326.378258 0.6530 0.6530 0.6530 0.6520 0.6510
3332.905690 0.6510 0.6510 0.6510 0.6510 0.6500
3339.433121 0.6490 0.6490 0.6490 0.6490 0.6490
3345.960552 0.6490 0.6490 0.6490 0.6490 0.6480
3352.487984 0.6470 0.6470 0.6470 0.6470 0.6470
3359.015415 0.6470 0.6470 0.6470 0.6470 0.6470
3365.542847 0.6470 0.6470 0.6470 0.6470 0.6470
3372.070278 0.6460 0.6450 0.6450 0.6450 0.6450
3378.597709 0.6450 0.6450 0.6450 0.6450 0.6450
3385.125141 0.6450 0.6450 0.6450 0.6450 0.6450
3391.652572 0.6450 0.6450 0.6450 0.6450 0.6451
3398.180004 0.6461 0.6470 0.6470 0.6469 0.6459
3404.707435 0.6450 0.6450 0.6450 0.6450 0.6450
3411.234866 0.6450 0.6450 0.6450 0.6450 0.6450
3417.762298 0.6450 0.6450 0.6450 0.6450 0.6450
3424.289729 0.6450 0.6449 0.6439 0.6430 0.6430
3430.817160 0.6430 0.6430 0.6430 0.6430 0.6430
3437.344592 0.6430 0.6430 0.6430 0.6430 0.6430
3443.872023 0.6430 0.6430 0.6430 0.6430 0.6430
3450.399455 0.6430 0.6430 0.6430 0.6430 0.6430
3456.926886 0.6430 0.6430 0.6430 0.6430 0.6430
3463.454317 0.6430 0.6432 0.6442 0.6448 0.6438
3469.981749 0.6430 0.6430 0.6430 0.6430 0.6430
3476.509180 0.6430 0.6430 0.6430 0.6430 0.6430
3483.036611 0.6430 0.6430 0.6430 0.6430 0.6430
3489.564043 0.6430 0.6430 0.6430 0.6430 0.6430
3496.091474 0.6430 0.6430 0.6430 0.6430 0.6430
3502.618906 0.6430 0.6430 0.6430 0.6430 0.6430
3509.146337 0.6430 0.6430 0.6430 0.6430 0.6430
3515.673768 0.6430 0.6430 0.6430 0.6430 0.6430
3522.201200 0.6430 0.6430 0.6430 0.6430 0.6430
3528.728631 0.6430 0.6430 0.6430 0.6433 0.6443
3535.256063 0.6450 0.6450 0.6447 0.6437 0.6430
3541.783494 0.6430 0.6430 0.6430 0.6430 0.6430
3548.310925 0.6430 0.6430 0.6430 0.6430 0.6430
3554.838357 0.6430 0.6430 0.6430 0.6430 0.6430
3561.365788 0.6430 0.6430 0.6426 0.6416 0.6410
3567.893219 0.6410 0.6406 0.6396 0.6390 0.6390
3574.420651 0.6386 0.6376 0.6370 0.6370 0.6370
3580.948082 0.6370 0.6370 0.6370 0.6366 0.6356
3587.475514 0.6350 0.6350 0.6350 0.6350 0.6346
3594.002945 0.6336 0.6330 0.6330 0.6334 0.6344
3600.530376 0.6346 0.6336 0.6330 0.6330 0.6330
3607.057808 0.6330 0.6326 0.6316 0.6306 0.6296
3613.585239 0.6290 0.6290 0.6290 0.6290 0.6290
3620.112670 0.6290 0.6290 0.6290 0.6290 0.6290
3626.640102 0.6286 0.6276 0.6259 0.6234 0.6216
3633.167533 0.6206 0.6196 0.6186 0.6176 0.6166
3639.694965 0.6164 0.6175 0.6185 0.6195 0.6212
3646.222396 0.6237 0.6255 0.6265 0.6275 0.6285
3652.749827 0.6290 0.6290 0.6269 0.6224 0.6190
3659.277259 0.6170 0.6165 0.6175 0.6206 0.6261
3665.804690 0.6295 0.6305 0.6310 0.6310 0.6315
3672.332121 0.6325 0.6325 0.6315 0.6305 0.6295
3678.859553 0.6280 0.6260 0.6237 0.6212 0.6195
3685.386984 0.6185 0.6185 0.6195 0.6205 0.6215
3691.914416 0.6220 0.6220 0.6215 0.6205 0.6200
3698.441847 0.6200 0.6195 0.6185 0.6180 0.6180
3704.969278 0.6180 0.6180 0.6180 0.6180 0.6180
3711.496710 0.6180 0.6180 0.6180 0.6174 0.6164
3718.024141 0.6160 0.6160 0.6160 0.6160 0.6160
3724.551573 0.6160 0.6160 0.6160 0.6160 0.6160
3731.079004 0.6154 0.6144 0.6140 0.6140 0.6122
3737.606435 0.6092 0.6062 0.6032 0.6014 0.6004
3744.133867 0.6000 0.6000 0.6000 0.6000 0.6000
3750.661298 0.6000 0.6000 0.6000 0.6000 0.6000
3757.188729 0.6006 0.6016 0.6026 0.6036 0.6072
3763.716161 0.6122 0.6146 0.6156 0.6160 0.6160
3770.243592 0.6173 0.6193 0.6200 0.6200 0.6207
3776.771024 0.6217 0.6230 0.6245 0.6250 0.6250
3783.298455 0.6250 0.6250 0.6250 0.6250 0.6250
3789.825886 0.6250 0.6250 0.6250 0.6250 0.6250
##END=
