##TITLE=Acetonitrile, chloro-
##JCAMP-DX=4.24
##DATA TYPE=INFRARED SPECTRUM
##CLASS=COBLENTZ III
##ORIGIN=SOUTHERN RESEARCH INSTITUTE
##OWNER=Copyright (C) 1987 by the Coblentz Society
Collection (C) 2018 copyright by the U.S. Secretary of Commerce
on behalf of the United States of America. All rights reserved.
##DATE=1966/01/06
##NAMES=chloroacetonitrile
##CAS REGISTRY NO=107-14-2
##MOLFORM=C2 H2 Cl N
##SOURCE REFERENCE=COBLENTZ NO. 7886
##$NIST SOURCE=COBLENTZ
##$NIST IMAGE=cob7886
##SPECTROMETER/DATA SYSTEM=PERKIN-ELMER 521 (GRATING)
##INSTRUMENT PARAMETERS=FILTERS AT 3150, 2500, 2000, 1150, 700, 410. GRATING CHANGES: 2000, 630
##STATE=LIQUID (NEAT)
##PATH LENGTH=CAPILLARY (BETWEEN CsBr PLATES)
##SAMPLING PROCEDURE=TRANSMISSION
##RESOLUTION=2
##DATA PROCESSING=DIGITIZED BY COBLENTZ SOCIETY (BATCH II) FROM HARD COPY (ADJUSTED \addcm-1\15-5-2\)
##XUNITS=1/CM
##YUNITS=TRANSMITTANCE
##XFACTOR=1.0
##YFACTOR=1
##DELTAX=1.005146
##FIRSTX=253
##LASTX=4019.28
##FIRSTY=0.6498
##MAXX=4019.28
##MINX=253
##MAXY=0.894637
##MINY=0.101052
##NPOINTS=3748
##XYDATA=(X++(Y..Y))
253.000000 0.6498 0.6550 0.6602 0.6651 0.6701
258.025728 0.6750 0.6799 0.6846 0.6892 0.6938
263.051456 0.6983 0.7030 0.7077 0.7134 0.7192
268.077184 0.7249 0.7307 0.7355 0.7398 0.7441
273.102912 0.7484 0.7528 0.7571 0.7615 0.7663
278.128640 0.7711 0.7758 0.7807 0.7855 0.7902
283.154368 0.7940 0.7972 0.8005 0.8038 0.8071
288.180096 0.8104 0.8137 0.8167 0.8193 0.8219
293.205824 0.8245 0.8271 0.8297 0.8322 0.8346
298.231552 0.8368 0.8391 0.8413 0.8435 0.8455
303.257280 0.8471 0.8487 0.8502 0.8518 0.8534
308.283008 0.8550 0.8566 0.8581 0.8596 0.8612
313.308736 0.8627 0.8639 0.8646 0.8653 0.8659
318.334464 0.8666 0.8673 0.8678 0.8679 0.8681
323.360192 0.8682 0.8677 0.8674 0.8686 0.8687
328.385920 0.8684 0.8680 0.8676 0.8672 0.8665
333.411648 0.8651 0.8637 0.8622 0.8608 0.8594
338.437376 0.8578 0.8551 0.8509 0.8462 0.8402
343.463104 0.8334 0.8262 0.8188 0.8089 0.7986
348.488832 0.7933 0.7903 0.7903 0.7931 0.8145
353.514560 0.8385 0.8449 0.8490 0.8531 0.8575
358.540288 0.8620 0.8656 0.8685 0.8714 0.8742
363.566016 0.8760 0.8770 0.8781 0.8791 0.8800
368.591744 0.8804 0.8807 0.8810 0.8813 0.8816
373.617472 0.8818 0.8818 0.8818 0.8819 0.8819
378.643200 0.8819 0.8818 0.8814 0.8810 0.8806
383.668928 0.8803 0.8799 0.8794 0.8789 0.8805
388.694656 0.8826 0.8845 0.8853 0.8853 0.8847
393.720384 0.8830 0.8802 0.8793 0.8794 0.8796
398.746112 0.8800 0.8806 0.8813 0.8820 0.8827
403.771840 0.8835 0.8841 0.8847 0.8850 0.8848
408.797568 0.8847 0.8846 0.8845 0.8843 0.8839
413.823296 0.8835 0.8830 0.8826 0.8822 0.8818
418.849024 0.8813 0.8809 0.8804 0.8800 0.8795
423.874752 0.8790 0.8785 0.8780 0.8775 0.8770
428.900480 0.8765 0.8762 0.8758 0.8755 0.8751
433.926208 0.8747 0.8744 0.8740 0.8736 0.8733
438.951936 0.8729 0.8727 0.8725 0.8723 0.8721
443.977664 0.8719 0.8717 0.8715 0.8713 0.8711
449.003392 0.8709 0.8706 0.8704 0.8701 0.8698
454.029120 0.8688 0.8672 0.8657 0.8642 0.8627
459.054848 0.8608 0.8587 0.8567 0.8545 0.8520
464.080576 0.8493 0.8466 0.8437 0.8408 0.8362
469.106304 0.8317 0.8272 0.8224 0.8176 0.8125
474.132032 0.8060 0.7982 0.7849 0.7731 0.7642
479.157760 0.7540 0.7354 0.7086 0.6818 0.6551
484.183488 0.6283 0.6016 0.5747 0.5480 0.5224
489.209216 0.5049 0.5029 0.5035 0.5115 0.5444
494.234944 0.5748 0.6051 0.6354 0.6657 0.6960
499.260672 0.7263 0.7566 0.7857 0.8105 0.8277
504.286400 0.8322 0.8368 0.8415 0.8457 0.8488
509.312128 0.8516 0.8540 0.8557 0.8575 0.8593
514.337856 0.8611 0.8629 0.8646 0.8662 0.8679
519.363584 0.8691 0.8694 0.8694 0.8694 0.8695
524.389312 0.8695 0.8695 0.8695 0.8696 0.8696
529.415040 0.8696 0.8695 0.8694 0.8693 0.8691
534.440768 0.8690 0.8690 0.8691 0.8691 0.8691
539.466496 0.8692 0.8695 0.8698 0.8701 0.8705
544.492224 0.8708 0.8711 0.8715 0.8718 0.8722
549.517952 0.8725 0.8732 0.8741 0.8749 0.8759
554.543680 0.8773 0.8789 0.8804 0.8818 0.8826
559.569408 0.8832 0.8838 0.8843 0.8854 0.8850
564.595136 0.8841 0.8840 0.8835 0.8828 0.8816
569.620864 0.8801 0.8778 0.8750 0.8724 0.8707
574.646592 0.8705 0.8699 0.8733 0.8778 0.8810
579.672320 0.8825 0.8828 0.8828 0.8828 0.8829
584.698048 0.8842 0.8835 0.8826 0.8823 0.8819
589.723776 0.8816 0.8812 0.8807 0.8801 0.8795
594.749504 0.8789 0.8787 0.8789 0.8807 0.8834
599.775233 0.8870 0.8912 0.8939 0.8946 0.8936
604.800961 0.8915 0.8874 0.8820 0.8779 0.8770
609.826689 0.8767 0.8764 0.8761 0.8759 0.8756
614.852417 0.8757 0.8758 0.8759 0.8760 0.8761
619.878145 0.8764 0.8766 0.8769 0.8772 0.8774
624.903873 0.8774 0.8773 0.8772 0.8772 0.8769
629.929601 0.8765 0.8762 0.8759 0.8756 0.8753
634.955329 0.8750 0.8749 0.8747 0.8745 0.8743
639.981057 0.8741 0.8740 0.8738 0.8736 0.8733
645.006785 0.8731 0.8729 0.8726 0.8724 0.8722
650.032513 0.8719 0.8716 0.8714 0.8711 0.8708
655.058241 0.8702 0.8685 0.8666 0.8623 0.8526
660.083969 0.8462 0.8457 0.8555 0.8654 0.8720
665.109697 0.8703 0.8545 0.8454 0.8422 0.8388
670.135425 0.8352 0.8313 0.8273 0.8234 0.8194
675.161153 0.8153 0.8101 0.8042 0.7985 0.7932
680.186881 0.7882 0.7843 0.7806 0.7769 0.7732
685.212609 0.7698 0.7664 0.7638 0.7621 0.7604
690.238337 0.7587 0.7571 0.7559 0.7546 0.7534
695.264065 0.7522 0.7510 0.7499 0.7489 0.7480
700.289793 0.7471 0.7461 0.7453 0.7445 0.7439
705.315521 0.7430 0.7398 0.7324 0.7240 0.7157
710.341249 0.7076 0.6999 0.6921 0.6843 0.6762
715.366977 0.6679 0.6552 0.6326 0.6034 0.5663
720.392705 0.5464 0.5190 0.4786 0.4347 0.3907
725.418433 0.3467 0.3027 0.2588 0.2148 0.1662
730.444161 0.1211 0.1125 0.1062 0.1019 0.1011
735.469889 0.1011 0.1024 0.1109 0.1391 0.1747
740.495617 0.2104 0.2460 0.2816 0.3173 0.3529
745.521345 0.3885 0.4242 0.4598 0.5024 0.5485
750.547073 0.5754 0.6222 0.6477 0.6765 0.7061
755.572801 0.7177 0.7248 0.7318 0.7392 0.7471
760.598529 0.7564 0.7658 0.7717 0.7761 0.7806
765.624257 0.7851 0.7898 0.7948 0.7999 0.8050
770.649985 0.8101 0.8146 0.8184 0.8222 0.8260
775.675713 0.8297 0.8330 0.8357 0.8384 0.8409
780.701441 0.8427 0.8440 0.8448 0.8456 0.8467
785.727169 0.8478 0.8491 0.8506 0.8522 0.8539
790.752897 0.8559 0.8584 0.8608 0.8632 0.8655
795.778625 0.8678 0.8698 0.8718 0.8737 0.8755
800.804353 0.8769 0.8781 0.8793 0.8805 0.8816
805.830081 0.8824 0.8832 0.8840 0.8848 0.8856
810.855809 0.8863 0.8864 0.8864 0.8865 0.8865
815.881537 0.8865 0.8866 0.8866 0.8868 0.8870
820.907265 0.8872 0.8874 0.8876 0.8878 0.8879
825.932993 0.8880 0.8881 0.8881 0.8882 0.8883
830.958721 0.8883 0.8884 0.8885 0.8886 0.8886
835.984449 0.8887 0.8887 0.8894 0.8904 0.8888
841.010177 0.8888 0.8888 0.8887 0.8884 0.8882
846.035905 0.8880 0.8878 0.8876 0.8874 0.8872
851.061633 0.8870 0.8868 0.8865 0.8862 0.8859
856.087361 0.8856 0.8853 0.8850 0.8846 0.8839
861.113089 0.8832 0.8824 0.8816 0.8808 0.8800
866.138817 0.8792 0.8784 0.8776 0.8766 0.8755
871.164545 0.8745 0.8734 0.8721 0.8706 0.8690
876.190273 0.8675 0.8659 0.8641 0.8617 0.8593
881.216001 0.8568 0.8536 0.8502 0.8469 0.8434
886.241729 0.8394 0.8352 0.8310 0.8261 0.8192
891.267457 0.8117 0.8044 0.7978 0.7914 0.7849
896.293185 0.7771 0.7646 0.7429 0.7086 0.6724
901.318913 0.6449 0.6448 0.6487 0.6601 0.6722
906.344641 0.6804 0.6802 0.6798 0.6784 0.6735
911.370369 0.6556 0.6326 0.6097 0.5868 0.5638
916.396097 0.5409 0.5179 0.4941 0.4610 0.4025
921.421825 0.3338 0.2651 0.1964 0.1358 0.1201
926.447553 0.1235 0.1514 0.1859 0.2203 0.2547
931.473281 0.2891 0.3235 0.3579 0.3924 0.4267
936.499009 0.4612 0.4956 0.5300 0.5644 0.5989
941.524737 0.6332 0.6675 0.6974 0.7286 0.7458
946.550465 0.7660 0.7784 0.7854 0.7922 0.7973
951.576193 0.8021 0.8057 0.8078 0.8131 0.8170
956.601921 0.8192 0.8211 0.8237 0.8215 0.8208
961.627649 0.8203 0.8195 0.8185 0.8176 0.8164
966.653377 0.8146 0.8126 0.8111 0.8097 0.8082
971.679105 0.8068 0.8053 0.8042 0.8031 0.8022
976.704833 0.8004 0.8027 0.8061 0.8096 0.8133
981.730561 0.8178 0.8230 0.8289 0.8350 0.8406
986.756289 0.8454 0.8499 0.8544 0.8589 0.8623
991.782017 0.8645 0.8664 0.8682 0.8700 0.8718
996.807745 0.8731 0.8741 0.8751 0.8761 0.8770
1001.833473 0.8776 0.8780 0.8784 0.8788 0.8793
1006.859201 0.8797 0.8801 0.8805 0.8808 0.8810
1011.884929 0.8813 0.8816 0.8819 0.8821 0.8822
1016.910657 0.8822 0.8822 0.8821 0.8821 0.8821
1021.936385 0.8821 0.8821 0.8821 0.8823 0.8828
1026.962113 0.8839 0.8852 0.8863 0.8871 0.8877
1031.987841 0.8882 0.8885 0.8886 0.8886 0.8886
1037.013569 0.8887 0.8881 0.8875 0.8881 0.8879
1042.039297 0.8876 0.8874 0.8872 0.8869 0.8867
1047.065025 0.8865 0.8862 0.8860 0.8858 0.8855
1052.090753 0.8852 0.8849 0.8846 0.8843 0.8840
1057.116481 0.8837 0.8834 0.8830 0.8825 0.8821
1062.142209 0.8816 0.8811 0.8807 0.8802 0.8797
1067.167937 0.8793 0.8788 0.8784 0.8779 0.8775
1072.193665 0.8773 0.8770 0.8767 0.8765 0.8762
1077.219393 0.8759 0.8757 0.8754 0.8751 0.8748
1082.245121 0.8746 0.8743 0.8740 0.8737 0.8735
1087.270849 0.8732 0.8729 0.8727 0.8724 0.8721
1092.296577 0.8718 0.8716 0.8713 0.8710 0.8708
1097.322305 0.8705 0.8702 0.8700 0.8697 0.8694
1102.348033 0.8692 0.8689 0.8686 0.8684 0.8681
1107.373761 0.8679 0.8675 0.8672 0.8669 0.8665
1112.399489 0.8662 0.8658 0.8655 0.8652 0.8649
1117.425217 0.8645 0.8642 0.8639 0.8635 0.8632
1122.450945 0.8629 0.8623 0.8616 0.8610 0.8603
1127.476673 0.8597 0.8591 0.8584 0.8578 0.8571
1132.502401 0.8565 0.8559 0.8552 0.8546 0.8539
1137.528129 0.8531 0.8523 0.8514 0.8506 0.8497
1142.553857 0.8488 0.8480 0.8471 0.8463 0.8454
1147.579585 0.8445 0.8437 0.8428 0.8419 0.8408
1152.605313 0.8395 0.8382 0.8369 0.8356 0.8343
1157.631041 0.8329 0.8316 0.8304 0.8290 0.8277
1162.656769 0.8262 0.8239 0.8210 0.8182 0.8153
1167.682497 0.8124 0.8095 0.8061 0.8022 0.7981
1172.708225 0.7940 0.7894 0.7819 0.7772 0.7778
1177.733953 0.7780 0.7785 0.7795 0.7816 0.7846
1182.759681 0.7880 0.7914 0.7948 0.7981 0.8017
1187.785409 0.8057 0.8097 0.8133 0.8163 0.8193
1192.811137 0.8221 0.8242 0.8260 0.8277 0.8293
1197.836865 0.8302 0.8307 0.8312 0.8317 0.8320
1202.862593 0.8323 0.8325 0.8326 0.8327 0.8327
1207.888321 0.8327 0.8327 0.8327 0.8327 0.8324
1212.914049 0.8319 0.8324 0.8321 0.8316 0.8311
1217.939777 0.8304 0.8294 0.8284 0.8274 0.8263
1222.965505 0.8252 0.8239 0.8226 0.8213 0.8200
1227.991233 0.8186 0.8165 0.8142 0.8117 0.8080
1233.016961 0.8043 0.7999 0.7952 0.7900 0.7848
1238.042689 0.7796 0.7740 0.7635 0.7527 0.7335
1243.068417 0.6891 0.6602 0.6313 0.6023 0.5734
1248.094145 0.5445 0.5340 0.5334 0.5365 0.5410
1253.119873 0.5454 0.5500 0.5494 0.5484 0.5474
1258.145601 0.5458 0.5415 0.5246 0.4984 0.4713
1263.171329 0.4442 0.4170 0.3899 0.3628 0.3356
1268.197057 0.3085 0.2816 0.2753 0.2775 0.3395
1273.222785 0.4368 0.5392 0.6301 0.6660 0.6885
1278.248513 0.7231 0.7412 0.7535 0.7652 0.7757
1283.274242 0.7844 0.7924 0.7982 0.8030 0.8077
1288.299970 0.8118 0.8154 0.8187 0.8220 0.8248
1293.325698 0.8272 0.8296 0.8319 0.8342 0.8361
1298.351426 0.8377 0.8392 0.8407 0.8422 0.8433
1303.377154 0.8440 0.8447 0.8454 0.8459 0.8463
1308.402882 0.8465 0.8467 0.8470 0.8472 0.8473
1313.428610 0.8473 0.8473 0.8472 0.8472 0.8472
1318.454338 0.8472 0.8474 0.8474 0.8475 0.8477
1323.480066 0.8482 0.8488 0.8493 0.8498 0.8503
1328.505794 0.8508 0.8512 0.8517 0.8522 0.8527
1333.531522 0.8532 0.8538 0.8544 0.8550 0.8553
1338.557250 0.8553 0.8551 0.8551 0.8550 0.8544
1343.582978 0.8539 0.8535 0.8530 0.8524 0.8516
1348.608706 0.8506 0.8497 0.8488 0.8478 0.8468
1353.634434 0.8453 0.8436 0.8418 0.8401 0.8383
1358.660162 0.8365 0.8347 0.8329 0.8311 0.8293
1363.685890 0.8275 0.8257 0.8238 0.8218 0.8199
1368.711618 0.8179 0.8160 0.8140 0.8120 0.8099
1373.737346 0.8076 0.8054 0.8031 0.8009 0.7985
1378.763074 0.7956 0.7926 0.7897 0.7868 0.7839
1383.788802 0.7809 0.7777 0.7739 0.7701 0.7664
1388.814530 0.7626 0.7580 0.7533 0.7486 0.7436
1393.840258 0.7366 0.7275 0.7192 0.7112 0.7031
1398.865986 0.6913 0.6741 0.6449 0.6199 0.5884
1403.891714 0.5524 0.5161 0.4797 0.4434 0.3952
1408.917442 0.3619 0.3494 0.3389 0.3264 0.3136
1413.943170 0.3012 0.2685 0.2299 0.1939 0.1862
1418.968898 0.1861 0.1850 0.2139 0.2602 0.3080
1423.994626 0.3558 0.4035 0.4513 0.4991 0.5469
1429.020354 0.5727 0.5842 0.6176 0.6347 0.6497
1434.046082 0.6637 0.6748 0.7091 0.7253 0.7408
1439.071810 0.7574 0.7697 0.7764 0.7805 0.7836
1444.097538 0.7867 0.7889 0.7910 0.7930 0.7951
1449.123266 0.7965 0.7979 0.7992 0.7997 0.8002
1454.148994 0.8007 0.8011 0.8015 0.8018 0.8021
1459.174722 0.8023 0.8025 0.8027 0.8031 0.8037
1464.200450 0.8044 0.8050 0.8066 0.8086 0.8105
1469.226178 0.8118 0.8131 0.8143 0.8147 0.8150
1474.251906 0.8152 0.8153 0.8153 0.8153 0.8153
1479.277634 0.8154 0.8155 0.8156 0.8158 0.8170
1484.303362 0.8190 0.8212 0.8253 0.8304 0.8361
1489.329090 0.8410 0.8449 0.8471 0.8481 0.8490
1494.354818 0.8498 0.8506 0.8514 0.8522 0.8529
1499.380546 0.8534 0.8540 0.8545 0.8550 0.8556
1504.406274 0.8560 0.8563 0.8567 0.8571 0.8575
1509.432002 0.8579 0.8583 0.8586 0.8587 0.8588
1514.457730 0.8589 0.8589 0.8590 0.8591 0.8588
1519.483458 0.8584 0.8579 0.8574 0.8571 0.8569
1524.509186 0.8568 0.8566 0.8564 0.8562 0.8560
1529.534914 0.8560 0.8560 0.8566 0.8579 0.8595
1534.560642 0.8610 0.8624 0.8638 0.8652 0.8670
1539.586370 0.8690 0.8708 0.8726 0.8741 0.8747
1544.612098 0.8752 0.8756 0.8758 0.8760 0.8762
1549.637826 0.8764 0.8754 0.8762 0.8764 0.8765
1554.663554 0.8762 0.8759 0.8756 0.8753 0.8750
1559.689282 0.8747 0.8744 0.8738 0.8731 0.8724
1564.715010 0.8717 0.8710 0.8703 0.8692 0.8676
1569.740738 0.8659 0.8642 0.8621 0.8597 0.8572
1574.766466 0.8546 0.8523 0.8499 0.8479 0.8473
1579.792194 0.8470 0.8467 0.8464 0.8460 0.8460
1584.817922 0.8461 0.8462 0.8463 0.8464 0.8465
1589.843650 0.8465 0.8465 0.8466 0.8463 0.8455
1594.869378 0.8441 0.8426 0.8410 0.8393 0.8373
1599.895106 0.8352 0.8331 0.8309 0.8293 0.8280
1604.920834 0.8269 0.8258 0.8249 0.8239 0.8230
1609.946562 0.8213 0.8195 0.8148 0.8127 0.8122
1614.972290 0.8120 0.8122 0.8124 0.8132 0.8145
1619.998018 0.8168 0.8196 0.8217 0.8237 0.8255
1625.023746 0.8273 0.8291 0.8302 0.8308 0.8313
1630.049474 0.8318 0.8319 0.8313 0.8306 0.8298
1635.075202 0.8290 0.8281 0.8273 0.8264 0.8255
1640.100930 0.8246 0.8250 0.8258 0.8275 0.8296
1645.126658 0.8322 0.8349 0.8373 0.8397 0.8417
1650.152386 0.8438 0.8458 0.8467 0.8473 0.8478
1655.178114 0.8483 0.8483 0.8482 0.8481 0.8478
1660.203842 0.8472 0.8466 0.8460 0.8450 0.8438
1665.229570 0.8422 0.8400 0.8378 0.8348 0.8316
1670.255298 0.8283 0.8246 0.8200 0.8151 0.8095
1675.281026 0.8034 0.7948 0.7844 0.7738 0.7632
1680.306754 0.7525 0.7419 0.7312 0.7206 0.7100
1685.332482 0.6993 0.6887 0.6780 0.6730 0.6728
1690.358210 0.6693 0.6757 0.6849 0.6943 0.7037
1695.383938 0.7132 0.7227 0.7321 0.7416 0.7511
1700.409666 0.7605 0.7669 0.7735 0.7803 0.7850
1705.435394 0.7892 0.7938 0.7986 0.8035 0.8086
1710.461122 0.8138 0.8168 0.8189 0.8210 0.8230
1715.486850 0.8244 0.8255 0.8266 0.8277 0.8287
1720.512578 0.8296 0.8304 0.8311 0.8319 0.8327
1725.538306 0.8335 0.8342 0.8349 0.8356 0.8362
1730.564034 0.8368 0.8374 0.8380 0.8385 0.8391
1735.589762 0.8397 0.8403 0.8406 0.8410 0.8413
1740.615490 0.8417 0.8420 0.8424 0.8427 0.8431
1745.641218 0.8434 0.8437 0.8439 0.8442 0.8445
1750.666946 0.8447 0.8450 0.8451 0.8452 0.8453
1755.692674 0.8454 0.8455 0.8456 0.8463 0.8471
1760.718402 0.8479 0.8488 0.8496 0.8505 0.8514
1765.744130 0.8523 0.8531 0.8540 0.8547 0.8553
1770.769858 0.8562 0.8574 0.8587 0.8600 0.8614
1775.795586 0.8631 0.8650 0.8671 0.8687 0.8699
1780.821314 0.8710 0.8721 0.8729 0.8732 0.8733
1785.847042 0.8735 0.8736 0.8737 0.8738 0.8739
1790.872770 0.8740 0.8739 0.8736 0.8733 0.8730
1795.898498 0.8727 0.8724 0.8719 0.8714 0.8709
1800.924226 0.8704 0.8699 0.8693 0.8688 0.8686
1805.949954 0.8686 0.8685 0.8685 0.8685 0.8684
1810.975682 0.8687 0.8691 0.8696 0.8704 0.8712
1816.001410 0.8720 0.8727 0.8734 0.8740 0.8747
1821.027138 0.8754 0.8761 0.8767 0.8774 0.8781
1826.052866 0.8789 0.8796 0.8803 0.8811 0.8818
1831.078594 0.8824 0.8827 0.8829 0.8830 0.8832
1836.104322 0.8834 0.8836 0.8837 0.8839 0.8841
1841.130050 0.8843 0.8844 0.8845 0.8847 0.8848
1846.155778 0.8850 0.8851 0.8853 0.8854 0.8856
1851.181506 0.8857 0.8859 0.8861 0.8863 0.8864
1856.207234 0.8866 0.8868 0.8869 0.8870 0.8870
1861.232962 0.8871 0.8871 0.8872 0.8873 0.8873
1866.258690 0.8874 0.8874 0.8875 0.8875 0.8876
1871.284418 0.8876 0.8877 0.8877 0.8877 0.8877
1876.310146 0.8877 0.8877 0.8877 0.8877 0.8877
1881.335874 0.8877 0.8877 0.8877 0.8877 0.8860
1886.361602 0.8870 0.8876 0.8876 0.8876 0.8875
1891.387330 0.8875 0.8874 0.8874 0.8874 0.8873
1896.413058 0.8873 0.8873 0.8872 0.8871 0.8870
1901.438786 0.8870 0.8869 0.8868 0.8868 0.8867
1906.464514 0.8866 0.8866 0.8865 0.8864 0.8864
1911.490242 0.8863 0.8862 0.8862 0.8861 0.8861
1916.515970 0.8861 0.8860 0.8860 0.8860 0.8859
1921.541698 0.8859 0.8858 0.8858 0.8858 0.8857
1926.567426 0.8854 0.8850 0.8846 0.8841 0.8837
1931.593154 0.8832 0.8820 0.8803 0.8781 0.8761
1936.618882 0.8753 0.8771 0.8798 0.8825 0.8835
1941.644610 0.8779 0.8692 0.8601 0.8511 0.8462
1946.670338 0.8460 0.8539 0.8651 0.8762 0.8816
1951.696066 0.8831 0.8841 0.8850 0.8857 0.8860
1956.721794 0.8861 0.8863 0.8865 0.8867 0.8868
1961.747522 0.8868 0.8868 0.8869 0.8869 0.8869
1966.773250 0.8869 0.8870 0.8870 0.8870 0.8871
1971.798979 0.8871 0.8871 0.8871 0.8872 0.8872
1976.824707 0.8872 0.8873 0.8873 0.8873 0.8874
1981.850435 0.8874 0.8874 0.8874 0.8875 0.8875
1986.876163 0.8875 0.8876 0.8876 0.8877 0.8878
1991.901891 0.8879 0.8881 0.8883 0.8885 0.8888
1996.927619 0.8892 0.8899 0.8905 0.8908 0.8908
2001.953347 0.8905 0.8903 0.8900 0.8898 0.8895
2006.979075 0.8889 0.8880 0.8870 0.8859 0.8845
2012.004803 0.8829 0.8814 0.8810 0.8812 0.8823
2017.030531 0.8840 0.8861 0.8885 0.8901 0.8905
2022.056259 0.8907 0.8909 0.8909 0.8910 0.8910
2027.081987 0.8910 0.8911 0.8911 0.8910 0.8910
2032.107715 0.8910 0.8909 0.8909 0.8909 0.8909
2037.133443 0.8908 0.8908 0.8908 0.8908 0.8908
2042.159171 0.8907 0.8907 0.8907 0.8908 0.8908
2047.184899 0.8908 0.8909 0.8909 0.8909 0.8909
2052.210627 0.8910 0.8910 0.8910 0.8910 0.8909
2057.236355 0.8909 0.8909 0.8908 0.8908 0.8907
2062.262083 0.8907 0.8907 0.8906 0.8906 0.8905
2067.287811 0.8903 0.8902 0.8900 0.8898 0.8897
2072.313539 0.8895 0.8894 0.8892 0.8891 0.8889
2077.339267 0.8887 0.8885 0.8881 0.8877 0.8873
2082.364995 0.8869 0.8866 0.8862 0.8858 0.8854
2087.390723 0.8852 0.8852 0.8855 0.8857 0.8860
2092.416451 0.8862 0.8865 0.8868 0.8871 0.8875
2097.442179 0.8878 0.8882 0.8885 0.8889 0.8892
2102.467907 0.8895 0.8898 0.8899 0.8900 0.8902
2107.493635 0.8903 0.8904 0.8905 0.8906 0.8907
2112.519363 0.8907 0.8906 0.8905 0.8903 0.8902
2117.545091 0.8901 0.8900 0.8899 0.8898 0.8897
2122.570819 0.8895 0.8894 0.8893 0.8892 0.8891
2127.596547 0.8890 0.8889 0.8888 0.8887 0.8886
2132.622275 0.8885 0.8884 0.8883 0.8880 0.8876
2137.648003 0.8873 0.8869 0.8866 0.8862 0.8859
2142.673731 0.8856 0.8852 0.8849 0.8845 0.8841
2147.699459 0.8836 0.8831 0.8825 0.8820 0.8815
2152.725187 0.8810 0.8805 0.8800 0.8795 0.8792
2157.750915 0.8789 0.8787 0.8785 0.8783 0.8780
2162.776643 0.8778 0.8776 0.8773 0.8771 0.8769
2167.802371 0.8769 0.8769 0.8769 0.8770 0.8770
2172.828099 0.8770 0.8771 0.8771 0.8772 0.8774
2177.853827 0.8776 0.8779 0.8781 0.8784 0.8786
2182.879555 0.8788 0.8791 0.8794 0.8797 0.8800
2187.905283 0.8802 0.8805 0.8808 0.8811 0.8814
2192.931011 0.8817 0.8819 0.8821 0.8822 0.8824
2197.956739 0.8825 0.8827 0.8828 0.8830 0.8831
2202.982467 0.8833 0.8834 0.8834 0.8834 0.8835
2208.008195 0.8835 0.8835 0.8836 0.8836 0.8836
2213.033923 0.8835 0.8833 0.8830 0.8827 0.8823
2218.059651 0.8820 0.8817 0.8813 0.8807 0.8801
2223.085379 0.8794 0.8788 0.8781 0.8775 0.8767
2228.111107 0.8757 0.8744 0.8731 0.8718 0.8701
2233.136835 0.8680 0.8658 0.8634 0.8603 0.8570
2238.162563 0.8537 0.8502 0.8459 0.8409 0.8359
2243.188291 0.8309 0.8255 0.8198 0.8141 0.8084
2248.214019 0.7969 0.7805 0.7637 0.7470 0.7302
2253.239747 0.7134 0.6967 0.6799 0.6685 0.6664
2258.265475 0.6690 0.6853 0.7117 0.7382 0.7646
2263.291203 0.7910 0.8175 0.8395 0.8502 0.8548
2268.316931 0.8593 0.8624 0.8643 0.8663 0.8679
2273.342659 0.8690 0.8697 0.8705 0.8710 0.8710
2278.368387 0.8710 0.8707 0.8707 0.8708 0.8705
2283.394115 0.8699 0.8694 0.8688 0.8682 0.8676
2288.419843 0.8667 0.8656 0.8644 0.8633 0.8618
2293.445571 0.8597 0.8577 0.8556 0.8535 0.8505
2298.471299 0.8469 0.8431 0.8386 0.8334 0.8280
2303.497027 0.8227 0.8177 0.8130 0.8083 0.8039
2308.522755 0.7998 0.7959 0.7926 0.7904 0.7888
2313.548483 0.7866 0.7880 0.7912 0.7931 0.7954
2318.574211 0.7978 0.8006 0.8038 0.8070 0.8105
2323.599939 0.8144 0.8186 0.8228 0.8269 0.8307
2328.625667 0.8346 0.8381 0.8415 0.8443 0.8462
2333.651395 0.8478 0.8492 0.8501 0.8508 0.8514
2338.677123 0.8521 0.8528 0.8537 0.8550 0.8565
2343.702851 0.8580 0.8593 0.8605 0.8616 0.8626
2348.728579 0.8635 0.8644 0.8653 0.8662 0.8670
2353.754307 0.8678 0.8684 0.8690 0.8697 0.8702
2358.780035 0.8706 0.8710 0.8714 0.8717 0.8719
2363.805763 0.8721 0.8722 0.8724 0.8726 0.8727
2368.831491 0.8729 0.8731 0.8732 0.8733 0.8733
2373.857219 0.8734 0.8735 0.8735 0.8736 0.8737
2378.882947 0.8737 0.8737 0.8738 0.8738 0.8738
2383.908675 0.8739 0.8739 0.8739 0.8739 0.8740
2388.934403 0.8740 0.8739 0.8738 0.8736 0.8735
2393.960131 0.8734 0.8733 0.8732 0.8731 0.8730
2398.985859 0.8729 0.8728 0.8727 0.8726 0.8725
2404.011587 0.8723 0.8721 0.8719 0.8717 0.8715
2409.037315 0.8713 0.8711 0.8709 0.8707 0.8705
2414.063043 0.8702 0.8700 0.8698 0.8696 0.8692
2419.088771 0.8688 0.8682 0.8676 0.8671 0.8665
2424.114499 0.8659 0.8652 0.8640 0.8627 0.8613
2429.140227 0.8600 0.8586 0.8573 0.8561 0.8549
2434.165955 0.8538 0.8526 0.8519 0.8515 0.8511
2439.191683 0.8508 0.8507 0.8507 0.8507 0.8497
2444.217411 0.8504 0.8511 0.8514 0.8518 0.8523
2449.243139 0.8528 0.8535 0.8543 0.8550 0.8557
2454.268867 0.8564 0.8570 0.8576 0.8582 0.8588
2459.294595 0.8594 0.8601 0.8608 0.8615 0.8622
2464.320323 0.8628 0.8631 0.8633 0.8634 0.8636
2469.346051 0.8638 0.8639 0.8645 0.8656 0.8673
2474.371779 0.8689 0.8697 0.8699 0.8698 0.8696
2479.397507 0.8695 0.8693 0.8692 0.8690 0.8688
2484.423235 0.8687 0.8685 0.8683 0.8682 0.8680
2489.448963 0.8679 0.8678 0.8677 0.8677 0.8676
2494.474691 0.8675 0.8675 0.8673 0.8669 0.8665
2499.500419 0.8661 0.8657 0.8654 0.8650 0.8646
2504.526147 0.8642 0.8638 0.8634 0.8627 0.8617
2509.551875 0.8607 0.8598 0.8591 0.8584 0.8576
2514.577603 0.8569 0.8562 0.8555 0.8548 0.8541
2519.603331 0.8535 0.8532 0.8530 0.8528 0.8526
2524.629059 0.8524 0.8526 0.8529 0.8533 0.8536
2529.654787 0.8539 0.8543 0.8546 0.8550 0.8553
2534.680515 0.8555 0.8557 0.8560 0.8562 0.8564
2539.706243 0.8566 0.8569 0.8571 0.8574 0.8577
2544.731971 0.8580 0.8583 0.8586 0.8590 0.8593
2549.757699 0.8598 0.8603 0.8608 0.8613 0.8617
2554.783427 0.8621 0.8625 0.8629 0.8633 0.8637
2559.809155 0.8641 0.8644 0.8648 0.8651 0.8655
2564.834883 0.8658 0.8662 0.8663 0.8661 0.8660
2569.860611 0.8659 0.8657 0.8656 0.8655 0.8652
2574.886339 0.8648 0.8644 0.8640 0.8636 0.8632
2579.912067 0.8628 0.8624 0.8620 0.8616 0.8609
2584.937795 0.8600 0.8591 0.8583 0.8573 0.8562
2589.963523 0.8551 0.8540 0.8528 0.8517 0.8505
2594.989251 0.8494 0.8483 0.8472 0.8461 0.8457
2600.014979 0.8453 0.8449 0.8446 0.8451 0.8456
2605.040707 0.8467 0.8481 0.8496 0.8512 0.8529
2610.066435 0.8546 0.8559 0.8571 0.8584 0.8596
2615.092163 0.8607 0.8618 0.8627 0.8633 0.8637
2620.117891 0.8642 0.8647 0.8651 0.8654 0.8656
2625.143619 0.8658 0.8660 0.8661 0.8662 0.8663
2630.169347 0.8663 0.8663 0.8663 0.8664 0.8664
2635.195075 0.8664 0.8664 0.8664 0.8664 0.8664
2640.220803 0.8664 0.8664 0.8664 0.8663 0.8663
2645.246531 0.8663 0.8662 0.8661 0.8661 0.8660
2650.272259 0.8659 0.8659 0.8658 0.8657 0.8655
2655.297987 0.8653 0.8652 0.8650 0.8649 0.8647
2660.323716 0.8645 0.8644 0.8642 0.8640 0.8639
2665.349444 0.8637 0.8636 0.8634 0.8633 0.8632
2670.375172 0.8630 0.8629 0.8627 0.8626 0.8624
2675.400900 0.8623 0.8621 0.8617 0.8612 0.8608
2680.426628 0.8603 0.8598 0.8593 0.8588 0.8583
2685.452356 0.8577 0.8572 0.8567 0.8567 0.8573
2690.478084 0.8578 0.8584 0.8590 0.8596 0.8602
2695.503812 0.8609 0.8615 0.8621 0.8625 0.8629
2700.529540 0.8631 0.8634 0.8637 0.8639 0.8642
2705.555268 0.8642 0.8642 0.8643 0.8643 0.8643
2710.580996 0.8644 0.8643 0.8643 0.8642 0.8641
2715.606724 0.8640 0.8639 0.8639 0.8638 0.8637
2720.632452 0.8636 0.8635 0.8631 0.8626 0.8621
2725.658180 0.8616 0.8611 0.8606 0.8601 0.8595
2730.683908 0.8590 0.8584 0.8577 0.8571 0.8564
2735.709636 0.8558 0.8551 0.8545 0.8541 0.8539
2740.735364 0.8537 0.8540 0.8545 0.8550 0.8553
2745.761092 0.8557 0.8560 0.8564 0.8568 0.8572
2750.786820 0.8577 0.8582 0.8586 0.8591 0.8595
2755.812548 0.8599 0.8601 0.8602 0.8604 0.8606
2760.838276 0.8608 0.8610 0.8612 0.8612 0.8612
2765.864004 0.8612 0.8612 0.8612 0.8612 0.8611
2770.889732 0.8611 0.8610 0.8608 0.8606 0.8604
2775.915460 0.8603 0.8601 0.8599 0.8597 0.8595
2780.941188 0.8591 0.8587 0.8583 0.8579 0.8575
2785.966916 0.8571 0.8566 0.8562 0.8558 0.8554
2790.992644 0.8550 0.8546 0.8542 0.8538 0.8533
2796.018372 0.8529 0.8525 0.8521 0.8517 0.8512
2801.044100 0.8508 0.8504 0.8500 0.8494 0.8488
2806.069828 0.8482 0.8476 0.8470 0.8464 0.8458
2811.095556 0.8452 0.8446 0.8440 0.8434 0.8424
2816.121284 0.8415 0.8405 0.8396 0.8386 0.8377
2821.147012 0.8368 0.8357 0.8343 0.8335 0.8334
2826.172740 0.8333 0.8332 0.8331 0.8330 0.8329
2831.198468 0.8330 0.8330 0.8330 0.8331 0.8332
2836.224196 0.8332 0.8333 0.8334 0.8335 0.8335
2841.249924 0.8336 0.8337 0.8337 0.8337 0.8338
2846.275652 0.8338 0.8338 0.8338 0.8337 0.8337
2851.301380 0.8336 0.8336 0.8335 0.8335 0.8334
2856.327108 0.8334 0.8333 0.8331 0.8328 0.8326
2861.352836 0.8323 0.8320 0.8318 0.8315 0.8313
2866.378564 0.8310 0.8307 0.8303 0.8299 0.8295
2871.404292 0.8291 0.8288 0.8284 0.8280 0.8276
2876.430020 0.8272 0.8268 0.8264 0.8259 0.8255
2881.455748 0.8250 0.8245 0.8240 0.8235 0.8230
2886.481476 0.8221 0.8211 0.8201 0.8191 0.8181
2891.507204 0.8172 0.8162 0.8152 0.8140 0.8128
2896.532932 0.8115 0.8103 0.8091 0.8079 0.8066
2901.558660 0.8053 0.8041 0.8029 0.8017 0.8004
2906.584388 0.7991 0.7978 0.7965 0.7952 0.7939
2911.610116 0.7926 0.7913 0.7900 0.7886 0.7871
2916.635844 0.7856 0.7841 0.7826 0.7810 0.7795
2921.661572 0.7780 0.7765 0.7745 0.7725 0.7704
2926.687300 0.7684 0.7663 0.7643 0.7623 0.7601
2931.713028 0.7572 0.7543 0.7514 0.7484 0.7454
2936.738756 0.7418 0.7374 0.7330 0.7286 0.7240
2941.764484 0.7183 0.7118 0.7051 0.6980 0.6893
2946.790212 0.6806 0.6718 0.6626 0.6535 0.6442
2951.815940 0.6334 0.6205 0.6075 0.5926 0.5749
2956.841668 0.5311 0.4936 0.4557 0.4178 0.3800
2961.867396 0.3420 0.3042 0.2676 0.2450 0.2426
2966.893124 0.2423 0.2422 0.2601 0.2860 0.3119
2971.918852 0.3378 0.3637 0.3896 0.4154 0.4413
2976.944580 0.4673 0.4932 0.5190 0.5449 0.5692
2981.970308 0.5794 0.5837 0.5861 0.5878 0.5855
2986.996036 0.5847 0.5825 0.5775 0.5724 0.5676
2992.021764 0.5624 0.5539 0.5429 0.5307 0.5248
2997.047492 0.5168 0.4937 0.4609 0.4279 0.3950
3002.073220 0.3622 0.3292 0.2963 0.2635 0.2306
3007.098948 0.1991 0.1800 0.1762 0.1746 0.1741
3012.124676 0.1749 0.1760 0.1791 0.2147 0.2377
3017.150404 0.2609 0.2840 0.3071 0.3301 0.3532
3022.176132 0.3764 0.3994 0.4202 0.4374 0.4819
3027.201860 0.5061 0.5351 0.5483 0.5611 0.5703
3032.227588 0.5766 0.5829 0.5892 0.5964 0.6088
3037.253316 0.6209 0.6293 0.6360 0.6427 0.6494
3042.279044 0.6563 0.6632 0.6700 0.6758 0.6793
3047.304772 0.6829 0.6865 0.6900 0.6934 0.6958
3052.330500 0.6982 0.7006 0.7030 0.7054 0.7078
3057.356228 0.7102 0.7124 0.7147 0.7169 0.7191
3062.381956 0.7213 0.7232 0.7250 0.7267 0.7285
3067.407684 0.7303 0.7320 0.7338 0.7356 0.7373
3072.433412 0.7388 0.7403 0.7418 0.7432 0.7447
3077.459140 0.7462 0.7477 0.7492 0.7507 0.7522
3082.484868 0.7535 0.7549 0.7562 0.7576 0.7589
3087.510596 0.7603 0.7616 0.7630 0.7643 0.7656
3092.536324 0.7669 0.7680 0.7690 0.7699 0.7709
3097.562052 0.7718 0.7728 0.7737 0.7746 0.7756
3102.587780 0.7765 0.7775 0.7784 0.7792 0.7801
3107.613508 0.7810 0.7818 0.7827 0.7836 0.7844
3112.639236 0.7853 0.7863 0.7872 0.7881 0.7890
3117.664964 0.7902 0.7916 0.7930 0.7945 0.7968
3122.690692 0.7992 0.8016 0.8035 0.8045 0.8042
3127.716420 0.8038 0.8028 0.8020 0.8015 0.8013
3132.742148 0.8011 0.8012 0.8014 0.8016 0.8018
3137.767876 0.8020 0.8021 0.8023 0.8025 0.8026
3142.793604 0.8028 0.8029 0.8029 0.8029 0.8030
3147.819332 0.8043 0.8068 0.8029 0.8027 0.8026
3152.845060 0.8025 0.8024 0.8022 0.8021 0.8020
3157.870788 0.8018 0.8017 0.8016 0.8015 0.8014
3162.896516 0.8013 0.8012 0.8011 0.8010 0.8008
3167.922244 0.8006 0.8002 0.7998 0.7994 0.7990
3172.947972 0.7986 0.7981 0.7975 0.7966 0.7957
3177.973700 0.7948 0.7939 0.7930 0.7921 0.7913
3182.999428 0.7904 0.7896 0.7889 0.7887 0.7885
3188.025156 0.7881 0.7881 0.7888 0.7894 0.7904
3193.050884 0.7917 0.7932 0.7954 0.7975 0.7996
3198.076612 0.8016 0.8036 0.8056 0.8076 0.8096
3203.102340 0.8116 0.8134 0.8150 0.8165 0.8174
3208.128068 0.8181 0.8188 0.8195 0.8203 0.8209
3213.153796 0.8212 0.8215 0.8219 0.8222 0.8225
3218.179524 0.8229 0.8232 0.8235 0.8239 0.8242
3223.205252 0.8245 0.8248 0.8252 0.8255 0.8258
3228.230980 0.8262 0.8265 0.8268 0.8269 0.8270
3233.256708 0.8272 0.8273 0.8274 0.8276 0.8272
3238.282436 0.8268 0.8279 0.8281 0.8282 0.8283
3243.308164 0.8285 0.8286 0.8287 0.8287 0.8287
3248.333892 0.8287 0.8286 0.8286 0.8286 0.8286
3253.359620 0.8285 0.8285 0.8285 0.8285 0.8284
3258.385348 0.8284 0.8284 0.8283 0.8283 0.8282
3263.411076 0.8281 0.8280 0.8279 0.8279 0.8278
3268.436804 0.8277 0.8276 0.8275 0.8273 0.8271
3273.462532 0.8269 0.8267 0.8265 0.8263 0.8261
3278.488260 0.8259 0.8258 0.8256 0.8254 0.8252
3283.513988 0.8250 0.8248 0.8246 0.8244 0.8242
3288.539716 0.8240 0.8238 0.8235 0.8232 0.8227
3293.565444 0.8224 0.8220 0.8216 0.8213 0.8209
3298.591172 0.8206 0.8202 0.8198 0.8195 0.8191
3303.616900 0.8187 0.8184 0.8180 0.8177 0.8174
3308.642628 0.8171 0.8168 0.8165 0.8162 0.8159
3313.668356 0.8156 0.8153 0.8150 0.8147 0.8144
3318.694084 0.8141 0.8138 0.8134 0.8130 0.8125
3323.719812 0.8120 0.8115 0.8110 0.8105 0.8100
3328.745540 0.8095 0.8090 0.8085 0.8080 0.8075
3333.771268 0.8070 0.8065 0.8060 0.8054 0.8047
3338.796996 0.8040 0.8033 0.8025 0.8018 0.8011
3343.822725 0.8003 0.7996 0.7989 0.7981 0.7974
3348.848453 0.7967 0.7959 0.7952 0.7945 0.7937
3353.874181 0.7929 0.7920 0.7911 0.7902 0.7893
3358.899909 0.7884 0.7876 0.7867 0.7858 0.7849
3363.925637 0.7840 0.7831 0.7822 0.7814 0.7806
3368.951365 0.7797 0.7789 0.7781 0.7772 0.7764
3373.977093 0.7756 0.7747 0.7740 0.7734 0.7729
3379.002821 0.7724 0.7718 0.7713 0.7708 0.7703
3384.028549 0.7697 0.7693 0.7692 0.7692 0.7690
3389.054277 0.7690 0.7691 0.7691 0.7691 0.7695
3394.080005 0.7699 0.7704 0.7708 0.7713 0.7717
3399.105733 0.7723 0.7730 0.7738 0.7745 0.7753
3404.131461 0.7760 0.7767 0.7775 0.7782 0.7789
3409.157189 0.7797 0.7805 0.7813 0.7821 0.7829
3414.182917 0.7837 0.7845 0.7854 0.7862 0.7871
3419.208645 0.7880 0.7888 0.7897 0.7905 0.7914
3424.234373 0.7921 0.7928 0.7935 0.7941 0.7948
3429.260101 0.7955 0.7961 0.7968 0.7973 0.7978
3434.285829 0.7982 0.7985 0.7989 0.7993 0.7997
3439.311557 0.8001 0.8004 0.8008 0.8012 0.8016
3444.337285 0.8019 0.8022 0.8025 0.8029 0.8032
3449.363013 0.8035 0.8038 0.8041 0.8044 0.8046
3454.388741 0.8047 0.8047 0.8048 0.8049 0.8049
3459.414469 0.8050 0.8051 0.8051 0.8052 0.8051
3464.440197 0.8050 0.8048 0.8047 0.8046 0.8045
3469.465925 0.8044 0.8043 0.8040 0.8034 0.8027
3474.491653 0.8020 0.8013 0.8006 0.7999 0.7992
3479.517381 0.7985 0.7976 0.7968 0.7960 0.7952
3484.543109 0.7943 0.7935 0.7927 0.7919 0.7913
3489.568837 0.7910 0.7906 0.7902 0.7899 0.7895
3494.594565 0.7891 0.7888 0.7884 0.7880 0.7878
3499.620293 0.7877 0.7875 0.7874 0.7876 0.7881
3504.646021 0.7886 0.7891 0.7898 0.7906 0.7913
3509.671749 0.7920 0.7928 0.7935 0.7943 0.7951
3514.697477 0.7959 0.7967 0.7975 0.7984 0.7993
3519.723205 0.8001 0.8010 0.8018 0.8028 0.8037
3524.748933 0.8046 0.8053 0.8057 0.8058 0.8060
3529.774661 0.8062 0.8064 0.8063 0.8062 0.8061
3534.800389 0.8059 0.8058 0.8057 0.8056 0.8055
3539.826117 0.8054 0.8052 0.8051 0.8050 0.8048
3544.851845 0.8046 0.8044 0.8042 0.8040 0.8038
3549.877573 0.8036 0.8034 0.8032 0.8030 0.8028
3554.903301 0.8027 0.8025 0.8023 0.8022 0.8021
3559.929029 0.8020 0.8019 0.8018 0.8018 0.8017
3564.954757 0.8016 0.8015 0.8014 0.8013 0.8015
3569.980485 0.8017 0.8020 0.8022 0.8025 0.8030
3575.006213 0.8036 0.8042 0.8049 0.8056 0.8063
3580.031941 0.8072 0.8080 0.8088 0.8096 0.8104
3585.057669 0.8112 0.8118 0.8124 0.8129 0.8135
3590.083397 0.8140 0.8145 0.8151 0.8156 0.8161
3595.109125 0.8167 0.8172 0.8178 0.8183 0.8188
3600.134853 0.8194 0.8199 0.8204 0.8207 0.8209
3605.160581 0.8211 0.8213 0.8215 0.8217 0.8218
3610.186309 0.8217 0.8217 0.8216 0.8215 0.8214
3615.212037 0.8214 0.8213 0.8210 0.8207 0.8204
3620.237765 0.8200 0.8197 0.8194 0.8191 0.8188
3625.263493 0.8184 0.8180 0.8174 0.8169 0.8164
3630.289221 0.8158 0.8153 0.8148 0.8142 0.8135
3635.314949 0.8128 0.8121 0.8114 0.8107 0.8100
3640.340677 0.8093 0.8086 0.8079 0.8072 0.8064
3645.366405 0.8056 0.8048 0.8040 0.8032 0.8024
3650.392133 0.8016 0.8008 0.8000 0.7992 0.7982
3655.417861 0.7972 0.7962 0.7953 0.7943 0.7933
3660.443589 0.7923 0.7913 0.7903 0.7894 0.7885
3665.469317 0.7877 0.7868 0.7859 0.7850 0.7841
3670.495045 0.7837 0.7835 0.7833 0.7832 0.7831
3675.520773 0.7829 0.7828 0.7829 0.7830 0.7837
3680.546501 0.7835 0.7834 0.7835 0.7837 0.7843
3685.572229 0.7853 0.7863 0.7872 0.7888 0.7907
3690.597957 0.7926 0.7946 0.7966 0.7988 0.8010
3695.623685 0.8031 0.8052 0.8073 0.8093 0.8114
3700.649413 0.8134 0.8152 0.8170 0.8188 0.8206
3705.675141 0.8223 0.8240 0.8256 0.8266 0.8270
3710.700869 0.8272 0.8274 0.8274 0.8271 0.8268
3715.726597 0.8264 0.8261 0.8257 0.8253 0.8248
3720.752325 0.8246 0.8245 0.8246 0.8254 0.8265
3725.778053 0.8277 0.8290 0.8303 0.8318 0.8335
3730.803781 0.8353 0.8371 0.8389 0.8407 0.8422
3735.829509 0.8434 0.8444 0.8455 0.8460 0.8464
3740.855237 0.8468 0.8471 0.8475 0.8478 0.8480
3745.880965 0.8481 0.8482 0.8482 0.8483 0.8484
3750.906693 0.8485 0.8483 0.8481 0.8479 0.8477
3755.932421 0.8474 0.8472 0.8470 0.8467 0.8465
3760.958149 0.8462 0.8458 0.8454 0.8449 0.8445
3765.983877 0.8441 0.8437 0.8433 0.8430 0.8429
3771.009605 0.8428 0.8426 0.8427 0.8432 0.8437
3776.035333 0.8444 0.8454 0.8466 0.8477 0.8489
3781.061061 0.8499 0.8508 0.8517 0.8526 0.8535
3786.086789 0.8543 0.8548 0.8553 0.8558 0.8562
3791.112517 0.8565 0.8567 0.8569 0.8571 0.8573
3796.138245 0.8575 0.8577 0.8578 0.8580 0.8581
3801.163973 0.8582 0.8584 0.8585 0.8583 0.8585
3806.189701 0.8586 0.8587 0.8587 0.8587 0.8588
3811.215429 0.8588 0.8588 0.8588 0.8589 0.8589
3816.241157 0.8590 0.8590 0.8591 0.8591 0.8592
3821.266885 0.8592 0.8593 0.8593 0.8594 0.8594
3826.292613 0.8595 0.8595 0.8596 0.8596 0.8597
3831.318341 0.8597 0.8598 0.8598 0.8597 0.8596
3836.344069 0.8596 0.8595 0.8594 0.8594 0.8593
3841.369797 0.8593 0.8592 0.8591 0.8591 0.8590
3846.395525 0.8589 0.8587 0.8586 0.8585 0.8583
3851.421253 0.8582 0.8581 0.8579 0.8578 0.8576
3856.446981 0.8575 0.8573 0.8571 0.8568 0.8565
3861.472709 0.8562 0.8560 0.8557 0.8554 0.8551
3866.498437 0.8548 0.8545 0.8537 0.8528 0.8520
3871.524165 0.8511 0.8502 0.8492 0.8481 0.8472
3876.549893 0.8472 0.8474 0.8475 0.8476 0.8478
3881.575621 0.8480 0.8481 0.8483 0.8485 0.8486
3886.601349 0.8488 0.8489 0.8491 0.8493 0.8494
3891.627077 0.8496 0.8498 0.8499 0.8499 0.8499
3896.652805 0.8498 0.8498 0.8498 0.8498 0.8496
3901.678533 0.8494 0.8491 0.8489 0.8486 0.8484
3906.704261 0.8479 0.8474 0.8468 0.8463 0.8458
3911.729989 0.8453 0.8448 0.8439 0.8429 0.8419
3916.755717 0.8409 0.8399 0.8389 0.8379 0.8366
3921.781445 0.8353 0.8341 0.8328 0.8314 0.8296
3926.807173 0.8278 0.8259 0.8240 0.8221 0.8200
3931.832901 0.8178 0.8156 0.8140 0.8128 0.8115
3936.858629 0.8087 0.8111 0.8118 0.8128 0.8148
3941.884357 0.8170 0.8199 0.8228 0.8256 0.8284
3946.910085 0.8317 0.8350 0.8375 0.8397 0.8412
3951.935813 0.8423 0.8434 0.8443 0.8452 0.8459
3956.961541 0.8466 0.8473 0.8479 0.8484 0.8490
3961.987269 0.8495 0.8500 0.8504 0.8507 0.8510
3967.012997 0.8513 0.8516 0.8519 0.8523 0.8526
3972.038725 0.8528 0.8529 0.8531 0.8533 0.8535
3977.064453 0.8537 0.8538 0.8540 0.8542 0.8544
3982.090181 0.8545 0.8547 0.8549 0.8551 0.8552
3987.115909 0.8554 0.8555 0.8556 0.8557 0.8559
3992.141637 0.8560 0.8585 0.8563 0.8563 0.8564
3997.167365 0.8564 0.8565 0.8565 0.8565 0.8566
4002.193093 0.8566 0.8566 0.8566 0.8567 0.8567
4007.218821 0.8567 0.8568 0.8568 0.8567 0.8566
4012.244549 0.8565 0.8564 0.8563 0.8562 0.8561
4017.270277 0.8560 0.8559 0.8559
##END=
