##TITLE=CHLOROMETHYL METHYL ETHER
##JCAMP-DX=4.24
##DATA TYPE=INFRARED SPECTRUM
##CLASS=COBLENTZ
##ORIGIN=DOW CHEMICAL COMPANY
##OWNER=COBLENTZ SOCIETY
Collection (C) 2018 copyright by the U.S. Secretary of Commerce
on behalf of the United States of America. All rights reserved.
##DATE=1965/02/15
##NAMES=chloro(methoxy)methane
##CAS REGISTRY NO=107-30-2
##MOLFORM=C2 H5 Cl O
##SOURCE REFERENCE=COBLENTZ NO. 6991
##$NIST SOURCE=COBLENTZ
##$NIST IMAGE=cob6991
##SPECTROMETER/DATA SYSTEM=DOW KBr FOREPRISM
##INSTRUMENT PARAMETERS=GRATING BLAZED AT 3.5, 12.0, 20.0 MICRONS AND CHANGED AT 5.0, 7.5, 14.9 MICRONS
##STATE=GAS (100 mmHg DILUTED TO A TOTAL PRESSURE OF 600 mmHg WITH NITROGEN)
##PATH LENGTH=5 CM
##SAMPLING PROCEDURE=TRANSMISSION
##RESOLUTION=4
##DATA PROCESSING=DIGITIZED BY NIST FROM HARD COPY (FROM TWO SEGMENTS)
##XUNITS=1/CM
##YUNITS=TRANSMITTANCE
##XFACTOR=1.000000
##YFACTOR=1
##DELTAX=0.878220
##FIRSTX=383.197
##LASTX=3797.72
##FIRSTY=0.991
##MAXX=3797.72
##MINX=383.197
##MAXY=1.00184
##MINY=0.006
##NPOINTS=3889
##XYDATA=(X++(Y..Y))
383.197000 0.9910 0.9910 0.9910 0.9910 0.9910
387.588102 0.9910 0.9910 0.9910 0.9910 0.9910
391.979204 0.9910 0.9910 0.9900 0.9900 0.9900
396.370306 0.9880 0.9880 0.9880 0.9880 0.9860
400.761407 0.9860 0.9840 0.9840 0.9830 0.9830
405.152509 0.9820 0.9820 0.9800 0.9790 0.9790
409.543611 0.9770 0.9770 0.9770 0.9760 0.9750
413.934713 0.9720 0.9690 0.9680 0.9650 0.9640
418.325815 0.9640 0.9580 0.9550 0.9540 0.9530
422.716917 0.9480 0.9460 0.9430 0.9400 0.9370
427.108018 0.9370 0.9350 0.9300 0.9280 0.9240
431.499120 0.9190 0.9150 0.9120 0.9110 0.9040
435.890222 0.8960 0.8920 0.8890 0.8820 0.8720
440.281324 0.8590 0.8490 0.8350 0.8230 0.8130
444.672426 0.8020 0.7950 0.7920 0.7910 0.7880
449.063528 0.7850 0.7810 0.7790 0.7770 0.7740
453.454629 0.7720 0.7670 0.7660 0.7650 0.7620
457.845731 0.7620 0.7630 0.7690 0.7730 0.7740
462.236833 0.7760 0.7770 0.7800 0.7830 0.7910
466.627935 0.7960 0.8139 0.8210 0.8349 0.8519
471.019037 0.8700 0.8900 0.9010 0.9110 0.9180
475.410139 0.9210 0.9240 0.9280 0.9300 0.9330
479.801240 0.9350 0.9360 0.9360 0.9390 0.9400
484.192342 0.9410 0.9430 0.9440 0.9440 0.9440
488.583444 0.9460 0.9460 0.9470 0.9500 0.9500
492.974546 0.9500 0.9510 0.9510 0.9510 0.9510
497.365648 0.9510 0.9510 0.9510 0.9510 0.9500
501.756750 0.9510 0.9510 0.9510 0.9510 0.9510
506.147852 0.9510 0.9510 0.9510 0.9510 0.9510
510.538953 0.9530 0.9530 0.9530 0.9530 0.9530
514.930055 0.9530 0.9530 0.9530 0.9530 0.9530
519.321157 0.9530 0.9530 0.9530 0.9530 0.9530
523.712259 0.9530 0.9530 0.9530 0.9530 0.9530
528.103361 0.9530 0.9530 0.9530 0.9530 0.9530
532.494463 0.9530 0.9530 0.9530 0.9540 0.9540
536.885564 0.9540 0.9540 0.9550 0.9550 0.9550
541.276666 0.9550 0.9570 0.9580 0.9580 0.9580
545.667768 0.9580 0.9590 0.9610 0.9620 0.9640
550.058870 0.9640 0.9550 0.9540 0.9540 0.9540
554.449972 0.9530 0.9530 0.9510 0.9510 0.9500
558.841074 0.9500 0.9480 0.9470 0.9460 0.9440
563.232175 0.9430 0.9430 0.9410 0.9400 0.9390
567.623277 0.9370 0.9360 0.9360 0.9350 0.9330
572.014379 0.9320 0.9300 0.9300 0.9290 0.9280
576.405481 0.9250 0.9240 0.9240 0.9220 0.9210
580.796583 0.9190 0.9190 0.9180 0.9170 0.9140
585.187685 0.9120 0.9110 0.9100 0.9080 0.9070
589.578786 0.9040 0.9040 0.9040 0.9030 0.9030
593.969888 0.9030 0.9030 0.9030 0.9030 0.9030
598.360990 0.9030 0.9030 0.9030 0.9030 0.9030
602.752092 0.9010 0.9000 0.9000 0.8990 0.8970
607.143194 0.8950 0.8950 0.8930 0.8920 0.8900
611.534296 0.8890 0.8860 0.8830 0.8810 0.8780
615.925398 0.8770 0.8750 0.8710 0.8700 0.8670
620.316499 0.8590 0.8540 0.8530 0.8500 0.8430
624.707601 0.8380 0.8340 0.8310 0.8300 0.8280
629.098703 0.8240 0.8170 0.8090 0.7980 0.7940
633.489805 0.7800 0.7730 0.7590 0.7510 0.7410
637.880907 0.7370 0.7230 0.7080 0.6890 0.6680
642.272009 0.6570 0.6430 0.6161 0.6021 0.5871
646.663110 0.5640 0.5370 0.5080 0.4790 0.4371
651.054212 0.3971 0.3541 0.3341 0.2912 0.2472
655.445314 0.2150 0.1900 0.1710 0.1450 0.0981
659.836416 0.0461 0.0131 0.0110 0.0110 0.0090
664.227518 0.0090 0.0080 0.0080 0.0060 0.0060
668.618620 0.0060 0.0060 0.0060 0.0060 0.0060
673.009721 0.0060 0.0060 0.0060 0.0060 0.0060
677.400823 0.0060 0.0060 0.0060 0.0060 0.0060
681.791925 0.0060 0.0060 0.0060 0.0080 0.0080
686.183027 0.0090 0.0090 0.0110 0.0130 0.0190
690.574129 0.0490 0.0820 0.1070 0.1180 0.1998
694.965231 0.2628 0.3248 0.3878 0.4009 0.4727
699.356332 0.5020 0.5560 0.6000 0.6419 0.6570
703.747434 0.6780 0.6999 0.7229 0.7330 0.7798
708.138536 0.7980 0.8160 0.8340 0.8520 0.8700
712.529638 0.8790 0.8900 0.9030 0.9169 0.9319
716.920740 0.9430 0.9530 0.9550 0.9570 0.9650
721.311842 0.9690 0.9700 0.9750 0.9760 0.9790
725.702944 0.9830 0.9840 0.9860 0.9860 0.9860
730.094045 0.9900 0.9930 0.9940 0.9940 0.9940
734.485147 0.9940 0.9940 0.9940 0.9950 0.9950
738.876249 0.9950 0.9940 0.9940 0.9940 0.9940
743.267351 0.9940 0.9940 0.9940 0.9950 0.9950
747.658453 0.9950 0.9950 0.9950 0.9970 0.9980
752.049555 0.9980 0.9980 0.9980 0.9980 0.9970
756.440656 0.9970 0.9970 0.9970 0.9970 0.9970
760.831758 0.9950 0.9940 0.9940 0.9930 0.9930
765.222860 0.9930 0.9930 0.9910 0.9900 0.9900
769.613962 0.9880 0.9860 0.9840 0.9830 0.9820
774.005064 0.9800 0.9790 0.9790 0.9770 0.9760
778.396166 0.9750 0.9720 0.9690 0.9660 0.9640
782.787267 0.9640 0.9610 0.9590 0.9570 0.9550
787.178369 0.9540 0.9540 0.9500 0.9470 0.9460
791.569471 0.9440 0.9430 0.9430 0.9430 0.9430
795.960573 0.9440 0.9440 0.9440 0.9460 0.9460
800.351675 0.9440 0.9440 0.9430 0.9430 0.9440
804.742777 0.9440 0.9440 0.9440 0.9440 0.9440
809.133878 0.9470 0.9470 0.9510 0.9550 0.9570
813.524980 0.9590 0.9620 0.9650 0.9680 0.9690
817.916082 0.9720 0.9760 0.9760 0.9770 0.9770
822.307184 0.9770 0.9790 0.9800 0.9790 0.9790
826.698286 0.9790 0.9790 0.9790 0.9790 0.9800
831.089388 0.9820 0.9820 0.9820 0.9820 0.9820
835.480490 0.9820 0.9820 0.9830 0.9820 0.9820
839.871591 0.9820 0.9820 0.9800 0.9800 0.9790
844.262693 0.9790 0.9790 0.9790 0.9790 0.9790
848.653795 0.9790 0.9790 0.9790 0.9790 0.9790
853.044897 0.9790 0.9790 0.9770 0.9770 0.9770
857.435999 0.9760 0.9760 0.9760 0.9760 0.9760
861.827101 0.9760 0.9750 0.9760 0.9760 0.9760
866.218202 0.9750 0.9730 0.9720 0.9700 0.9690
870.609304 0.9680 0.9660 0.9650 0.9640 0.9620
875.000406 0.9590 0.9570 0.9540 0.9530 0.9510
879.391508 0.9460 0.9390 0.9330 0.9300 0.9260
883.782610 0.9180 0.9120 0.9060 0.8990 0.8920
888.173712 0.8890 0.8790 0.8680 0.8531 0.8410
892.564813 0.8300 0.8130 0.7950 0.7800 0.7590
896.955915 0.7430 0.7250 0.7031 0.6791 0.6531
901.347017 0.6280 0.6020 0.5870 0.5670 0.5291
905.738119 0.5051 0.4791 0.4571 0.4411 0.4002
910.129221 0.3630 0.3310 0.2960 0.2770 0.2590
914.520323 0.2440 0.2290 0.2151 0.2030 0.1930
918.911424 0.1830 0.1740 0.1670 0.1610 0.1560
923.302526 0.1510 0.1490 0.1450 0.1430 0.1390
927.693628 0.1250 0.1250 0.1450 0.1720 0.1690
932.084730 0.1570 0.1470 0.1400 0.1430 0.1510
936.475832 0.1600 0.1750 0.1790 0.1940 0.2220
940.866934 0.2430 0.2620 0.2809 0.3079 0.3409
945.258036 0.3540 0.3880 0.4150 0.4320 0.4689
949.649137 0.4899 0.5289 0.5310 0.5529 0.5868
954.040239 0.6030 0.6280 0.6450 0.6610 0.6830
958.431341 0.7000 0.7229 0.7479 0.7719 0.7899
962.822443 0.7950 0.8050 0.8140 0.8170 0.8200
967.213545 0.8200 0.8190 0.8160 0.8130 0.8080
971.604647 0.7960 0.7920 0.7650 0.7500 0.7270
975.995748 0.7090 0.6801 0.6541 0.6450 0.6032
980.386850 0.5270 0.5080 0.4840 0.4620 0.4220
984.777952 0.4120 0.4110 0.4140 0.4260 0.4350
989.169054 0.4400 0.4400 0.4360 0.3961 0.3711
993.560156 0.2513 0.2510 0.3197 0.4036 0.4757
997.951258 0.4730 0.3970 0.3610 0.3340 0.3310
1002.342359 0.3340 0.3380 0.3500 0.3659 0.3740
1006.733461 0.3970 0.4170 0.4320 0.4760 0.5129
1011.124563 0.5529 0.5949 0.6169 0.6449 0.6639
1015.515665 0.6780 0.6890 0.6930 0.7000 0.7030
1019.906767 0.7230 0.7439 0.7450 0.7510 0.7580
1024.297869 0.7610 0.7630 0.7730 0.7770 0.7800
1028.688970 0.7870 0.7910 0.7950 0.7990 0.8030
1033.080072 0.8060 0.8100 0.8130 0.8140 0.8160
1037.471174 0.8190 0.8210 0.8230 0.8250 0.8270
1041.862276 0.8280 0.8280 0.8300 0.8310 0.8320
1046.253378 0.8320 0.8340 0.8340 0.8350 0.8350
1050.644480 0.8370 0.8370 0.8380 0.8380 0.8380
1055.035581 0.8380 0.8390 0.8390 0.8390 0.8390
1059.426683 0.8380 0.8350 0.8340 0.8320 0.8310
1063.817785 0.8310 0.8240 0.8200 0.8170 0.8140
1068.208887 0.8120 0.8050 0.7940 0.7830 0.7720
1072.599989 0.7670 0.7590 0.7560 0.7410 0.7231
1076.991091 0.7080 0.7050 0.6980 0.6850 0.6750
1081.382193 0.6710 0.6610 0.6580 0.6470 0.6361
1085.773294 0.6290 0.6170 0.6030 0.5990 0.5740
1090.164396 0.5521 0.5311 0.5061 0.4980 0.4771
1094.555498 0.4540 0.4210 0.3930 0.3820 0.3461
1098.946600 0.2871 0.2411 0.2051 0.1761 0.1541
1103.337702 0.1350 0.1160 0.0950 0.0690 0.0340
1107.728804 0.0230 0.0130 0.0080 0.0060 0.0060
1112.119905 0.0080 0.0080 0.0080 0.0080 0.0080
1116.511007 0.0080 0.0080 0.0080 0.0080 0.0060
1120.902109 0.0060 0.0060 0.0060 0.0060 0.0060
1125.293211 0.0060 0.0060 0.0060 0.0060 0.0060
1129.684313 0.0060 0.0060 0.0080 0.0080 0.0080
1134.075415 0.0080 0.0080 0.0080 0.0090 0.0090
1138.466516 0.0110 0.0130 0.0160 0.0240 0.0330
1142.857618 0.0340 0.0380 0.0410 0.0480 0.0599
1147.248720 0.0990 0.1040 0.1090 0.1160 0.1180
1151.639822 0.1210 0.1220 0.1240 0.1240 0.1240
1156.030924 0.1220 0.1210 0.1210 0.1310 0.1540
1160.422026 0.1909 0.2000 0.2050 0.2110 0.2180
1164.813127 0.2230 0.2320 0.2380 0.2470 0.2520
1169.204229 0.2560 0.2580 0.2610 0.2560 0.2500
1173.595331 0.2330 0.2180 0.1980 0.1610 0.1251
1177.986433 0.1090 0.0801 0.0481 0.0171 0.0150
1182.377535 0.0130 0.0120 0.0110 0.0110 0.0110
1186.768637 0.0120 0.0120 0.0120 0.0120 0.0130
1191.159739 0.0150 0.0150 0.0150 0.0150 0.0160
1195.550840 0.0170 0.0190 0.0160 0.0150 0.0120
1199.941942 0.0110 0.0090 0.0090 0.0110 0.0110
1204.333044 0.0110 0.0120 0.0130 0.0130 0.0160
1208.724146 0.0200 0.0270 0.0710 0.1089 0.1429
1213.115248 0.1430 0.2108 0.2409 0.2719 0.3009
1217.506350 0.3270 0.3560 0.4070 0.4460 0.4759
1221.897451 0.5009 0.5239 0.5459 0.5629 0.5749
1226.288553 0.5890 0.6000 0.6040 0.6100 0.6140
1230.679655 0.6310 0.6380 0.6430 0.6460 0.6570
1235.070757 0.6600 0.6610 0.6670 0.6680 0.6710
1239.461859 0.6740 0.6740 0.6740 0.6740 0.6740
1243.852961 0.6720 0.6710 0.6690 0.6680 0.6670
1248.244062 0.6670 0.6620 0.6610 0.6560 0.6490
1252.635164 0.6430 0.6380 0.6310 0.6290 0.6200
1257.026266 0.6160 0.6130 0.6040 0.6000 0.5891
1261.417368 0.5850 0.5750 0.5740 0.5710 0.5660
1265.808470 0.5630 0.5630 0.5620 0.5600 0.5560
1270.199572 0.5530 0.5520 0.5520 0.5490 0.5480
1274.590673 0.5370 0.5220 0.4901 0.4900 0.4950
1278.981775 0.5400 0.5560 0.5700 0.5710 0.5710
1283.372877 0.5730 0.5770 0.5870 0.5890 0.5930
1287.763979 0.6000 0.6020 0.6060 0.6130 0.6180
1292.155081 0.6200 0.6200 0.6200 0.6180 0.6160
1296.546183 0.6130 0.6090 0.6040 0.5910 0.5780
1300.937285 0.5640 0.5490 0.5350 0.5201 0.5041
1305.328386 0.4860 0.4660 0.4400 0.4080 0.3781
1309.719488 0.3600 0.3381 0.3081 0.2721 0.2561
1314.110590 0.2540 0.2550 0.2620 0.2650 0.2770
1318.501692 0.3099 0.3369 0.3410 0.3380 0.2185
1322.892794 0.2181 0.3630 0.4000 0.3970 0.2662
1327.283896 0.2181 0.2160 0.2180 0.2379 0.2579
1331.674997 0.2790 0.2980 0.3190 0.3370 0.3810
1336.066099 0.4319 0.4649 0.5059 0.5309 0.5639
1340.457201 0.6030 0.6320 0.6560 0.6740 0.6890
1344.848303 0.7000 0.7080 0.7160 0.7260 0.7369
1349.239405 0.7510 0.7670 0.7800 0.7880 0.7920
1353.630507 0.7950 0.8030 0.8120 0.8160 0.8299
1358.021608 0.8350 0.8410 0.8500 0.8590 0.8660
1362.412710 0.8710 0.8740 0.8780 0.8790 0.8810
1366.803812 0.8810 0.8820 0.8830 0.8890 0.8890
1371.194914 0.8900 0.8900 0.8900 0.8900 0.8900
1375.586016 0.8900 0.8900 0.8920 0.8930 0.8950
1379.977118 0.8950 0.8930 0.8890 0.8810 0.8720
1384.368219 0.8700 0.8700 0.8630 0.8610 0.8610
1388.759321 0.8600 0.8610 0.8610 0.8590 0.8530
1393.150423 0.8500 0.8430 0.8410 0.8420 0.8540
1397.541525 0.8610 0.8610 0.8590 0.8530 0.8480
1401.932627 0.8460 0.8460 0.8480 0.8480 0.8500
1406.323729 0.8500 0.8520 0.8530 0.8560 0.8570
1410.714831 0.8610 0.8660 0.8700 0.8710 0.8720
1415.105932 0.8750 0.8770 0.8780 0.8770 0.8770
1419.497034 0.8740 0.8720 0.8700 0.8680 0.8660
1423.888136 0.8610 0.8570 0.8540 0.8500 0.8460
1428.279238 0.8340 0.8280 0.8140 0.7990 0.7920
1432.670340 0.7760 0.7660 0.7580 0.7411 0.7231
1437.061442 0.7110 0.7070 0.7000 0.6780 0.6471
1441.452543 0.6171 0.5821 0.5581 0.5172 0.4971
1445.843645 0.4900 0.4900 0.4910 0.4930 0.4930
1450.234747 0.4880 0.4830 0.4730 0.4610 0.4411
1454.625849 0.4010 0.3850 0.3830 0.3860 0.3930
1459.016951 0.3950 0.3970 0.4000 0.4010 0.3990
1463.408053 0.3920 0.3880 0.3710 0.3710 0.4170
1467.799154 0.4619 0.4640 0.4291 0.4111 0.3921
1472.190256 0.3720 0.3720 0.4140 0.4410 0.4689
1476.581358 0.4899 0.5010 0.5060 0.5349 0.5509
1480.972460 0.5800 0.5890 0.6020 0.6170 0.6310
1485.363562 0.6460 0.6600 0.6720 0.6820 0.6860
1489.754664 0.7050 0.7250 0.7450 0.7660 0.7740
1494.145765 0.7800 0.7870 0.7950 0.8050 0.8120
1498.536867 0.8190 0.8270 0.8350 0.8450 0.8520
1502.927969 0.8600 0.8630 0.8680 0.8700 0.8710
1507.319071 0.8720 0.8740 0.8780 0.8810 0.8880
1511.710173 0.8900 0.8920 0.8920 0.8930 0.8960
1516.101275 0.8970 0.9000 0.9030 0.9060 0.9070
1520.492377 0.9070 0.9080 0.9080 0.9100 0.9100
1524.883478 0.9100 0.9100 0.9100 0.9110 0.9110
1529.274580 0.9120 0.9120 0.9120 0.9120 0.9110
1533.665682 0.9110 0.9120 0.9120 0.9140 0.9140
1538.056784 0.9140 0.9140 0.9140 0.9120 0.9120
1542.447886 0.9120 0.9120 0.9110 0.9110 0.9110
1546.838988 0.9100 0.9100 0.9100 0.9080 0.9080
1551.230089 0.9080 0.9080 0.9070 0.9070 0.9070
1555.621191 0.9070 0.9060 0.9040 0.9030 0.9030
1560.012293 0.9010 0.8990 0.8970 0.8960 0.8960
1564.403395 0.8960 0.8950 0.8950 0.8950 0.8930
1568.794497 0.8930 0.8930 0.8920 0.8920 0.8920
1573.185599 0.8900 0.8900 0.8890 0.8890 0.8890
1577.576700 0.8880 0.8880 0.8860 0.8860 0.8850
1581.967802 0.8850 0.8850 0.8850 0.8850 0.8830
1586.358904 0.8830 0.8830 0.8830 0.8830 0.8830
1590.750006 0.8830 0.8830 0.8850 0.8860 0.8860
1595.141108 0.8880 0.8890 0.8890 0.8900 0.8920
1599.532210 0.8920 0.8930 0.8950 0.8950 0.8970
1603.923311 0.8970 0.8990 0.9000 0.9000 0.9000
1608.314413 0.9010 0.9010 0.9010 0.9030 0.9040
1612.705515 0.9040 0.9060 0.9070 0.9080 0.9110
1617.096617 0.9110 0.9120 0.9120 0.9140 0.9150
1621.487719 0.9150 0.9150 0.9150 0.9170 0.9170
1625.878821 0.9170 0.9170 0.9170 0.9150 0.9150
1630.269923 0.9150 0.9150 0.9140 0.9140 0.9140
1634.661024 0.9140 0.9120 0.9120 0.9120 0.9120
1639.052126 0.9120 0.9120 0.9120 0.9140 0.9140
1643.443228 0.9140 0.9140 0.9150 0.9170 0.9180
1647.834330 0.9180 0.9180 0.9180 0.9180 0.9150
1652.225432 0.9150 0.9150 0.9140 0.9150 0.9150
1656.616534 0.9170 0.9170 0.9170 0.9180 0.9190
1661.007635 0.9210 0.9220 0.9220 0.9240 0.9250
1665.398737 0.9260 0.9300 0.9300 0.9300 0.9300
1669.789839 0.9290 0.9320 0.9320 0.9300 0.9300
1674.180941 0.9320 0.9320 0.9320 0.9330 0.9330
1678.572043 0.9330 0.9330 0.9350 0.9330 0.9320
1682.963145 0.9320 0.9320 0.9320 0.9320 0.9320
1687.354246 0.9320 0.9320 0.9320 0.9320 0.9300
1691.745348 0.9300 0.9300 0.9300 0.9320 0.9320
1696.136450 0.9320 0.9320 0.9320 0.9300 0.9280
1700.527552 0.9250 0.9210 0.9190 0.9190 0.9180
1704.918654 0.9180 0.9180 0.9170 0.9170 0.9170
1709.309756 0.9170 0.9150 0.9120 0.9150 0.9150
1713.700857 0.9140 0.9120 0.9120 0.9110 0.9110
1718.091959 0.9110 0.9110 0.9110 0.9110 0.9100
1722.483061 0.9110 0.9100 0.9080 0.9100 0.9080
1726.874163 0.9070 0.9100 0.9080 0.9060 0.9040
1731.265265 0.9010 0.8990 0.8970 0.8960 0.8920
1735.656367 0.8900 0.8900 0.8820 0.8790 0.8790
1740.047469 0.8740 0.8491 0.7842 0.7840 0.8696
1744.438570 0.8750 0.8770 0.8780 0.8780 0.8780
1748.829672 0.8780 0.8780 0.8790 0.8780 0.8780
1753.220774 0.8770 0.8770 0.8750 0.8720 0.8720
1757.611876 0.8710 0.8720 0.8740 0.8780 0.8820
1762.002978 0.8860 0.8900 0.8900 0.8920 0.8930
1766.394080 0.8970 0.8990 0.9010 0.9010 0.9030
1770.785181 0.9100 0.9110 0.9110 0.9110 0.9120
1775.176283 0.9140 0.9150 0.9180 0.9190 0.9190
1779.567385 0.9190 0.9210 0.9220 0.9240 0.9240
1783.958487 0.9240 0.9240 0.9250 0.9250 0.9250
1788.349589 0.9260 0.9260 0.9280 0.9280 0.9290
1792.740691 0.9290 0.9300 0.9300 0.9300 0.9300
1797.131792 0.9300 0.9300 0.9300 0.9300 0.9300
1801.522894 0.9300 0.9300 0.9320 0.9320 0.9320
1805.913996 0.9320 0.9330 0.9330 0.9330 0.9350
1810.305098 0.9350 0.9360 0.9370 0.9370 0.9390
1814.696200 0.9400 0.9410 0.9430 0.9440 0.9470
1819.087302 0.9470 0.9470 0.9480 0.9500 0.9500
1823.478403 0.9500 0.9500 0.9500 0.9480 0.9480
1827.869505 0.9480 0.9470 0.9470 0.9470 0.9460
1832.260607 0.9460 0.9460 0.9440 0.9440 0.9440
1836.651709 0.9430 0.9430 0.9430 0.9430 0.9440
1841.042811 0.9440 0.9430 0.9430 0.9430 0.9430
1845.433913 0.9430 0.9430 0.9430 0.9430 0.9410
1849.825015 0.9410 0.9410 0.9410 0.9400 0.9400
1854.216116 0.9400 0.9390 0.9370 0.9370 0.9360
1858.607218 0.9350 0.9350 0.9330 0.9330 0.9330
1862.998320 0.9330 0.9330 0.9350 0.9350 0.9350
1867.389422 0.9360 0.9360 0.9370 0.9370 0.9390
1871.780524 0.9400 0.9400 0.9400 0.9400 0.9400
1876.171626 0.9400 0.9400 0.9400 0.9400 0.9400
1880.562727 0.9400 0.9410 0.9410 0.9400 0.9430
1884.953829 0.9430 0.9440 0.9460 0.9500 0.9510
1889.344931 0.9530 0.9550 0.9570 0.9590 0.9590
1893.736033 0.9590 0.9610 0.9610 0.9610 0.9610
1898.127135 0.9610 0.9610 0.9610 0.9610 0.9610
1902.518237 0.9590 0.9590 0.9590 0.9590 0.9580
1906.909338 0.9580 0.9580 0.9580 0.9580 0.9580
1911.300440 0.9570 0.9570 0.9570 0.9570 0.9570
1915.691542 0.9570 0.9550 0.9550 0.9550 0.9550
1920.082644 0.9550 0.9550 0.9550 0.9550 0.9550
1924.473746 0.9550 0.9550 0.9550 0.9550 0.9550
1928.864848 0.9550 0.9550 0.9550 0.9550 0.9550
1933.255949 0.9550 0.9550 0.9550 0.9550 0.9550
1937.647051 0.9550 0.9550 0.9550 0.9570 0.9570
1942.038153 0.9570 0.9570 0.9570 0.9570 0.9570
1946.429255 0.9570 0.9570 0.9570 0.9570 0.9570
1950.820357 0.9550 0.9550 0.9550 0.9550 0.9540
1955.211459 0.9540 0.9540 0.9540 0.9540 0.9540
1959.602561 0.9510 0.9470 0.9470 0.9460 0.9460
1963.993662 0.9460 0.9440 0.9440 0.9440 0.9440
1968.384764 0.9440 0.9440 0.9440 0.9440 0.9440
1972.775866 0.9440 0.9440 0.9430 0.9430 0.9430
1977.166968 0.9430 0.9430 0.9430 0.9430 0.9430
1981.558070 0.9440 0.9440 0.9440 0.9460 0.9460
1985.949172 0.9470 0.9470 0.9470 0.9470 0.9460
1990.340273 0.9460 0.9460 0.9460 0.9460 0.9460
1994.731375 0.9470 0.9480 0.9500 0.9510 0.9530
1999.122477 0.9530 0.9540 0.9540 0.9540 0.9540
2003.513579 0.9540 0.9540 0.9540 0.9540 0.9540
2007.904681 0.9540 0.9540 0.9525 0.9510 0.9495
2012.295783 0.9480 0.9475 0.9470 0.9465 0.9460
2016.686884 0.9450 0.9440 0.9435 0.9430 0.9410
2021.077986 0.9389 0.9359 0.9330 0.9325 0.9319
2025.469088 0.9289 0.9259 0.9239 0.9219 0.9184
2029.860190 0.9150 0.9135 0.9119 0.9063 0.9008
2034.251292 0.8953 0.8898 0.8863 0.8828 0.8783
2038.642394 0.8737 0.8667 0.8596 0.8506 0.8415
2043.033495 0.8320 0.8227 0.8157 0.8090 0.8085
2047.424597 0.8080 0.8080 0.8081 0.8101 0.8121
2051.815699 0.8141 0.8160 0.8165 0.8171 0.8181
2056.206801 0.8189 0.8179 0.8168 0.8143 0.8119
2060.597903 0.8104 0.8091 0.8106 0.8123 0.8163
2064.989005 0.8203 0.8238 0.8274 0.8324 0.8376
2069.380107 0.8451 0.8540 0.8755 0.8959 0.9054
2073.771208 0.9147 0.9222 0.9290 0.9295 0.9301
2078.162310 0.9311 0.9320 0.9325 0.9331 0.9346
2082.553412 0.9360 0.9365 0.9370 0.9370 0.9370
2086.944514 0.9370 0.9370 0.9370 0.9370 0.9370
2091.335616 0.9369 0.9364 0.9359 0.9354 0.9350
2095.726718 0.9350 0.9348 0.9333 0.9318 0.9298
2100.117819 0.9276 0.9246 0.9218 0.9198 0.9176
2104.508921 0.9140 0.9108 0.9093 0.9072 0.9017
2108.900023 0.8964 0.8924 0.8877 0.8787 0.8694
2113.291125 0.8584 0.8472 0.8347 0.8239 0.8234
2117.682227 0.8230 0.8230 0.8231 0.8236 0.8242
2122.073329 0.8257 0.8273 0.8293 0.8312 0.8327
2126.464430 0.8365 0.8515 0.8640 0.8640 0.8601
2130.855532 0.8366 0.8167 0.8147 0.8142 0.8212
2135.246634 0.8283 0.8358 0.8436 0.8531 0.8633
2139.637736 0.8769 0.8904 0.9034 0.9160 0.9265
2144.028838 0.9361 0.9421 0.9471 0.9476 0.9485
2148.419940 0.9510 0.9531 0.9536 0.9541 0.9546
2152.811041 0.9550 0.9550 0.9550 0.9550 0.9550
2157.202143 0.9550 0.9550 0.9550 0.9552 0.9562
2161.593245 0.9570 0.9570 0.9568 0.9558 0.9550
2165.984347 0.9550 0.9550 0.9550 0.9549 0.9544
2170.375449 0.9540 0.9540 0.9539 0.9534 0.9528
2174.766551 0.9518 0.9510 0.9510 0.9509 0.9504
2179.157653 0.9496 0.9481 0.9463 0.9433 0.9409
2183.548754 0.9404 0.9400 0.9400 0.9400 0.9400
2187.939856 0.9400 0.9400 0.9399 0.9394 0.9390
2192.330958 0.9390 0.9390 0.9390 0.9391 0.9396
2196.722060 0.9399 0.9394 0.9390 0.9390 0.9386
2201.113162 0.9371 0.9359 0.9354 0.9351 0.9356
2205.504264 0.9364 0.9379 0.9393 0.9403 0.9417
2209.895365 0.9442 0.9467 0.9492 0.9513 0.9523
2214.286467 0.9531 0.9536 0.9541 0.9546 0.9550
2218.677569 0.9550 0.9553 0.9563 0.9571 0.9576
2223.068671 0.9580 0.9580 0.9580 0.9580 0.9580
2227.459773 0.9580 0.9578 0.9573 0.9567 0.9557
2231.850875 0.9548 0.9543 0.9531 0.9501 0.9477
2236.241976 0.9467 0.9460 0.9460 0.9452 0.9427
2240.633078 0.9404 0.9384 0.9368 0.9363 0.9358
2245.024180 0.9353 0.9347 0.9337 0.9330 0.9330
2249.415282 0.9337 0.9357 0.9373 0.9383 0.9392
2253.806384 0.9397 0.9400 0.9400 0.9400 0.9400
2258.197486 0.9400 0.9400 0.9402 0.9407 0.9420
2262.588587 0.9450 0.9482 0.9517 0.9542 0.9547
2266.979689 0.9554 0.9564 0.9574 0.9584 0.9590
2271.370791 0.9590 0.9590 0.9590 0.9594 0.9604
2275.761893 0.9610 0.9610 0.9610 0.9610 0.9610
2280.152995 0.9610 0.9612 0.9617 0.9620 0.9620
2284.544097 0.9620 0.9620 0.9620 0.9620 0.9618
2288.935198 0.9613 0.9610 0.9610 0.9606 0.9596
2293.326300 0.9590 0.9590 0.9588 0.9583 0.9578
2297.717402 0.9573 0.9566 0.9556 0.9546 0.9536
2302.108504 0.9510 0.9460 0.9422 0.9402 0.9378
2306.499606 0.9348 0.9328 0.9323 0.9316 0.9306
2310.890708 0.9300 0.9300 0.9304 0.9314 0.9322
2315.281810 0.9327 0.9334 0.9344 0.9358 0.9378
2319.672911 0.9401 0.9426 0.9453 0.9483 0.9515
2324.064013 0.9550 0.9572 0.9577 0.9582 0.9587
2328.455115 0.9596 0.9611 0.9624 0.9634 0.9649
2332.846217 0.9669 0.9684 0.9694 0.9700 0.9700
2337.237319 0.9704 0.9714 0.9720 0.9720 0.9716
2341.628421 0.9706 0.9698 0.9693 0.9690 0.9690
2346.019522 0.9688 0.9683 0.9676 0.9666 0.9658
2350.410624 0.9653 0.9643 0.9628 0.9618 0.9613
2354.801726 0.9610 0.9610 0.9605 0.9595 0.9588
2359.192828 0.9583 0.9578 0.9573 0.9565 0.9555
2363.583930 0.9548 0.9543 0.9533 0.9518 0.9503
2367.975032 0.9488 0.9470 0.9450 0.9438 0.9433
2372.366133 0.9420 0.9400 0.9380 0.9360 0.9350
2376.757235 0.9350 0.9365 0.9395 0.9410 0.9410
2381.148337 0.9408 0.9403 0.9398 0.9393 0.9382
2385.539439 0.9367 0.9360 0.9360 0.9357 0.9352
2389.930541 0.9350 0.9350 0.9350 0.9350 0.9350
2394.321643 0.9350 0.9350 0.9350 0.9353 0.9358
2398.712744 0.9370 0.9390 0.9421 0.9461 0.9493
2403.103846 0.9518 0.9530 0.9530 0.9535 0.9545
2407.494948 0.9555 0.9565 0.9573 0.9578 0.9588
2411.886050 0.9603 0.9618 0.9633 0.9643 0.9648
2416.277152 0.9653 0.9658 0.9665 0.9675 0.9683
2420.668254 0.9688 0.9693 0.9698 0.9700 0.9700
2425.059356 0.9700 0.9700 0.9700 0.9700 0.9700
2429.450457 0.9700 0.9700 0.9700 0.9700 0.9700
2433.841559 0.9700 0.9700 0.9697 0.9692 0.9690
2438.232661 0.9690 0.9690 0.9690 0.9690 0.9690
2442.623763 0.9687 0.9682 0.9680 0.9680 0.9680
2447.014865 0.9680 0.9680 0.9680 0.9680 0.9680
2451.405967 0.9674 0.9664 0.9660 0.9660 0.9660
2455.797068 0.9660 0.9657 0.9652 0.9650 0.9650
2460.188170 0.9653 0.9658 0.9660 0.9660 0.9660
2464.579272 0.9660 0.9666 0.9676 0.9680 0.9680
2468.970374 0.9683 0.9688 0.9702 0.9722 0.9736
2473.361476 0.9746 0.9750 0.9750 0.9750 0.9750
2477.752578 0.9753 0.9758 0.9763 0.9768 0.9770
2482.143679 0.9770 0.9776 0.9786 0.9790 0.9790
2486.534781 0.9790 0.9790 0.9790 0.9790 0.9790
2490.925883 0.9790 0.9790 0.9790 0.9790 0.9790
2495.316985 0.9793 0.9798 0.9800 0.9800 0.9800
2499.708087 0.9800 0.9800 0.9800 0.9800 0.9800
2504.099189 0.9800 0.9800 0.9800 0.9800 0.9800
2508.490290 0.9800 0.9800 0.9800 0.9800 0.9800
2512.881392 0.9800 0.9800 0.9807 0.9817 0.9823
2517.272494 0.9828 0.9830 0.9830 0.9830 0.9830
2521.663596 0.9830 0.9830 0.9830 0.9830 0.9830
2526.054698 0.9830 0.9826 0.9821 0.9820 0.9820
2530.445800 0.9820 0.9820 0.9820 0.9820 0.9820
2534.836902 0.9820 0.9820 0.9820 0.9820 0.9820
2539.228003 0.9813 0.9803 0.9800 0.9800 0.9800
2543.619105 0.9800 0.9796 0.9791 0.9790 0.9790
2548.010207 0.9790 0.9790 0.9790 0.9790 0.9790
2552.401309 0.9790 0.9790 0.9790 0.9783 0.9773
2556.792411 0.9770 0.9770 0.9770 0.9770 0.9770
2561.183513 0.9770 0.9770 0.9770 0.9770 0.9770
2565.574614 0.9766 0.9761 0.9760 0.9760 0.9756
2569.965716 0.9751 0.9750 0.9750 0.9742 0.9732
2574.356818 0.9719 0.9704 0.9696 0.9691 0.9686
2578.747920 0.9681 0.9668 0.9653 0.9646 0.9641
2583.139022 0.9640 0.9640 0.9632 0.9622 0.9620
2587.530124 0.9620 0.9616 0.9611 0.9610 0.9610
2591.921225 0.9610 0.9610 0.9610 0.9610 0.9610
2596.312327 0.9610 0.9610 0.9610 0.9610 0.9610
2600.703429 0.9614 0.9619 0.9620 0.9620 0.9620
2605.094531 0.9620 0.9620 0.9620 0.9620 0.9620
2609.485633 0.9620 0.9620 0.9616 0.9611 0.9610
2613.876735 0.9610 0.9602 0.9592 0.9590 0.9590
2618.267836 0.9590 0.9590 0.9586 0.9581 0.9580
2622.658938 0.9580 0.9580 0.9580 0.9580 0.9580
2627.050040 0.9580 0.9580 0.9580 0.9580 0.9584
2631.441142 0.9589 0.9590 0.9590 0.9590 0.9590
2635.832244 0.9598 0.9608 0.9610 0.9610 0.9610
2640.223346 0.9610 0.9614 0.9619 0.9628 0.9638
2644.614448 0.9644 0.9649 0.9650 0.9650 0.9654
2649.005549 0.9659 0.9660 0.9660 0.9669 0.9679
2653.396651 0.9680 0.9680 0.9680 0.9680 0.9680
2657.787753 0.9680 0.9680 0.9680 0.9680 0.9680
2662.178855 0.9680 0.9680 0.9680 0.9680 0.9680
2666.569957 0.9680 0.9680 0.9680 0.9680 0.9680
2670.961059 0.9680 0.9680 0.9684 0.9689 0.9690
2675.352160 0.9690 0.9694 0.9699 0.9709 0.9719
2679.743262 0.9724 0.9729 0.9739 0.9749 0.9750
2684.134364 0.9750 0.9741 0.9731 0.9730 0.9730
2688.525466 0.9725 0.9720 0.9711 0.9701 0.9695
2692.916568 0.9690 0.9685 0.9680 0.9671 0.9661
2697.307670 0.9660 0.9660 0.9669 0.9679 0.9685
2701.698771 0.9690 0.9695 0.9700 0.9700 0.9700
2706.089873 0.9700 0.9700 0.9700 0.9700 0.9695
2710.480975 0.9690 0.9685 0.9680 0.9671 0.9661
2714.872077 0.9660 0.9660 0.9655 0.9650 0.9631
2719.263179 0.9611 0.9610 0.9610 0.9596 0.9581
2723.654281 0.9566 0.9551 0.9545 0.9540 0.9535
2728.045382 0.9530 0.9516 0.9501 0.9490 0.9480
2732.436484 0.9475 0.9470 0.9456 0.9441 0.9435
2736.827586 0.9430 0.9420 0.9410 0.9400 0.9390
2741.218688 0.9360 0.9330 0.9305 0.9280 0.9270
2745.609790 0.9260 0.9250 0.9240 0.9225 0.9210
2750.000892 0.9195 0.9180 0.9175 0.9170 0.9155
2754.391994 0.9140 0.9125 0.9110 0.9090 0.9070
2758.783095 0.9055 0.9040 0.9035 0.9030 0.9020
2763.174197 0.9010 0.9005 0.9000 0.8995 0.8990
2767.565299 0.8960 0.8930 0.8879 0.8829 0.8764
2771.956401 0.8698 0.8633 0.8570 0.8570 0.8571
2776.347503 0.8616 0.8661 0.8686 0.8711 0.8746
2780.738605 0.8781 0.8816 0.8850 0.8855 0.8861
2785.129706 0.8881 0.8900 0.8910 0.8920 0.8920
2789.520808 0.8919 0.8909 0.8900 0.8900 0.8898
2793.911910 0.8863 0.8828 0.8798 0.8763 0.8643
2798.303012 0.8526 0.8451 0.8378 0.8338 0.8299
2802.694114 0.8284 0.8269 0.8254 0.8239 0.8219
2807.085216 0.8197 0.8157 0.8113 0.8023 0.7923
2811.476317 0.7703 0.7483 0.7268 0.7064 0.6984
2815.867419 0.6901 0.6786 0.6652 0.6292 0.5949
2820.258521 0.5814 0.5674 0.5479 0.5289 0.5147
2824.649623 0.5010 0.4910 0.4808 0.4688 0.4564
2829.040725 0.4404 0.4235 0.3990 0.3762 0.3682
2833.431827 0.3598 0.3483 0.3379 0.3374 0.3371
2837.822928 0.3376 0.3384 0.3419 0.3456 0.3517
2842.214030 0.3571 0.3581 0.3590 0.3590 0.3591
2846.605132 0.3601 0.3611 0.3621 0.3646 0.3776
2850.996234 0.3906 0.4031 0.4172 0.4422 0.4678
2855.387336 0.4978 0.5241 0.5251 0.5266 0.5311
2859.778438 0.5357 0.5402 0.5440 0.5440 0.5440
2864.169540 0.5440 0.5437 0.5417 0.5390 0.5325
2868.560641 0.5265 0.5230 0.5188 0.5108 0.5023
2872.951743 0.4913 0.4803 0.4688 0.4585 0.4555
2877.342845 0.4506 0.4366 0.4220 0.4045 0.3873
2881.733947 0.3718 0.3571 0.3461 0.3353 0.3253
2886.125049 0.3152 0.3047 0.2943 0.2843 0.2742
2890.516151 0.2637 0.2534 0.2444 0.2357 0.2281
2894.907252 0.2209 0.2154 0.2103 0.2068 0.2037
2899.298354 0.2022 0.1998 0.1938 0.1887 0.1872
2903.689456 0.1857 0.1842 0.1829 0.1824 0.1820
2908.080558 0.1820 0.1820 0.1820 0.1818 0.1808
2912.471660 0.1800 0.1800 0.1799 0.1794 0.1790
2916.862762 0.1790 0.1787 0.1772 0.1751 0.1711
2921.253863 0.1676 0.1656 0.1636 0.1616 0.1596
2925.644965 0.1576 0.1548 0.1493 0.1427 0.1320
2930.036067 0.1218 0.1128 0.1056 0.1041 0.1034
2934.427169 0.1049 0.1082 0.1172 0.1238 0.1228
2938.818271 0.1207 0.1152 0.1100 0.1060 0.1024
2943.209373 0.0999 0.0980 0.0980 0.0986 0.1011
2947.600474 0.1034 0.1049 0.1061 0.1066 0.1069
2951.991576 0.1064 0.1040 0.0965 0.0905 0.0885
2956.382678 0.0846 0.0756 0.0690 0.0690 0.0745
2960.773780 0.0950 0.1159 0.1379 0.1543 0.1553
2965.164882 0.1572 0.1612 0.1666 0.1756 0.1866
2969.555984 0.2026 0.2167 0.2262 0.2350 0.2420
2973.947086 0.2482 0.2522 0.2565 0.2615 0.2666
2978.338187 0.2721 0.2839 0.3109 0.3344 0.3496
2982.729289 0.3619 0.3679 0.3768 0.3923 0.4069
2987.120391 0.4194 0.4316 0.4431 0.4538 0.4628
2991.511493 0.4695 0.4710 0.4720 0.4720 0.4717
2995.902595 0.4707 0.4680 0.4615 0.4530 0.4404
3000.293697 0.4243 0.4013 0.3805 0.3640 0.3470
3004.684798 0.3290 0.3135 0.3030 0.2938 0.2873
3009.075900 0.2815 0.2770 0.2733 0.2713 0.2698
3013.467002 0.2693 0.2678 0.2643 0.2603 0.2552
3017.858104 0.2507 0.2472 0.2463 0.2498 0.2622
3022.249206 0.2907 0.3090 0.3090 0.3058 0.2968
3026.640308 0.2890 0.2835 0.2800 0.2800 0.2957
3031.031409 0.3392 0.3764 0.4024 0.4281 0.4534
3035.422511 0.4760 0.4946 0.5111 0.5247 0.5393
3039.813613 0.5558 0.5736 0.5936 0.6104 0.6219
3044.204715 0.6323 0.6408 0.6525 0.6695 0.6835
3048.595817 0.6925 0.7055 0.7250 0.7442 0.7629
3052.986919 0.7799 0.7944 0.8044 0.8079 0.8118
3057.378020 0.8163 0.8214 0.8274 0.8344 0.8430
3061.769122 0.8504 0.8564 0.8620 0.8670 0.8704
3066.160224 0.8714 0.8730 0.8755 0.8778 0.8798
3070.551326 0.8827 0.8867 0.8903 0.8933 0.8952
3074.942428 0.8957 0.8969 0.8989 0.9002 0.9007
3079.333530 0.9023 0.9053 0.9079 0.9099 0.9112
3083.724632 0.9117 0.9124 0.9134 0.9142 0.9147
3088.115733 0.9157 0.9172 0.9187 0.9202 0.9217
3092.506835 0.9232 0.9245 0.9255 0.9260 0.9260
3096.897937 0.9269 0.9289 0.9307 0.9322 0.9335
3101.289039 0.9345 0.9359 0.9379 0.9392 0.9397
3105.680141 0.9400 0.9400 0.9402 0.9407 0.9417
3110.071243 0.9432 0.9445 0.9455 0.9462 0.9467
3114.462344 0.9470 0.9470 0.9472 0.9477 0.9480
3118.853446 0.9480 0.9485 0.9495 0.9500 0.9500
3123.244548 0.9502 0.9507 0.9510 0.9510 0.9515
3127.635650 0.9525 0.9530 0.9530 0.9530 0.9530
3132.026752 0.9530 0.9530 0.9530 0.9530 0.9530
3136.417854 0.9530 0.9533 0.9538 0.9540 0.9540
3140.808955 0.9543 0.9548 0.9550 0.9550 0.9550
3145.200057 0.9550 0.9555 0.9565 0.9575 0.9585
3149.591159 0.9608 0.9643 0.9665 0.9675 0.9680
3153.982261 0.9680 0.9680 0.9680 0.9683 0.9688
3158.373363 0.9698 0.9713 0.9731 0.9751 0.9760
3162.764465 0.9760 0.9763 0.9768 0.9775 0.9785
3167.155566 0.9790 0.9790 0.9790 0.9790 0.9790
3171.546668 0.9790 0.9793 0.9798 0.9800 0.9800
3175.937770 0.9800 0.9800 0.9800 0.9800 0.9800
3180.328872 0.9800 0.9806 0.9816 0.9820 0.9820
3184.719974 0.9820 0.9820 0.9820 0.9820 0.9820
3189.111076 0.9820 0.9823 0.9828 0.9830 0.9830
3193.502178 0.9833 0.9838 0.9840 0.9840 0.9846
3197.893279 0.9856 0.9860 0.9860 0.9863 0.9868
3202.284381 0.9870 0.9870 0.9870 0.9870 0.9870
3206.675483 0.9870 0.9870 0.9870 0.9870 0.9870
3211.066585 0.9870 0.9870 0.9870 0.9870 0.9870
3215.457687 0.9870 0.9870 0.9870 0.9870 0.9870
3219.848789 0.9867 0.9862 0.9860 0.9860 0.9863
3224.239890 0.9868 0.9870 0.9870 0.9870 0.9870
3228.630992 0.9870 0.9870 0.9870 0.9870 0.9870
3233.022094 0.9870 0.9870 0.9870 0.9870 0.9870
3237.413196 0.9870 0.9870 0.9870 0.9870 0.9870
3241.804298 0.9870 0.9870 0.9870 0.9870 0.9870
3246.195400 0.9870 0.9870 0.9873 0.9878 0.9880
3250.586501 0.9880 0.9887 0.9897 0.9900 0.9900
3254.977603 0.9900 0.9900 0.9900 0.9900 0.9893
3259.368705 0.9883 0.9880 0.9880 0.9880 0.9880
3263.759807 0.9880 0.9880 0.9880 0.9880 0.9880
3268.150909 0.9880 0.9880 0.9880 0.9880 0.9880
3272.542011 0.9880 0.9880 0.9880 0.9880 0.9880
3276.933112 0.9880 0.9880 0.9880 0.9880 0.9880
3281.324214 0.9880 0.9880 0.9880 0.9880 0.9887
3285.715316 0.9897 0.9893 0.9883 0.9876 0.9871
3290.106418 0.9870 0.9870 0.9870 0.9870 0.9870
3294.497520 0.9870 0.9870 0.9870 0.9870 0.9870
3298.888622 0.9870 0.9870 0.9870 0.9870 0.9870
3303.279724 0.9870 0.9870 0.9870 0.9870 0.9870
3307.670825 0.9870 0.9870 0.9874 0.9879 0.9880
3312.061927 0.9880 0.9880 0.9880 0.9880 0.9880
3316.453029 0.9880 0.9880 0.9880 0.9880 0.9888
3320.844131 0.9898 0.9904 0.9909 0.9910 0.9910
3325.235233 0.9918 0.9928 0.9930 0.9930 0.9930
3329.626335 0.9930 0.9930 0.9930 0.9930 0.9930
3334.017436 0.9930 0.9930 0.9930 0.9930 0.9930
3338.408538 0.9930 0.9922 0.9912 0.9906 0.9901
3342.799640 0.9900 0.9900 0.9900 0.9900 0.9900
3347.190742 0.9900 0.9892 0.9882 0.9880 0.9880
3351.581844 0.9880 0.9880 0.9880 0.9880 0.9880
3355.972946 0.9880 0.9880 0.9880 0.9880 0.9880
3360.364047 0.9880 0.9880 0.9880 0.9880 0.9880
3364.755149 0.9880 0.9880 0.9880 0.9880 0.9880
3369.146251 0.9888 0.9898 0.9900 0.9900 0.9904
3373.537353 0.9909 0.9910 0.9910 0.9910 0.9910
3377.928455 0.9910 0.9910 0.9906 0.9901 0.9900
3382.319557 0.9900 0.9900 0.9900 0.9900 0.9900
3386.710658 0.9892 0.9882 0.9880 0.9880 0.9880
3391.101760 0.9880 0.9880 0.9880 0.9880 0.9880
3395.492862 0.9880 0.9880 0.9880 0.9880 0.9889
3399.883964 0.9899 0.9904 0.9909 0.9910 0.9910
3404.275066 0.9919 0.9929 0.9930 0.9930 0.9930
3408.666168 0.9930 0.9930 0.9930 0.9930 0.9930
3413.057270 0.9930 0.9930 0.9930 0.9930 0.9930
3417.448371 0.9930 0.9930 0.9930 0.9930 0.9930
3421.839473 0.9921 0.9911 0.9910 0.9910 0.9910
3426.230575 0.9910 0.9910 0.9910 0.9919 0.9929
3430.621677 0.9930 0.9930 0.9930 0.9930 0.9930
3435.012779 0.9930 0.9930 0.9930 0.9930 0.9930
3439.403881 0.9935 0.9940 0.9940 0.9940 0.9940
3443.794982 0.9940 0.9940 0.9940 0.9940 0.9940
3448.186084 0.9940 0.9940 0.9940 0.9940 0.9940
3452.577186 0.9940 0.9940 0.9940 0.9940 0.9940
3456.968288 0.9940 0.9940 0.9940 0.9940 0.9940
3461.359390 0.9940 0.9940 0.9940 0.9940 0.9940
3465.750492 0.9940 0.9940 0.9945 0.9950 0.9950
3470.141593 0.9950 0.9950 0.9950 0.9950 0.9950
3474.532695 0.9960 0.9970 0.9970 0.9970 0.9970
3478.923797 0.9970 0.9970 0.9970 0.9970 0.9970
3483.314899 0.9975 0.9980 0.9980 0.9980 0.9980
3487.706001 0.9980 0.9980 0.9980 0.9980 0.9980
3492.097103 0.9980 0.9980 0.9980 0.9980 0.9980
3496.488204 0.9980 0.9980 0.9980 0.9980 0.9980
3500.879306 0.9980 0.9980 0.9980 0.9980 0.9980
3505.270408 0.9980 0.9980 0.9980 0.9980 0.9980
3509.661510 0.9980 0.9980 0.9980 0.9980 0.9990
3514.052612 1.0000 1.0000 1.0000 1.0000 1.0000
3518.443714 0.9990 0.9980 0.9980 0.9980 0.9980
3522.834816 0.9980 0.9990 1.0000 1.0000 1.0000
3527.225917 1.0000 1.0000 1.0000 1.0000 1.0000
3531.617019 1.0000 1.0000 1.0000 1.0000 1.0000
3536.008121 1.0000 1.0000 1.0005 1.0010 1.0010
3540.399223 1.0010 1.0005 1.0000 1.0000 1.0000
3544.790325 1.0000 1.0000 1.0000 1.0000 1.0005
3549.181427 1.0010 1.0010 1.0010 1.0010 1.0010
3553.572528 1.0010 1.0010 1.0010 1.0010 1.0010
3557.963630 1.0010 1.0010 1.0010 1.0005 0.9999
3562.354732 0.9989 0.9980 0.9980 0.9980 0.9980
3566.745834 0.9980 0.9980 0.9980 0.9980 0.9981
3571.136936 0.9991 1.0000 1.0000 1.0000 1.0000
3575.528038 1.0000 1.0000 1.0000 1.0000 1.0000
3579.919139 1.0006 1.0010 1.0010 1.0010 1.0010
3584.310241 1.0010 1.0010 1.0010 1.0010 1.0010
3588.701343 1.0010 1.0010 1.0010 1.0010 1.0010
3593.092445 1.0010 1.0010 1.0010 1.0010 1.0010
3597.483547 1.0010 1.0009 1.0004 1.0000 1.0000
3601.874649 1.0000 1.0000 1.0000 1.0000 1.0000
3606.265750 1.0000 1.0000 1.0000 0.9999 0.9989
3610.656852 0.9980 0.9980 0.9980 0.9980 0.9980
3615.047954 0.9980 0.9980 0.9980 0.9980 0.9980
3619.439056 0.9980 0.9980 0.9980 0.9980 0.9980
3623.830158 0.9980 0.9980 0.9980 0.9980 0.9980
3628.221260 0.9982 0.9992 0.9998 0.9988 0.9980
3632.612361 0.9980 0.9980 0.9980 0.9980 0.9980
3637.003463 0.9979 0.9974 0.9970 0.9970 0.9970
3641.394565 0.9970 0.9970 0.9970 0.9970 0.9970
3645.785667 0.9971 0.9976 0.9982 0.9992 0.9998
3650.176769 0.9988 0.9980 0.9980 0.9980 0.9980
3654.567871 0.9980 0.9980 0.9980 0.9980 0.9980
3658.958973 0.9980 0.9982 0.9992 1.0000 1.0000
3663.350074 1.0000 1.0000 1.0000 1.0000 1.0001
3667.741176 1.0006 1.0010 1.0010 1.0009 1.0004
3672.132278 1.0000 1.0000 1.0000 1.0000 1.0000
3676.523380 1.0000 1.0000 1.0000 1.0000 1.0000
3680.914482 1.0000 1.0000 0.9998 0.9988 0.9980
3685.305584 0.9980 0.9980 0.9980 0.9980 0.9980
3689.696685 0.9980 0.9980 0.9980 0.9980 0.9980
3694.087787 0.9980 0.9980 0.9980 0.9980 0.9980
3698.478889 0.9980 0.9980 0.9980 0.9980 0.9980
3702.869991 0.9980 0.9980 0.9980 0.9980 0.9980
3707.261093 0.9980 0.9980 0.9980 0.9980 0.9980
3711.652195 0.9980 0.9983 0.9993 1.0000 1.0000
3716.043296 1.0000 1.0000 1.0000 1.0000 1.0000
3720.434398 1.0000 1.0000 1.0000 1.0000 1.0000
3724.825500 1.0000 1.0000 1.0000 1.0000 1.0000
3729.216602 1.0000 1.0000 1.0000 1.0000 1.0000
3733.607704 1.0000 1.0000 1.0000 1.0000 1.0002
3737.998806 1.0007 1.0010 1.0010 1.0012 1.0017
3742.389907 1.0018 1.0013 1.0010 1.0010 1.0010
3746.781009 1.0010 1.0010 1.0010 1.0010 1.0010
3751.172111 1.0008 1.0003 1.0000 1.0000 1.0000
3755.563213 1.0000 0.9997 0.9987 0.9980 0.9980
3759.954315 0.9980 0.9980 0.9980 0.9980 0.9980
3764.345417 0.9980 0.9980 0.9980 0.9978 0.9973
3768.736519 0.9970 0.9970 0.9970 0.9970 0.9970
3773.127620 0.9970 0.9966 0.9956 0.9950 0.9950
3777.518722 0.9950 0.9950 0.9950 0.9950 0.9954
3781.909824 0.9964 0.9970 0.9970 0.9970 0.9970
3786.300926 0.9972 0.9977 0.9980 0.9980 0.9980
3790.692028 0.9980 0.9980 0.9980 0.9984 0.9994
3795.083130 1.0000 1.0000 1.0000 1.0000
##END=
