##TITLE=3-PYRROLINE
##JCAMP-DX=4.24
##DATA TYPE=INFRARED SPECTRUM
##CLASS=COBLENTZ III
##ORIGIN=WESTERN REGIONAL RES. USDA
##OWNER=COBLENTZ SOCIETY
Collection (C) 2018 copyright by the U.S. Secretary of Commerce
on behalf of the United States of America. All rights reserved.
##DATE=1967/07/28
##NAMES=2,5-dihydro-1H-pyrrole
##CAS REGISTRY NO=109-96-6
##MOLFORM=C4 H7 N
##SOURCE REFERENCE=COBLENTZ NO. 10430
##$NIST SOURCE=COBLENTZ
##$NIST IMAGE=cob10430
##SPECTROMETER/DATA SYSTEM=CARY 90 (GRATING)
##INSTRUMENT PARAMETERS=GRATING CHANGES AT 3000, 2000, 1200 CM^-^1
##STATE=LIQUID (NEAT)
##PATH LENGTH=CAPILLARY
##SAMPLING PROCEDURE=TRANSMISSION
##RESOLUTION=4
##DATA PROCESSING=DIGITIZED BY NIST FROM HARD COPY (FROM TWO SEGMENTS)
##XUNITS=1/CM
##YUNITS=TRANSMITTANCE
##XFACTOR=1.000000
##YFACTOR=1
##DELTAX=0.905662
##FIRSTX=454.943
##LASTX=3981.59
##FIRSTY=0.832
##MAXX=3981.59
##MINX=454.943
##MAXY=0.943
##MINY=0.062
##NPOINTS=3895
##XYDATA=(X++(Y..Y))
454.943000 0.8320 0.8330 0.8340 0.8340 0.8350
459.471312 0.8360 0.8360 0.8390 0.8400 0.8410
463.999625 0.8420 0.8440 0.8450 0.8470 0.8480
468.527937 0.8480 0.8480 0.8470 0.8450 0.8450
473.056249 0.8440 0.8430 0.8410 0.8400 0.8390
477.584561 0.8380 0.8360 0.8350 0.8340 0.8330
482.112874 0.8320 0.8320 0.8310 0.8310 0.8300
486.641186 0.8300 0.8300 0.8300 0.8300 0.8310
491.169498 0.8310 0.8310 0.8310 0.8310 0.8310
495.697811 0.8320 0.8320 0.8330 0.8330 0.8340
500.226123 0.8340 0.8360 0.8360 0.8380 0.8380
504.754435 0.8380 0.8380 0.8380 0.8380 0.8380
509.282747 0.8360 0.8360 0.8350 0.8340 0.8340
513.811060 0.8330 0.8320 0.8310 0.8300 0.8280
518.339372 0.8270 0.8260 0.8260 0.8250 0.8240
522.867684 0.8230 0.8220 0.8210 0.8190 0.8180
527.395996 0.8170 0.8160 0.8150 0.8130 0.8120
531.924309 0.8100 0.8090 0.8080 0.8070 0.8060
536.452621 0.8050 0.8040 0.8020 0.8010 0.8000
540.980933 0.7990 0.7980 0.7970 0.7960 0.7960
545.509246 0.7950 0.7930 0.7920 0.7910 0.7900
550.037558 0.7890 0.7880 0.7870 0.7850 0.7840
554.565870 0.7830 0.7820 0.7810 0.7800 0.7780
559.094182 0.7760 0.7750 0.7740 0.7730 0.7720
563.622495 0.7710 0.7700 0.7670 0.7640 0.7620
568.150807 0.7590 0.7570 0.7570 0.7560 0.7560
572.679119 0.7540 0.7500 0.7500 0.7490 0.7490
577.207432 0.7480 0.7470 0.7460 0.7450 0.7440
581.735744 0.7380 0.7360 0.7340 0.7340 0.7330
586.264056 0.7310 0.7230 0.7200 0.7180 0.7160
590.792368 0.7160 0.7120 0.7100 0.7070 0.7050
595.320681 0.7050 0.7040 0.7040 0.7030 0.6990
599.848993 0.6980 0.6970 0.6960 0.6960 0.6940
604.377305 0.6930 0.6890 0.6880 0.6860 0.6840
608.905617 0.6810 0.6800 0.6800 0.6790 0.6730
613.433930 0.6670 0.6650 0.6630 0.6630 0.6610
617.962242 0.6560 0.6540 0.6540 0.6530 0.6530
622.490554 0.6520 0.6510 0.6510 0.6450 0.6400
627.018867 0.6380 0.6370 0.6360 0.6360 0.6340
631.547179 0.6250 0.6220 0.6210 0.6190 0.6120
636.075491 0.6100 0.6050 0.6030 0.6020 0.6010
640.603803 0.5990 0.5860 0.5800 0.5760 0.5740
645.132116 0.5650 0.5580 0.5530 0.5500 0.5410
649.660428 0.5350 0.5300 0.5180 0.5100 0.5060
654.188740 0.4920 0.4730 0.4690 0.4620 0.4510
658.717053 0.4360 0.4230 0.4091 0.4040 0.3980
663.245365 0.3920 0.3900 0.3900 0.3890 0.3890
667.773677 0.3890 0.3900 0.3900 0.3910 0.3920
672.301989 0.3980 0.4000 0.4130 0.4230 0.4300
676.830302 0.4410 0.4500 0.4580 0.4749 0.4879
681.358614 0.4970 0.5130 0.5180 0.5220 0.5280
685.886926 0.5340 0.5450 0.5590 0.5630 0.5730
690.415238 0.5790 0.5860 0.5950 0.6010 0.6020
694.943551 0.6070 0.6130 0.6190 0.6210 0.6250
699.471863 0.6300 0.6330 0.6340 0.6360 0.6390
704.000175 0.6420 0.6430 0.6430 0.6440 0.6440
708.528488 0.6450 0.6450 0.6450 0.6450 0.6450
713.056800 0.6460 0.6460 0.6470 0.6470 0.6470
717.585112 0.6480 0.6500 0.6500 0.6520 0.6530
722.113424 0.6540 0.6570 0.6600 0.6600 0.6610
726.641737 0.6620 0.6700 0.6730 0.6800 0.6840
731.170049 0.6890 0.6940 0.6980 0.6990 0.7010
735.698361 0.7100 0.7130 0.7150 0.7150 0.7180
740.226674 0.7200 0.7210 0.7230 0.7240 0.7240
744.754986 0.7270 0.7290 0.7290 0.7290 0.7300
749.283298 0.7300 0.7300 0.7300 0.7300 0.7300
753.811610 0.7290 0.7290 0.7280 0.7280 0.7280
758.339923 0.7280 0.7280 0.7280 0.7270 0.7270
762.868235 0.7250 0.7240 0.7220 0.7210 0.7210
767.396547 0.7190 0.7160 0.7150 0.7140 0.7130
771.924859 0.7110 0.7070 0.7110 0.7070 0.7040
776.453172 0.7020 0.6990 0.6980 0.6970 0.6960
780.981484 0.6950 0.6910 0.6870 0.6840 0.6820
785.509796 0.6770 0.6760 0.6730 0.6700 0.6670
790.038109 0.6630 0.6600 0.6570 0.6570 0.6570
794.566421 0.6560 0.6560 0.6550 0.6550 0.6550
799.094733 0.6540 0.6530 0.6510 0.6470 0.6440
803.623045 0.6420 0.6400 0.6380 0.6370 0.6360
808.151358 0.6350 0.6340 0.6330 0.6300 0.6270
812.679670 0.6250 0.6240 0.6210 0.6190 0.6170
817.207982 0.6160 0.6160 0.6140 0.6130 0.6120
821.736295 0.6110 0.6100 0.6090 0.6080 0.6070
826.264607 0.6070 0.6070 0.6050 0.6050 0.6040
830.792919 0.6040 0.6040 0.6040 0.6030 0.6030
835.321231 0.6030 0.6030 0.6020 0.6020 0.6020
839.849544 0.6010 0.6010 0.6010 0.6000 0.6000
844.377856 0.6000 0.6000 0.6000 0.6000 0.6010
848.906168 0.6010 0.6010 0.6010 0.6020 0.6020
853.434480 0.6020 0.6020 0.6020 0.6030 0.6030
857.962793 0.6040 0.6040 0.6050 0.6050 0.6070
862.491105 0.6080 0.6080 0.6090 0.6100 0.6110
867.019417 0.6120 0.6130 0.6140 0.6180 0.6190
871.547730 0.6200 0.6210 0.6240 0.6270 0.6280
876.076042 0.6310 0.6350 0.6400 0.6460 0.6500
880.604354 0.6520 0.6540 0.6590 0.6620 0.6650
885.132666 0.6720 0.6790 0.6850 0.6900 0.6950
889.660979 0.7010 0.7060 0.7130 0.7210 0.7280
894.189291 0.7330 0.7400 0.7440 0.7460 0.7500
898.717603 0.7510 0.7510 0.7540 0.7550 0.7530
903.245916 0.7500 0.7420 0.7330 0.7250 0.7140
907.774228 0.6980 0.6910 0.6900 0.6910 0.7030
912.302540 0.7150 0.7290 0.7420 0.7579 0.7699
916.830852 0.7750 0.7840 0.7980 0.8020 0.8050
921.359165 0.8070 0.8120 0.8140 0.8150 0.8150
925.887477 0.8170 0.8170 0.8180 0.8210 0.8220
930.415789 0.8230 0.8240 0.8240 0.8240 0.8230
934.944102 0.8230 0.8230 0.8220 0.8220 0.8210
939.472414 0.8190 0.8190 0.8190 0.8190 0.8210
944.000726 0.8210 0.8210 0.8210 0.8210 0.8220
948.529038 0.8220 0.8220 0.8190 0.8180 0.8180
953.057351 0.8160 0.8150 0.8140 0.8130 0.8100
957.585663 0.8060 0.7990 0.7950 0.7880 0.7731
962.113975 0.7710 0.7660 0.7540 0.7510 0.7500
966.642287 0.7500 0.7500 0.7500 0.7500 0.7510
971.170600 0.7550 0.7590 0.7650 0.7720 0.7760
975.698912 0.7800 0.7840 0.7920 0.7970 0.8000
980.227224 0.8010 0.8060 0.8120 0.8160 0.8190
984.755537 0.8220 0.8230 0.8250 0.8310 0.8340
989.283849 0.8350 0.8360 0.8360 0.8360 0.8380
993.812161 0.8380 0.8380 0.8380 0.8360 0.8360
998.340473 0.8350 0.8330 0.8330 0.8320 0.8280
1002.868786 0.8260 0.8260 0.8260 0.8260 0.8250
1007.397098 0.8250 0.8250 0.8240 0.8240 0.8230
1011.925410 0.8150 0.8070 0.8050 0.8020 0.7920
1016.453723 0.7840 0.7780 0.7730 0.7650 0.7580
1020.982035 0.7530 0.7410 0.7270 0.7140 0.7030
1025.510347 0.6900 0.6730 0.6540 0.6470 0.6360
1030.038659 0.6250 0.6100 0.6000 0.5970 0.5940
1034.566972 0.5910 0.5880 0.5860 0.5850 0.5840
1039.095284 0.5830 0.5820 0.5830 0.5850 0.5870
1043.623596 0.5930 0.6000 0.6020 0.6040 0.6080
1048.151908 0.6110 0.6170 0.6200 0.6210 0.6270
1052.680221 0.6340 0.6370 0.6390 0.6430 0.6470
1057.208533 0.6510 0.6530 0.6540 0.6570 0.6590
1061.736845 0.6590 0.6570 0.6520 0.6500 0.6420
1066.265158 0.6350 0.6280 0.6140 0.6040 0.5970
1070.793470 0.5870 0.5670 0.5510 0.5400 0.5250
1075.321782 0.5060 0.4970 0.4751 0.4680 0.4580
1079.850094 0.4510 0.4460 0.4450 0.4450 0.4450
1084.378407 0.4460 0.4490 0.4540 0.4600 0.4630
1088.906719 0.4680 0.4820 0.4920 0.5060 0.5200
1093.435031 0.5330 0.5510 0.5630 0.5819 0.5930
1097.963344 0.6030 0.6180 0.6270 0.6560 0.6780
1102.491656 0.6950 0.7060 0.7180 0.7290 0.7370
1107.019968 0.7530 0.7720 0.7810 0.7840 0.7880
1111.548280 0.8000 0.8040 0.8080 0.8150 0.8230
1116.076593 0.8340 0.8390 0.8430 0.8490 0.8500
1120.604905 0.8530 0.8560 0.8590 0.8600 0.8610
1125.133217 0.8650 0.8680 0.8720 0.8740 0.8760
1129.661529 0.8780 0.8790 0.8790 0.8820 0.8830
1134.189842 0.8870 0.8890 0.8910 0.8940 0.8940
1138.718154 0.8950 0.8960 0.8960 0.8960 0.8960
1143.246466 0.8960 0.8960 0.8960 0.8960 0.8960
1147.774779 0.8960 0.8960 0.8960 0.8980 0.8990
1152.303091 0.8990 0.9000 0.9000 0.9000 0.9000
1156.831403 0.8990 0.8990 0.8980 0.8980 0.8960
1161.359715 0.8950 0.8950 0.8940 0.8940 0.8930
1165.888028 0.8910 0.8900 0.8890 0.8870 0.8860
1170.416340 0.8850 0.8830 0.8790 0.8780 0.8740
1174.944652 0.8660 0.8550 0.8450 0.8320 0.8300
1179.472965 0.8260 0.8240 0.8210 0.8180 0.8170
1184.001277 0.8180 0.8220 0.8230 0.8300 0.8380
1188.529589 0.8410 0.8560 0.8620 0.8640 0.8740
1193.057901 0.8750 0.8760 0.8770 0.8770 0.8780
1197.586214 0.8790 0.8790 0.8810 0.8810 0.8810
1202.114526 0.8810 0.8810 0.8810 0.8810 0.8790
1206.642838 0.8790 0.8790 0.8780 0.8780 0.8780
1211.171150 0.8780 0.8780 0.8780 0.8770 0.8770
1215.699463 0.8760 0.8760 0.8750 0.8750 0.8740
1220.227775 0.8740 0.8730 0.8730 0.8720 0.8700
1224.756087 0.8700 0.8700 0.8690 0.8690 0.8690
1229.284400 0.8680 0.8680 0.8670 0.8670 0.8670
1233.812712 0.8670 0.8660 0.8660 0.8660 0.8650
1238.341024 0.8650 0.8640 0.8620 0.8620 0.8620
1242.869336 0.8610 0.8610 0.8610 0.8610 0.8600
1247.397649 0.8600 0.8600 0.8600 0.8590 0.8590
1251.925961 0.8590 0.8590 0.8570 0.8570 0.8570
1256.454273 0.8570 0.8560 0.8560 0.8560 0.8560
1260.982586 0.8560 0.8550 0.8550 0.8550 0.8530
1265.510898 0.8530 0.8530 0.8520 0.8520 0.8520
1270.039210 0.8510 0.8510 0.8510 0.8500 0.8500
1274.567522 0.8500 0.8500 0.8490 0.8490 0.8490
1279.095835 0.8480 0.8480 0.8480 0.8480 0.8470
1283.624147 0.8470 0.8470 0.8450 0.8450 0.8450
1288.152459 0.8450 0.8450 0.8450 0.8450 0.8450
1292.680771 0.8450 0.8470 0.8470 0.8470 0.8470
1297.209084 0.8480 0.8480 0.8490 0.8490 0.8490
1301.737396 0.8500 0.8500 0.8500 0.8490 0.8490
1306.265708 0.8480 0.8480 0.8470 0.8470 0.8450
1310.794021 0.8450 0.8440 0.8430 0.8420 0.8410
1315.322333 0.8400 0.8390 0.8360 0.8340 0.8310
1319.850645 0.8270 0.8240 0.8190 0.8140 0.8080
1324.378957 0.8000 0.7900 0.7810 0.7710 0.7570
1328.907270 0.7470 0.7340 0.7330 0.7340 0.7420
1333.435582 0.7510 0.7550 0.7630 0.7670 0.7710
1337.963894 0.7740 0.7790 0.7810 0.7820 0.7840
1342.492207 0.7840 0.7870 0.7880 0.7890 0.7890
1347.020519 0.7900 0.7900 0.7910 0.7930 0.7950
1351.548831 0.7960 0.7970 0.7970 0.7980 0.7980
1356.077143 0.7990 0.8000 0.8000 0.7990 0.7980
1360.605456 0.7970 0.7960 0.7920 0.7910 0.7900
1365.133768 0.7890 0.7890 0.7880 0.7880 0.7850
1369.662080 0.7820 0.7800 0.7780 0.7760 0.7740
1374.190392 0.7730 0.7720 0.7700 0.7620 0.7550
1378.718705 0.7530 0.7510 0.7500 0.7490 0.7440
1383.247017 0.7410 0.7330 0.7270 0.7220 0.7200
1387.775329 0.7180 0.7150 0.7140 0.7110 0.7050
1392.303642 0.7010 0.6960 0.6900 0.6850 0.6800
1396.831954 0.6730 0.6680 0.6600 0.6530 0.6450
1401.360266 0.6350 0.6220 0.6160 0.6090 0.6020
1405.888578 0.5960 0.5900 0.5850 0.5800 0.5760
1410.416891 0.5740 0.5710 0.5700 0.5700 0.5690
1414.945203 0.5690 0.5700 0.5710 0.5740 0.5760
1419.473515 0.5780 0.5800 0.5840 0.5870 0.5900
1424.001828 0.5940 0.5970 0.6020 0.6050 0.6100
1428.530140 0.6120 0.6170 0.6200 0.6240 0.6290
1433.058452 0.6330 0.6370 0.6430 0.6440 0.6460
1437.586764 0.6510 0.6540 0.6570 0.6630 0.6680
1442.115077 0.6700 0.6710 0.6740 0.6790 0.6820
1446.643389 0.6840 0.6860 0.6890 0.6910 0.6940
1451.171701 0.6990 0.7050 0.7060 0.7100 0.7110
1455.700014 0.7130 0.7150 0.7160 0.7160 0.7180
1460.228326 0.7180 0.7190 0.7190 0.7180 0.7150
1464.756638 0.7130 0.7110 0.7050 0.7040 0.7030
1469.284950 0.6940 0.6870 0.6820 0.6730 0.6670
1473.813263 0.6650 0.6670 0.6710 0.6760 0.6850
1478.341575 0.6990 0.7070 0.7180 0.7290 0.7390
1482.869887 0.7500 0.7570 0.7640 0.7710 0.7750
1487.398199 0.7830 0.7880 0.7910 0.7960 0.8010
1491.926512 0.8040 0.8060 0.8090 0.8120 0.8130
1496.454824 0.8140 0.8170 0.8190 0.8220 0.8240
1500.983136 0.8250 0.8260 0.8260 0.8260 0.8260
1505.511449 0.8260 0.8260 0.8270 0.8270 0.8270
1510.039761 0.8280 0.8300 0.8310 0.8300 0.8300
1514.568073 0.8300 0.8300 0.8280 0.8280 0.8270
1519.096385 0.8270 0.8260 0.8260 0.8250 0.8240
1523.624698 0.8240 0.8240 0.8230 0.8210 0.8180
1528.153010 0.8170 0.8160 0.8150 0.8140 0.8120
1532.681322 0.8120 0.8100 0.8090 0.8060 0.8050
1537.209635 0.8020 0.8020 0.7990 0.7970 0.7960
1541.737947 0.7950 0.7930 0.7910 0.7890 0.7870
1546.266259 0.7830 0.7790 0.7760 0.7740 0.7740
1550.794571 0.7730 0.7730 0.7730 0.7740 0.7740
1555.322884 0.7750 0.7800 0.7820 0.7840 0.7870
1559.851196 0.7880 0.7910 0.7950 0.7960 0.7970
1564.379508 0.7980 0.7990 0.8000 0.8010 0.8020
1568.907820 0.8050 0.8050 0.8050 0.8060 0.8060
1573.436133 0.8070 0.8070 0.8080 0.8080 0.8080
1577.964445 0.8100 0.8100 0.8090 0.8090 0.8070
1582.492757 0.8070 0.8060 0.8050 0.8050 0.8040
1587.021070 0.8040 0.8020 0.8020 0.7980 0.7970
1591.549382 0.7970 0.7970 0.7980 0.7990 0.7990
1596.077694 0.7990 0.7990 0.7980 0.7970 0.7960
1600.606006 0.7950 0.7950 0.7930 0.7930 0.7930
1605.134319 0.7920 0.7920 0.7910 0.7900 0.7890
1609.662631 0.7890 0.7850 0.7830 0.7800 0.7780
1614.190943 0.7760 0.7710 0.7660 0.7630 0.7620
1618.719256 0.7620 0.7630 0.7650 0.7670 0.7700
1623.247568 0.7730 0.7760 0.7780 0.7760 0.7740
1627.775880 0.7730 0.7720 0.7710 0.7710 0.7710
1632.304192 0.7710 0.7700 0.7660 0.7640 0.7610
1636.832505 0.7580 0.7570 0.7570 0.7570 0.7560
1641.360817 0.7550 0.7530 0.7500 0.7480 0.7460
1645.889129 0.7440 0.7420 0.7410 0.7410 0.7410
1650.417441 0.7400 0.7390 0.7390 0.7380 0.7380
1654.945754 0.7390 0.7400 0.7410 0.7410 0.7410
1659.474066 0.7420 0.7440 0.7460 0.7470 0.7470
1664.002378 0.7480 0.7480 0.7480 0.7480 0.7470
1668.530691 0.7470 0.7470 0.7470 0.7470 0.7480
1673.059003 0.7490 0.7540 0.7570 0.7580 0.7580
1677.587315 0.7590 0.7610 0.7610 0.7620 0.7620
1682.115627 0.7630 0.7650 0.7670 0.7700 0.7730
1686.643940 0.7750 0.7760 0.7790 0.7800 0.7840
1691.172252 0.7870 0.7880 0.7890 0.7910 0.7920
1695.700564 0.7930 0.7950 0.7960 0.7980 0.8020
1700.228877 0.8060 0.8080 0.8130 0.8150 0.8160
1704.757189 0.8170 0.8190 0.8220 0.8240 0.8250
1709.285501 0.8270 0.8300 0.8330 0.8340 0.8360
1713.813813 0.8380 0.8410 0.8420 0.8430 0.8450
1718.342126 0.8470 0.8480 0.8500 0.8510 0.8530
1722.870438 0.8530 0.8550 0.8550 0.8570 0.8590
1727.398750 0.8610 0.8620 0.8650 0.8670 0.8690
1731.927062 0.8720 0.8720 0.8730 0.8730 0.8740
1736.455375 0.8750 0.8750 0.8770 0.8770 0.8780
1740.983687 0.8790 0.8790 0.8790 0.8810 0.8810
1745.511999 0.8810 0.8820 0.8820 0.8830 0.8830
1750.040312 0.8840 0.8850 0.8860 0.8870 0.8890
1754.568624 0.8900 0.8910 0.8920 0.8920 0.8930
1759.096936 0.8930 0.8940 0.8940 0.8950 0.8950
1763.625248 0.8950 0.8950 0.8950 0.8950 0.8950
1768.153561 0.8950 0.8950 0.8950 0.8950 0.8950
1772.681873 0.8950 0.8950 0.8940 0.8940 0.8940
1777.210185 0.8940 0.8940 0.8950 0.8950 0.8950
1781.738498 0.8950 0.8950 0.8950 0.8950 0.8950
1786.266810 0.8950 0.8950 0.8950 0.8950 0.8950
1790.795122 0.8950 0.8950 0.8950 0.8950 0.8950
1795.323434 0.8950 0.8940 0.8940 0.8940 0.8940
1799.851747 0.8950 0.8960 0.8990 0.9010 0.9010
1804.380059 0.9020 0.9020 0.9020 0.9020 0.9010
1808.908371 0.9000 0.9000 0.8990 0.8990 0.8990
1813.436683 0.8990 0.9000 0.9000 0.9000 0.9010
1817.964996 0.9010 0.9010 0.9020 0.9020 0.9020
1822.493308 0.9030 0.9030 0.9040 0.9040 0.9030
1827.021620 0.9030 0.9030 0.9030 0.9020 0.9020
1831.549933 0.9010 0.9000 0.9000 0.8990 0.8990
1836.078245 0.8980 0.8980 0.8980 0.8980 0.8980
1840.606557 0.8990 0.8990 0.8990 0.8990 0.9000
1845.134869 0.9000 0.9000 0.9000 0.9010 0.9010
1849.663182 0.9010 0.9010 0.9020 0.9020 0.9020
1854.191494 0.9020 0.9030 0.9030 0.9030 0.9040
1858.719806 0.9040 0.9040 0.9060 0.9060 0.9060
1863.248119 0.9070 0.9070 0.9070 0.9070 0.9070
1867.776431 0.9070 0.9070 0.9070 0.9060 0.9060
1872.304743 0.9060 0.9040 0.9040 0.9030 0.9030
1876.833055 0.9030 0.9030 0.9030 0.9030 0.9030
1881.361368 0.9040 0.9040 0.9040 0.9040 0.9040
1885.889680 0.9040 0.9040 0.9040 0.9060 0.9060
1890.417992 0.9060 0.9060 0.9060 0.9060 0.9060
1894.946305 0.9060 0.9060 0.9060 0.9040 0.9040
1899.474617 0.9040 0.9040 0.9040 0.9030 0.9030
1904.002929 0.9020 0.9020 0.9010 0.9010 0.9000
1908.531241 0.9000 0.9000 0.9000 0.9010 0.9010
1913.059554 0.9020 0.9020 0.9030 0.9030 0.9040
1917.587866 0.9060 0.9060 0.9070 0.9080 0.9080
1922.116178 0.9090 0.9100 0.9100 0.9110 0.9110
1926.644490 0.9110 0.9110 0.9100 0.9100 0.9100
1931.172803 0.9090 0.9090 0.9080 0.9080 0.9060
1935.701115 0.9060 0.9040 0.9040 0.9040 0.9040
1940.229427 0.9030 0.9020 0.9010 0.9010 0.9010
1944.757740 0.9000 0.9000 0.9000 0.8990 0.8990
1949.286052 0.8990 0.8980 0.8980 0.8980 0.8960
1953.814364 0.8960 0.8950 0.8950 0.8940 0.8940
1958.342676 0.8940 0.8930 0.8930 0.8930 0.8930
1962.870989 0.8920 0.8920 0.8920 0.8920 0.8920
1967.399301 0.8920 0.8920 0.8920 0.8920 0.8920
1971.927613 0.8920 0.8920 0.8920 0.8920 0.8930
1976.455926 0.8930 0.8930 0.8930 0.8930 0.8930
1980.984238 0.8930 0.8930 0.8930 0.8930 0.8930
1985.512550 0.8930 0.8930 0.8930 0.8930 0.8930
1990.040862 0.8930 0.8930 0.8930 0.8930 0.8930
1994.569175 0.8930 0.8930 0.8930 0.8930 0.8930
1999.097487 0.8930 0.8930 0.8930 0.8930 0.8930
2003.625799 0.8930 0.8930 0.8930 0.8925 0.8920
2008.154111 0.8920 0.8920 0.8920 0.8920 0.8920
2012.682424 0.8920 0.8920 0.8920 0.8915 0.8910
2017.210736 0.8910 0.8910 0.8910 0.8910 0.8910
2021.739048 0.8910 0.8910 0.8910 0.8906 0.8901
2026.267361 0.8900 0.8900 0.8900 0.8900 0.8900
2030.795673 0.8900 0.8900 0.8900 0.8896 0.8891
2035.323985 0.8890 0.8890 0.8890 0.8890 0.8890
2039.852297 0.8890 0.8882 0.8872 0.8870 0.8870
2044.380610 0.8870 0.8870 0.8870 0.8870 0.8870
2048.908922 0.8870 0.8866 0.8861 0.8860 0.8860
2053.437234 0.8860 0.8860 0.8860 0.8860 0.8860
2057.965547 0.8860 0.8856 0.8851 0.8850 0.8850
2062.493859 0.8850 0.8850 0.8850 0.8850 0.8850
2067.022171 0.8850 0.8846 0.8841 0.8840 0.8840
2071.550483 0.8840 0.8840 0.8840 0.8840 0.8840
2076.078796 0.8840 0.8840 0.8840 0.8840 0.8840
2080.607108 0.8840 0.8840 0.8840 0.8840 0.8840
2085.135420 0.8840 0.8837 0.8832 0.8830 0.8830
2089.663732 0.8827 0.8822 0.8820 0.8820 0.8820
2094.192045 0.8820 0.8820 0.8820 0.8820 0.8820
2098.720357 0.8817 0.8812 0.8810 0.8810 0.8810
2103.248669 0.8810 0.8810 0.8810 0.8805 0.8795
2107.776982 0.8790 0.8790 0.8790 0.8790 0.8790
2112.305294 0.8790 0.8787 0.8782 0.8780 0.8780
2116.833606 0.8780 0.8780 0.8780 0.8780 0.8778
2121.361918 0.8773 0.8770 0.8770 0.8770 0.8770
2125.890231 0.8770 0.8770 0.8770 0.8770 0.8770
2130.418543 0.8770 0.8770 0.8770 0.8770 0.8770
2134.946855 0.8770 0.8770 0.8770 0.8770 0.8770
2139.475168 0.8770 0.8770 0.8770 0.8770 0.8770
2144.003480 0.8770 0.8770 0.8770 0.8770 0.8770
2148.531792 0.8770 0.8772 0.8777 0.8780 0.8780
2153.060104 0.8780 0.8780 0.8780 0.8780 0.8780
2157.588417 0.8780 0.8780 0.8780 0.8778 0.8773
2162.116729 0.8770 0.8770 0.8768 0.8763 0.8760
2166.645041 0.8760 0.8758 0.8754 0.8750 0.8750
2171.173353 0.8750 0.8750 0.8750 0.8750 0.8749
2175.701666 0.8744 0.8740 0.8740 0.8740 0.8740
2180.229978 0.8740 0.8740 0.8740 0.8740 0.8740
2184.758290 0.8740 0.8739 0.8734 0.8730 0.8730
2189.286603 0.8730 0.8730 0.8730 0.8730 0.8730
2193.814915 0.8730 0.8730 0.8730 0.8729 0.8724
2198.343227 0.8720 0.8720 0.8720 0.8720 0.8718
2202.871539 0.8708 0.8700 0.8700 0.8700 0.8700
2207.399852 0.8699 0.8694 0.8690 0.8690 0.8689
2211.928164 0.8684 0.8680 0.8680 0.8680 0.8680
2216.456476 0.8680 0.8680 0.8680 0.8680 0.8680
2220.984789 0.8675 0.8670 0.8670 0.8670 0.8670
2225.513101 0.8670 0.8665 0.8660 0.8660 0.8660
2230.041413 0.8660 0.8660 0.8660 0.8660 0.8660
2234.569725 0.8660 0.8660 0.8660 0.8665 0.8670
2239.098038 0.8670 0.8670 0.8670 0.8670 0.8675
2243.626350 0.8680 0.8685 0.8690 0.8690 0.8690
2248.154662 0.8695 0.8700 0.8700 0.8700 0.8709
2252.682974 0.8719 0.8720 0.8720 0.8725 0.8730
2257.211287 0.8730 0.8730 0.8735 0.8740 0.8740
2261.739599 0.8740 0.8740 0.8740 0.8744 0.8749
2266.267911 0.8750 0.8750 0.8750 0.8750 0.8754
2270.796224 0.8759 0.8760 0.8760 0.8760 0.8760
2275.324536 0.8760 0.8760 0.8760 0.8760 0.8760
2279.852848 0.8760 0.8760 0.8760 0.8760 0.8760
2284.381160 0.8760 0.8760 0.8764 0.8769 0.8770
2288.909473 0.8770 0.8774 0.8779 0.8780 0.8780
2293.437785 0.8780 0.8780 0.8784 0.8789 0.8790
2297.966097 0.8790 0.8790 0.8790 0.8790 0.8790
2302.494410 0.8790 0.8790 0.8797 0.8807 0.8810
2307.022722 0.8810 0.8814 0.8819 0.8820 0.8820
2311.551034 0.8824 0.8828 0.8830 0.8830 0.8833
2316.079346 0.8838 0.8840 0.8840 0.8843 0.8848
2320.607659 0.8853 0.8858 0.8863 0.8868 0.8870
2325.135971 0.8870 0.8876 0.8886 0.8890 0.8890
2329.664283 0.8893 0.8898 0.8900 0.8900 0.8903
2334.192596 0.8908 0.8910 0.8910 0.8913 0.8918
2338.720908 0.8920 0.8920 0.8923 0.8928 0.8930
2343.249220 0.8930 0.8930 0.8930 0.8933 0.8938
2347.777532 0.8940 0.8940 0.8940 0.8940 0.8940
2352.305845 0.8940 0.8943 0.8948 0.8950 0.8950
2356.834157 0.8950 0.8950 0.8950 0.8950 0.8948
2361.362469 0.8943 0.8940 0.8940 0.8940 0.8940
2365.890781 0.8940 0.8940 0.8938 0.8933 0.8930
2370.419094 0.8930 0.8930 0.8930 0.8928 0.8923
2374.947406 0.8920 0.8920 0.8918 0.8913 0.8910
2379.475718 0.8910 0.8910 0.8910 0.8910 0.8910
2384.004031 0.8910 0.8910 0.8910 0.8910 0.8910
2388.532343 0.8910 0.8910 0.8910 0.8912 0.8917
2393.060655 0.8920 0.8920 0.8920 0.8920 0.8920
2397.588967 0.8920 0.8922 0.8927 0.8930 0.8930
2402.117280 0.8930 0.8930 0.8930 0.8930 0.8930
2406.645592 0.8930 0.8930 0.8930 0.8930 0.8930
2411.173904 0.8930 0.8930 0.8931 0.8936 0.8940
2415.702217 0.8940 0.8940 0.8940 0.8940 0.8940
2420.230529 0.8941 0.8946 0.8950 0.8950 0.8950
2424.758841 0.8950 0.8950 0.8950 0.8950 0.8950
2429.287153 0.8950 0.8950 0.8950 0.8950 0.8950
2433.815466 0.8950 0.8950 0.8950 0.8950 0.8950
2438.343778 0.8950 0.8950 0.8950 0.8950 0.8950
2442.872090 0.8950 0.8949 0.8944 0.8940 0.8940
2447.400402 0.8940 0.8940 0.8940 0.8940 0.8940
2451.928715 0.8940 0.8939 0.8934 0.8930 0.8930
2456.457027 0.8930 0.8930 0.8930 0.8930 0.8930
2460.985339 0.8925 0.8920 0.8920 0.8920 0.8920
2465.513652 0.8920 0.8920 0.8920 0.8925 0.8930
2470.041964 0.8930 0.8930 0.8930 0.8930 0.8930
2474.570276 0.8930 0.8935 0.8940 0.8940 0.8940
2479.098588 0.8945 0.8950 0.8950 0.8950 0.8955
2483.626901 0.8960 0.8960 0.8960 0.8970 0.8980
2488.155213 0.8980 0.8980 0.8985 0.8990 0.8990
2492.683525 0.8990 0.8990 0.8990 0.8990 0.8990
2497.211838 0.8985 0.8980 0.8980 0.8980 0.8971
2501.740150 0.8961 0.8960 0.8960 0.8960 0.8960
2506.268462 0.8960 0.8960 0.8969 0.8979 0.8980
2510.796774 0.8980 0.8980 0.8980 0.8980 0.8980
2515.325087 0.8984 0.8989 0.8990 0.8990 0.8990
2519.853399 0.8990 0.8990 0.8990 0.8990 0.8990
2524.381711 0.8990 0.8990 0.8990 0.8990 0.8990
2528.910023 0.8990 0.8990 0.8990 0.8990 0.8990
2533.438336 0.8986 0.8981 0.8980 0.8980 0.8980
2537.966648 0.8980 0.8980 0.8980 0.8980 0.8980
2542.494960 0.8969 0.8954 0.8950 0.8950 0.8950
2547.023273 0.8950 0.8946 0.8941 0.8940 0.8940
2551.551585 0.8940 0.8940 0.8940 0.8940 0.8937
2556.079897 0.8932 0.8930 0.8930 0.8930 0.8930
2560.608209 0.8930 0.8930 0.8927 0.8922 0.8917
2565.136522 0.8912 0.8910 0.8910 0.8907 0.8902
2569.664834 0.8900 0.8900 0.8897 0.8892 0.8890
2574.193146 0.8890 0.8884 0.8874 0.8870 0.8870
2578.721459 0.8867 0.8862 0.8860 0.8860 0.8857
2583.249771 0.8852 0.8850 0.8850 0.8847 0.8842
2587.778083 0.8840 0.8840 0.8837 0.8832 0.8827
2592.306395 0.8822 0.8820 0.8820 0.8810 0.8790
2596.834708 0.8777 0.8773 0.8758 0.8732 0.8700
2601.363020 0.8660 0.8620 0.8580 0.8543 0.8508
2605.891332 0.8478 0.8453 0.8440 0.8440 0.8422
2610.419644 0.8382 0.8340 0.8295 0.8259 0.8234
2614.947957 0.8209 0.8184 0.8155 0.8120 0.8098
2619.476269 0.8093 0.8092 0.8097 0.8118 0.8163
2624.004581 0.8198 0.8218 0.8238 0.8258 0.8280
2628.532894 0.8304 0.8322 0.8327 0.8335 0.8350
2633.061206 0.8371 0.8400 0.8423 0.8434 0.8449
2637.589518 0.8474 0.8497 0.8517 0.8537 0.8557
2642.117830 0.8572 0.8577 0.8580 0.8580 0.8580
2646.646143 0.8580 0.8580 0.8580 0.8579 0.8574
2651.174455 0.8569 0.8564 0.8560 0.8560 0.8559
2655.702767 0.8554 0.8550 0.8550 0.8547 0.8537
2660.231080 0.8530 0.8530 0.8529 0.8524 0.8519
2664.759392 0.8514 0.8510 0.8510 0.8509 0.8504
2669.287704 0.8499 0.8494 0.8490 0.8490 0.8489
2673.816016 0.8484 0.8479 0.8474 0.8468 0.8458
2678.344329 0.8449 0.8444 0.8439 0.8434 0.8430
2682.872641 0.8430 0.8429 0.8424 0.8419 0.8414
2687.400953 0.8409 0.8404 0.8400 0.8400 0.8399
2691.929265 0.8394 0.8389 0.8384 0.8379 0.8369
2696.457578 0.8360 0.8360 0.8360 0.8355 0.8350
2700.985890 0.8345 0.8339 0.8329 0.8320 0.8315
2705.514202 0.8309 0.8294 0.8280 0.8270 0.8260
2710.042515 0.8255 0.8250 0.8245 0.8240 0.8230
2714.570827 0.8220 0.8205 0.8190 0.8185 0.8180
2719.099139 0.8170 0.8160 0.8150 0.8140 0.8120
2723.627451 0.8100 0.8081 0.8061 0.8036 0.8011
2728.155764 0.7995 0.7981 0.7970 0.7960 0.7960
2732.684076 0.7960 0.7955 0.7950 0.7931 0.7911
2737.212388 0.7859 0.7804 0.7791 0.7781 0.7762
2741.740701 0.7742 0.7709 0.7674 0.7648 0.7623
2746.269013 0.7616 0.7611 0.7561 0.7507 0.7491
2750.797325 0.7481 0.7419 0.7350 0.7331 0.7321
2755.325637 0.7278 0.7228 0.7216 0.7211 0.7148
2759.853950 0.7073 0.7027 0.6987 0.6960 0.6934
2764.382262 0.6905 0.6876 0.6817 0.6753 0.6724
2768.910574 0.6704 0.6664 0.6620 0.6571 0.6521
2773.438886 0.6475 0.6430 0.6374 0.6314 0.6270
2777.967199 0.6230 0.6198 0.6168 0.6104 0.6029
2782.495511 0.5928 0.5819 0.5746 0.5686 0.5648
2787.023823 0.5618 0.5538 0.5439 0.5382 0.5342
2791.552136 0.5250 0.5135 0.5055 0.4991 0.4916
2796.080448 0.4836 0.4760 0.4685 0.4617 0.4551
2800.608760 0.4503 0.4463 0.4338 0.4169 0.4019
2805.137072 0.3880 0.3769 0.3675 0.3612 0.3567
2809.665385 0.3550 0.3550 0.3504 0.3429 0.3343
2814.193697 0.3248 0.3154 0.3059 0.2979 0.2908
2818.722009 0.2838 0.2769 0.2702 0.2637 0.2553
2823.250322 0.2453 0.2353 0.2254 0.2154 0.2055
2827.778634 0.1958 0.1864 0.1790 0.1736 0.1649
2832.306946 0.1535 0.1439 0.1359 0.1281 0.1206
2836.835258 0.1144 0.1094 0.1032 0.0957 0.0908
2841.363571 0.0883 0.0848 0.0803 0.0763 0.0728
2845.891883 0.0705 0.0695 0.0674 0.0639 0.0620
2850.420195 0.0620 0.0631 0.0656 0.0694 0.0749
2854.948508 0.0791 0.0816 0.0837 0.0851 0.0881
2859.476820 0.0931 0.0995 0.1080 0.1148 0.1193
2864.005132 0.1254 0.1338 0.1409 0.1459 0.1524
2868.533444 0.1614 0.1681 0.1711 0.1759 0.1839
2873.061757 0.1910 0.1965 0.2032 0.2122 0.2183
2877.590069 0.2193 0.2234 0.2334 0.2415 0.2460
2882.118381 0.2516 0.2595 0.2672 0.2741 0.2801
2886.646693 0.2835 0.2863 0.2873 0.2897 0.2957
2891.175006 0.3028 0.3122 0.3194 0.3209 0.3241
2895.703318 0.3315 0.3373 0.3383 0.3408 0.3478
2900.231630 0.3540 0.3580 0.3640 0.3764 0.3871
2904.759943 0.3921 0.3974 0.4039 0.4097 0.4133
2909.288255 0.4170 0.4215 0.4266 0.4340 0.4409
2913.816567 0.4454 0.4505 0.4585 0.4654 0.4673
2918.344879 0.4696 0.4731 0.4764 0.4789 0.4813
2922.873192 0.4833 0.4854 0.4884 0.4911 0.4916
2927.401504 0.4920 0.4920 0.4915 0.4875 0.4838
2931.929816 0.4823 0.4804 0.4755 0.4707 0.4677
2936.458129 0.4646 0.4601 0.4553 0.4474 0.4394
2940.986441 0.4309 0.4223 0.4124 0.4027 0.3966
2945.514753 0.3899 0.3724 0.3560 0.3560 0.3564
2950.043065 0.3638 0.3713 0.3793 0.3872 0.3937
2954.571378 0.4002 0.4106 0.4211 0.4265 0.4320
2959.099690 0.4405 0.4489 0.4623 0.4757 0.4883
2963.628002 0.5009 0.5035 0.5060 0.5143 0.5228
2968.156314 0.5283 0.5338 0.5431 0.5526 0.5558
2972.684627 0.5588 0.5703 0.5822 0.5849 0.5869
2977.212939 0.5916 0.5966 0.6057 0.6151 0.6206
2981.741251 0.6256 0.6296 0.6336 0.6345 0.6349
2986.269564 0.6395 0.6444 0.6454 0.6459 0.6482
2990.797876 0.6507 0.6519 0.6529 0.6534 0.6539
2995.326188 0.6544 0.6549 0.6554 0.6559 0.6560
2999.854500 0.6560 0.6560 0.6560 0.6564 0.6569
3004.382813 0.6570 0.6570 0.6570 0.6570 0.6570
3008.911125 0.6570 0.6566 0.6561 0.6560 0.6560
3013.439437 0.6556 0.6551 0.6550 0.6550 0.6546
3017.967750 0.6541 0.6536 0.6531 0.6523 0.6513
3022.496062 0.6499 0.6484 0.6473 0.6463 0.6453
3027.024374 0.6443 0.6426 0.6406 0.6393 0.6383
3031.552686 0.6370 0.6355 0.6336 0.6316 0.6296
3036.080999 0.6276 0.6263 0.6253 0.6237 0.6217
3040.609311 0.6203 0.6193 0.6180 0.6165 0.6124
3045.137623 0.6070 0.6034 0.6009 0.5991 0.5976
3049.665935 0.5930 0.5865 0.5825 0.5800 0.5772
3054.194248 0.5742 0.5681 0.5602 0.5519 0.5434
3058.722560 0.5370 0.5321 0.5259 0.5190 0.5071
3063.250872 0.4917 0.4780 0.4655 0.4522 0.4383
3067.779185 0.4287 0.4228 0.4147 0.4047 0.3955
3072.307497 0.3870 0.3830 0.3830 0.3880 0.3974
3076.835809 0.4069 0.4164 0.4258 0.4353 0.4445
3081.364121 0.4534 0.4709 0.4973 0.5124 0.5154
3085.892434 0.5226 0.5346 0.5454 0.5548 0.5611
3090.420746 0.5636 0.5652 0.5657 0.5669 0.5689
3094.949058 0.5711 0.5736 0.5754 0.5764 0.5774
3099.477371 0.5784 0.5796 0.5811 0.5822 0.5827
3104.005683 0.5830 0.5830 0.5832 0.5837 0.5840
3108.533995 0.5840 0.5842 0.5847 0.5850 0.5850
3113.062307 0.5848 0.5843 0.5836 0.5827 0.5815
3117.590620 0.5800 0.5788 0.5783 0.5778 0.5773
3122.118932 0.5768 0.5763 0.5758 0.5753 0.5750
3126.647244 0.5750 0.5748 0.5743 0.5739 0.5734
3131.175556 0.5727 0.5717 0.5709 0.5704 0.5699
3135.703869 0.5694 0.5686 0.5671 0.5654 0.5629
3140.232181 0.5606 0.5591 0.5575 0.5555 0.5538
3144.760493 0.5528 0.5518 0.5508 0.5499 0.5494
3149.288806 0.5489 0.5484 0.5480 0.5480 0.5477
3153.817118 0.5462 0.5449 0.5444 0.5438 0.5428
3158.345430 0.5418 0.5408 0.5398 0.5383 0.5369
3162.873742 0.5358 0.5348 0.5333 0.5319 0.5309
3167.402055 0.5297 0.5277 0.5259 0.5249 0.5239
3171.930367 0.5229 0.5218 0.5203 0.5189 0.5185
3176.458679 0.5179 0.5169 0.5157 0.5122 0.5089
3180.986992 0.5079 0.5068 0.5048 0.5029 0.5014
3185.515304 0.4999 0.4989 0.4979 0.4970 0.4959
3190.043616 0.4934 0.4909 0.4895 0.4879 0.4860
3194.571928 0.4839 0.4794 0.4750 0.4740 0.4730
3199.100241 0.4720 0.4710 0.4710 0.4710 0.4695
3203.628553 0.4680 0.4665 0.4650 0.4640 0.4630
3208.156865 0.4611 0.4591 0.4576 0.4561 0.4532
3212.685177 0.4502 0.4491 0.4481 0.4471 0.4461
3217.213490 0.4437 0.4412 0.4387 0.4362 0.4337
3221.741802 0.4312 0.4296 0.4281 0.4262 0.4242
3226.270114 0.4231 0.4221 0.4207 0.4192 0.4164
3230.798427 0.4134 0.4091 0.4046 0.4031 0.4022
3235.326739 0.4012 0.4001 0.3983 0.3963 0.3943
3239.855051 0.3923 0.3908 0.3893 0.3882 0.3872
3244.383363 0.3854 0.3834 0.3818 0.3803 0.3788
3248.911676 0.3773 0.3754 0.3734 0.3718 0.3703
3253.439988 0.3685 0.3664 0.3652 0.3642 0.3636
3257.968300 0.3631 0.3622 0.3612 0.3603 0.3593
3262.496613 0.3579 0.3564 0.3553 0.3543 0.3536
3267.024925 0.3531 0.3526 0.3521 0.3516 0.3512
3271.553237 0.3503 0.3493 0.3486 0.3482 0.3477
3276.081549 0.3472 0.3470 0.3470 0.3470 0.3470
3280.609862 0.3470 0.3470 0.3467 0.3462 0.3460
3285.138174 0.3460 0.3460 0.3460 0.3460 0.3460
3289.666486 0.3460 0.3460 0.3463 0.3468 0.3470
3294.194799 0.3470 0.3473 0.3478 0.3480 0.3480
3298.723111 0.3483 0.3488 0.3490 0.3490 0.3496
3303.251423 0.3506 0.3516 0.3526 0.3533 0.3538
3307.779735 0.3543 0.3548 0.3556 0.3565 0.3575
3312.308048 0.3585 0.3593 0.3598 0.3605 0.3615
3316.836360 0.3625 0.3635 0.3645 0.3655 0.3667
3321.364672 0.3682 0.3695 0.3705 0.3717 0.3732
3325.892984 0.3754 0.3784 0.3805 0.3815 0.3827
3330.421297 0.3842 0.3861 0.3886 0.3904 0.3914
3334.949609 0.3931 0.3956 0.3976 0.3991 0.4010
3339.477921 0.4035 0.4056 0.4071 0.4090 0.4115
3344.006234 0.4138 0.4158 0.4180 0.4205 0.4226
3348.534546 0.4241 0.4259 0.4284 0.4306 0.4320
3353.062858 0.4337 0.4357 0.4374 0.4383 0.4393
3357.591170 0.4403 0.4437 0.4516 0.4585 0.4629
3362.119483 0.4671 0.4706 0.4732 0.4737 0.4765
3366.647795 0.4845 0.4902 0.4906 0.4911 0.4916
3371.176107 0.4956 0.5080 0.5173 0.5183 0.5194
3375.704420 0.5209 0.5233 0.5283 0.5332 0.5382
3380.232732 0.5443 0.5538 0.5617 0.5647 0.5674
3384.761044 0.5689 0.5703 0.5718 0.5731 0.5736
3389.289356 0.5762 0.5867 0.5951 0.5956 0.5960
3393.817669 0.5960 0.5963 0.5978 0.5991 0.5996
3398.345981 0.6001 0.6006 0.6020 0.6074 0.6121
3402.874293 0.6126 0.6132 0.6147 0.6164 0.6189
3407.402605 0.6213 0.6233 0.6252 0.6267 0.6281
3411.930918 0.6291 0.6301 0.6306 0.6311 0.6321
3416.459230 0.6330 0.6335 0.6341 0.6351 0.6361
3420.987542 0.6371 0.6381 0.6391 0.6401 0.6421
3425.515855 0.6441 0.6461 0.6481 0.6501 0.6520
3430.044167 0.6530 0.6540 0.6545 0.6550 0.6555
3434.572479 0.6560 0.6560 0.6560 0.6565 0.6570
3439.100791 0.6590 0.6610 0.6630 0.6650 0.6660
3443.629104 0.6670 0.6675 0.6680 0.6685 0.6690
3448.157416 0.6704 0.6719 0.6730 0.6739 0.6749
3452.685728 0.6759 0.6765 0.6770 0.6775 0.6780
3457.214041 0.6794 0.6809 0.6828 0.6848 0.6859
3461.742353 0.6869 0.6875 0.6880 0.6889 0.6899
3466.270665 0.6922 0.6947 0.6963 0.6978 0.6997
3470.798977 0.7017 0.7029 0.7039 0.7044 0.7049
3475.327290 0.7063 0.7078 0.7097 0.7117 0.7128
3479.855602 0.7138 0.7140 0.7140 0.7144 0.7149
3484.383914 0.7162 0.7177 0.7180 0.7180 0.7184
3488.912226 0.7189 0.7206 0.7226 0.7246 0.7266
3493.440539 0.7286 0.7306 0.7314 0.7319 0.7343
3497.968851 0.7373 0.7388 0.7397 0.7419 0.7444
3502.497163 0.7457 0.7467 0.7481 0.7496 0.7511
3507.025476 0.7526 0.7534 0.7539 0.7547 0.7557
3511.553788 0.7560 0.7560 0.7577 0.7602 0.7613
3516.082100 0.7618 0.7627 0.7637 0.7640 0.7640
3520.610412 0.7643 0.7648 0.7656 0.7666 0.7680
3525.138725 0.7695 0.7713 0.7733 0.7759 0.7789
3529.667037 0.7803 0.7808 0.7819 0.7834 0.7843
3534.195349 0.7848 0.7859 0.7874 0.7892 0.7912
3538.723662 0.7923 0.7928 0.7939 0.7954 0.7963
3543.251974 0.7968 0.7976 0.7986 0.7993 0.7998
3547.780286 0.8006 0.8016 0.8039 0.8074 0.8106
3552.308598 0.8136 0.8166 0.8196 0.8210 0.8210
3556.836911 0.8215 0.8225 0.8235 0.8245 0.8255
3561.365223 0.8265 0.8277 0.8292 0.8302 0.8307
3565.893535 0.8315 0.8325 0.8335 0.8345 0.8357
3570.421847 0.8372 0.8385 0.8394 0.8402 0.8407
3574.950160 0.8414 0.8424 0.8434 0.8444 0.8456
3579.478472 0.8471 0.8484 0.8494 0.8502 0.8507
3584.006784 0.8518 0.8538 0.8554 0.8564 0.8576
3588.535097 0.8591 0.8608 0.8627 0.8644 0.8654
3593.063409 0.8662 0.8667 0.8672 0.8677 0.8682
3597.591721 0.8687 0.8692 0.8697 0.8703 0.8713
3602.120033 0.8722 0.8727 0.8732 0.8737 0.8742
3606.648346 0.8747 0.8752 0.8756 0.8760 0.8760
3611.176658 0.8761 0.8766 0.8770 0.8770 0.8771
3615.704970 0.8776 0.8780 0.8780 0.8780 0.8780
3620.233283 0.8780 0.8780 0.8780 0.8780 0.8781
3624.761595 0.8786 0.8790 0.8790 0.8790 0.8790
3629.289907 0.8790 0.8790 0.8790 0.8790 0.8792
3633.818219 0.8802 0.8810 0.8810 0.8810 0.8810
3638.346532 0.8810 0.8810 0.8811 0.8816 0.8820
3642.874844 0.8820 0.8820 0.8820 0.8820 0.8820
3647.403156 0.8821 0.8826 0.8830 0.8830 0.8830
3651.931468 0.8830 0.8831 0.8836 0.8841 0.8846
3656.459781 0.8850 0.8850 0.8850 0.8855 0.8860
3660.988093 0.8860 0.8860 0.8865 0.8871 0.8881
3665.516405 0.8890 0.8895 0.8900 0.8910 0.8921
3670.044718 0.8936 0.8950 0.8966 0.8981 0.8995
3674.573030 0.9011 0.9036 0.9060 0.9075 0.9090
3679.101342 0.9090 0.9090 0.9100 0.9110 0.9120
3683.629654 0.9130 0.9145 0.9160 0.9170 0.9180
3688.157967 0.9190 0.9200 0.9205 0.9210 0.9215
3692.686279 0.9220 0.9229 0.9239 0.9245 0.9250
3697.214591 0.9255 0.9260 0.9265 0.9270 0.9275
3701.742904 0.9280 0.9280 0.9280 0.9284 0.9289
3706.271216 0.9290 0.9290 0.9294 0.9299 0.9300
3710.799528 0.9300 0.9309 0.9319 0.9320 0.9320
3715.327840 0.9324 0.9329 0.9330 0.9330 0.9334
3719.856153 0.9339 0.9340 0.9340 0.9340 0.9340
3724.384465 0.9340 0.9340 0.9340 0.9340 0.9340
3728.912777 0.9340 0.9340 0.9340 0.9340 0.9340
3733.441089 0.9344 0.9349 0.9350 0.9350 0.9350
3737.969402 0.9350 0.9350 0.9350 0.9350 0.9350
3742.497714 0.9350 0.9350 0.9350 0.9350 0.9350
3747.026026 0.9350 0.9354 0.9359 0.9360 0.9360
3751.554339 0.9360 0.9360 0.9360 0.9360 0.9360
3756.082651 0.9360 0.9360 0.9360 0.9360 0.9360
3760.610963 0.9360 0.9360 0.9360 0.9360 0.9360
3765.139275 0.9360 0.9360 0.9360 0.9360 0.9360
3769.667588 0.9360 0.9360 0.9360 0.9360 0.9360
3774.195900 0.9360 0.9360 0.9360 0.9360 0.9360
3778.724212 0.9360 0.9360 0.9360 0.9360 0.9360
3783.252525 0.9360 0.9360 0.9360 0.9360 0.9360
3787.780837 0.9360 0.9360 0.9357 0.9352 0.9350
3792.309149 0.9350 0.9350 0.9350 0.9350 0.9350
3796.837461 0.9350 0.9350 0.9350 0.9350 0.9350
3801.365774 0.9350 0.9348 0.9343 0.9340 0.9340
3805.894086 0.9340 0.9340 0.9338 0.9333 0.9330
3810.422398 0.9330 0.9330 0.9330 0.9328 0.9323
3814.950711 0.9320 0.9320 0.9316 0.9306 0.9298
3819.479023 0.9293 0.9290 0.9290 0.9288 0.9283
3824.007335 0.9278 0.9273 0.9268 0.9263 0.9258
3828.535647 0.9253 0.9248 0.9243 0.9235 0.9220
3833.063960 0.9206 0.9196 0.9187 0.9176 0.9166
3837.592272 0.9156 0.9147 0.9137 0.9127 0.9117
3842.120584 0.9108 0.9103 0.9100 0.9100 0.9095
3846.648896 0.9080 0.9064 0.9044 0.9029 0.9024
3851.177209 0.9019 0.9014 0.9010 0.9010 0.9011
3855.705521 0.9016 0.9020 0.9020 0.9021 0.9026
3860.233833 0.9031 0.9036 0.9042 0.9052 0.9063
3864.762146 0.9078 0.9092 0.9102 0.9112 0.9122
3869.290458 0.9133 0.9148 0.9162 0.9172 0.9187
3873.818770 0.9222 0.9252 0.9262 0.9271 0.9276
3878.347082 0.9284 0.9309 0.9332 0.9342 0.9351
3882.875395 0.9356 0.9360 0.9360 0.9360 0.9360
3887.403707 0.9361 0.9366 0.9370 0.9370 0.9370
3891.932019 0.9370 0.9369 0.9364 0.9360 0.9360
3896.460332 0.9360 0.9355 0.9350 0.9350 0.9350
3900.988644 0.9345 0.9340 0.9340 0.9340 0.9335
3905.516956 0.9330 0.9330 0.9330 0.9325 0.9320
3910.045268 0.9320 0.9320 0.9310 0.9300 0.9300
3914.573581 0.9300 0.9300 0.9300 0.9295 0.9290
3919.101893 0.9290 0.9290 0.9290 0.9290 0.9290
3923.630205 0.9290 0.9290 0.9290 0.9290 0.9290
3928.158517 0.9290 0.9290 0.9295 0.9300 0.9300
3932.686830 0.9300 0.9300 0.9300 0.9309 0.9319
3937.215142 0.9320 0.9320 0.9325 0.9330 0.9330
3941.743454 0.9330 0.9334 0.9339 0.9340 0.9340
3946.271767 0.9344 0.9349 0.9350 0.9350 0.9354
3950.800079 0.9359 0.9364 0.9369 0.9374 0.9379
3955.328391 0.9384 0.9389 0.9390 0.9390 0.9398
3959.856703 0.9408 0.9410 0.9410 0.9414 0.9419
3964.385016 0.9420 0.9420 0.9424 0.9429 0.9430
3968.913328 0.9430 0.9430 0.9430 0.9426 0.9421
3973.441640 0.9420 0.9420 0.9416 0.9411 0.9402
3977.969953 0.9392 0.9390 0.9390 0.9390 0.9390
##END=
