##TITLE=Diethylamine
##JCAMP-DX=4.24
##DATA TYPE=INFRARED SPECTRUM
##ORIGIN=EPA-IR VAPOR PHASE LIBRARY
##OWNER=SRD/NIST
Collection (C) 2018 copyright by the U.S. Secretary of Commerce
on behalf of the United States of America. All rights reserved.
##CAS REGISTRY NO=109-89-7
##MOLFORM=C 4 H 11 N
##$NIST SOURCE=MSDC-IR
##STATE=gas
##XUNITS=1/CM
##YUNITS=ABSORBANCE
##XFACTOR=1.
##YFACTOR=0.001
##DELTAX=3.85796
##FIRSTX=501.5
##LASTX=4000.7
##FIRSTY=12.28
##MAXX=4000.7
##MINX=501.534
##MAXY=0.49027
##MINY=0.0003614
##NPOINTS=908
##XYDATA=(X++(Y..Y))
501.534 12.28 12.11 11.28 10.59 10.4 10.06 9.84 9.62 9.58 9.84
540.114 10.18 10.23 10.45 10.99 11.57 12.15 12.84 13.64 14.2 14.92
578.693 15.97 17.21 18.28 19.26 20.61 22.27 23.89 25.64 27.65 29.73
617.273 32.05 34.57 37.3 40.52 43.97 47.64 51.74 56.31 61.31 66.53
655.852 71.99 77.59 83.11 88.62 93.74 98.18 102.01 105.07 107.01 108.12
694.432 108.56 107.88 105.79 102.48 98.43 93.86 88.78 83.04 77.06 71.24
733.011 65.28 59.26 53.42 47.82 42.61 38.01 34.19 30.89 28.07 25.76
771.591 23.87 22.33 21.07 19.95 18.79 17.7 16.68 15.7 14.82 13.99
810.170 13.13 12.38 11.72 10.99 10.39 9.99 9.68 9.5 9.37 9.3
848.750 9.38 9.52 9.62 9.74 9.91 10.03 10.16 10.21 10.27 10.37
887.330 10.36 10.34 10.28 10.15 10.05 10.04 10.08 10.04 9.98 9.8
925.909 9.52 9.31 9.15 8.99 8.66 8.25 7.95 7.84 7.8 7.84
964.489 8.08 8.42 8.86 9.42 10.11 10.92 11.98 13.29 14.63 15.99
1003.068 17.43 19.04 20.8 22.37 23.9 25.64 27.18 28.61 29.96 31
1041.648 31.65 31.93 32.09 32.24 32.28 31.83 31.01 30.46 30.32 30.84
1080.227 32.34 34.7 37.81 41.59 46.24 52.6 60.87 70.71 82.42 97.18
1118.807 114.94 134.74 154.84 172.81 187.96 200.01 207.16 206.04 193.28 173.43
1157.387 154.28 137.35 120.98 104.04 87.88 74.55 63.93 55.26 48.34 42.64
1195.966 37.79 33.2 28.4 24.01 20.57 17.96 16.08 14.83 14.19 14.11
1234.546 14.49 15.38 16.8 18.44 20.06 21.61 23.09 24.43 25.62 26.7
1273.125 27.73 28.78 29.39 29.58 29.83 30.12 30.93 32.28 33.94 36.64
1311.705 41.01 46.76 52.76 57.91 62.39 66.9 71.54 74.17 73.35 70.94
1350.284 69.44 70.35 73.42 78.91 86.89 95 100.32 102.06 102.33 103.27
1388.864 103.08 95.96 81 64.71 52.53 45.67 43.16 43.86 47.3 53.49
1427.443 62.33 72.99 83.32 92.29 101.25 110.37 117.74 120.65 117.53 111.72
1466.023 106.53 100.5 91.26 79.88 68.52 58.02 48.43 40.4 33.59 27.63
1504.603 22.91 19.24 16.54 14.43 12.76 11.47 10.45 9.62 8.94 8.39
1543.182 7.96 7.61 7.31 7.03 6.79 6.55 6.33 6.11 5.91 5.72
1581.762 5.51 5.33 5.18 5.08 4.97 4.93 4.9 4.77 4.67 4.59
1620.341 4.53 4.49 4.43 4.34 4.29 4.29 4.25 4.2 4.12 4.08
1658.921 4.07 4.01 3.95 3.86 3.75 3.66 3.56 3.47 3.37 3.23
1697.500 3.11 3 2.92 2.9 2.87 2.77 2.69 2.67 2.64 2.65
1736.080 2.68 2.64 2.64 2.62 2.61 2.63 2.61 2.59 2.64 2.7
1774.659 2.69 2.71 2.77 2.88 3 3.14 3.26 3.36 3.5 3.62
1813.239 3.72 3.81 3.94 4.01 4.02 4.07 4.09 4.04 3.98 3.93
1851.819 3.81 3.64 3.46 3.26 3.1 2.95 2.83 2.68 2.55 2.44
1890.398 2.33 2.25 2.22 2.17 2.15 2.16 2.19 2.21 2.21 2.24
1928.978 2.25 2.26 2.24 2.21 2.17 2.15 2.14 2.1 2.08 2.09
1967.557 2.07 2.03 2.02 1.99 1.96 1.93 1.89 1.85 1.83 1.81
2006.137 1.75 1.69 1.59 1.52 1.48 1.4 1.32 1.3 1.29 1.25
2044.716 1.23 1.23 1.21 1.17 1.19 1.18 1.17 1.16 1.15 1.14
2083.296 1.12 1.11 1.08 1.02 0.9954 0.9472 0.8932 0.8957 0.9124 0.961
2121.875 0.9792 1 1.04 1.14 1.28 1.35 1.45 1.53 1.64 1.76
2160.455 1.81 1.84 1.9 1.92 1.9 1.84 1.76 1.7 1.62 1.56
2199.035 1.56 1.54 1.54 1.58 1.58 1.59 1.66 1.77 1.86 1.96
2237.614 2.05 2.11 2.22 2.32 2.43 2.49 2.53 2.6 2.64 2.64
2276.194 2.59 2.55 2.52 2.46 2.39 2.35 2.31 2.23 2.13 2.08
2314.773 2.04 1.99 1.95 1.93 1.92 1.89 1.89 1.88 1.88 1.87
2353.353 1.89 1.96 2.02 2.08 2.11 2.16 2.2 2.23 2.3 2.38
2391.932 2.46 2.54 2.61 2.62 2.68 2.74 2.73 2.68 2.63 2.56
2430.512 2.49 2.36 2.22 2.17 2.13 2.11 2.16 2.17 2.23 2.31
2469.092 2.36 2.48 2.53 2.61 2.73 2.83 2.96 3.04 3.1 3.19
2507.671 3.26 3.4 3.52 3.63 3.8 3.99 4.2 4.47 4.8 5.12
2546.251 5.42 5.73 6.09 6.5 6.9 7.28 7.69 8.11 8.47 8.85
2584.830 9.3 9.75 10.14 10.57 11.03 11.48 12.01 12.6 13.17 13.77
2623.410 14.38 15.06 15.75 16.41 17.11 17.83 18.53 19.24 20 20.81
2661.989 21.69 22.65 23.68 24.78 25.87 27 28.16 29.35 30.5 31.57
2700.569 32.71 33.87 35.09 36.43 37.91 39.55 41.34 43.25 45.29 47.52
2739.148 49.88 52.48 55.44 58.86 62.85 67.46 72.87 79.38 87.23 96.55
2777.728 107.46 119.94 134 149.57 166.18 183.25 200.29 216.55 231.03 243.31
2816.308 253.34 260.19 263.96 265.07 263.2 258.65 251.83 243.72 235.51 227.94
2854.887 222.35 220.35 222.61 228.7 236.04 241.13 243.9 247.97 254.17 259.37
2893.467 261.64 261.71 261.34 261.89 264.58 270.51 279.93 292.06 305.85 320.3
2932.046 335.33 350.65 365.84 382.46 402.66 426.39 451.5 472.86 486.59 490.27
2970.626 483.58 469.97 448.85 415.78 368.39 314.72 262.13 214.92 175.63 143.32
3009.205 116.83 95.03 77.5 63.83 53.31 45.3 39.23 34.68 31.24 28.49
3047.785 26.35 24.59 23.07 21.84 20.75 19.8 19.04 18.33 17.7 17.19
3086.364 16.64 16.1 15.58 14.93 14.24 13.65 13.04 12.41 11.83 11.31
3124.944 10.87 10.41 10.02 9.72 9.43 9.11 8.9 8.72 8.49 8.34
3163.524 8.22 8.08 8.03 7.88 7.72 7.57 7.4 7.24 7.01 6.75
3202.103 6.44 6.06 5.72 5.38 5 4.64 4.24 3.88 3.55 3.24
3240.683 2.92 2.59 2.37 2.21 2.07 1.95 1.75 1.65 1.55 1.44
3279.262 1.38 1.29 1.25 1.21 1.19 1.23 1.23 1.28 1.33 1.34
3317.842 1.42 1.56 1.69 1.71 1.76 1.86 1.86 1.89 1.85 1.87
3356.421 1.87 1.77 1.76 1.73 1.68 1.6 1.47 1.51 1.55 1.5
3395.001 1.46 1.4 1.35 1.33 1.35 1.27 1.15 1.11 1.07 0.9755
3433.580 0.9242 0.8523 0.8114 0.8308 0.7691 0.7487 0.7848 0.8247 0.8125 0.7492
3472.160 0.6586 0.6646 0.602 0.4972 0.4557 0.4815 0.5408 0.4449 0.4381 0.4767
3510.740 0.477 0.5617 0.6242 0.5646 0.5329 0.5582 0.5478 0.4528 0.3753 0.3909
3549.319 0.4198 0.5295 0.5597 0.458 0.4137 0.4765 0.4234 0.3664 0.3878 0.3614
3587.899 0.3857 0.4835 0.6049 0.6471 0.6655 0.7399 0.8034 0.8129 0.9291 0.9897
3626.478 0.9744 1.09 1.08 1.08 1.14 1.08 0.9756 0.8685 0.9077 0.9714
3665.058 0.9508 1.01 1.14 1.09 1 1 1.12 1.21 1.17 1.25
3703.637 1.35 1.37 1.35 1.33 1.25 1.2 1.2 1.17 1.18 1.16
3742.217 1.14 1.13 1.13 1.18 1.23 1.26 1.18 1.11 1.12 1.16
3780.797 1.19 1.12 1.02 1 1.09 1.15 1.11 1.06 1.01 0.9879
3819.376 0.9945 1.1 1.16 1.11 1.12 1.08 1.04 0.9809 0.9258 1.04
3857.956 1.09 1.17 1.22 1.13 1.2 1.27 1.25 1.31 1.31 1.35
3896.535 1.48 1.52 1.48 1.46 1.57 1.81 1.93 2 2.13 2.2
3935.115 2.33 2.48 2.58 2.7 2.81 2.81 2.79 2.85 2.84 2.9
3973.694 3.04 3.08 3.12 3.18 3.16 3.11 3.14 3.18
##END=
