##TITLE=Sym-Dimethylethylene diamine
##JCAMP-DX=4.24
##DATA TYPE=INFRARED SPECTRUM
##ORIGIN=EPA-IR VAPOR PHASE LIBRARY
##OWNER=SRD/NIST
Collection (C) 2018 copyright by the U.S. Secretary of Commerce
on behalf of the United States of America. All rights reserved.
##CAS REGISTRY NO=110-70-3
##MOLFORM=C 4 H 12 N 2
##$NIST SOURCE=MSDC-IR
##STATE=gas
##XUNITS=1/CM
##YUNITS=ABSORBANCE
##XFACTOR=1.
##YFACTOR=0.001
##DELTAX=3.85796
##FIRSTX=501.5
##LASTX=4000.7
##FIRSTY=2.276
##MAXX=4000.7
##MINX=501.534
##MAXY=0.044196
##MINY=0
##NPOINTS=908
##XYDATA=(X++(Y..Y))
501.534 2.276 2.616 2.586 2.606 2.696 2.526 2.456 2.526 2.566 2.686
540.114 2.666 2.496 2.446 2.346 2.386 2.516 2.496 2.516 2.646 2.846
578.693 2.936 2.986 3.196 3.466 3.706 3.836 3.946 4.166 4.446 4.686
617.273 5.036 5.366 5.756 6.226 6.626 6.986 7.406 8.026 8.656 9.206
655.852 9.666 10.156 10.816 11.516 12.076 12.646 13.346 13.996 14.586 15.166
694.432 15.736 16.236 16.666 16.986 17.166 17.276 17.176 16.836 16.436 15.936
733.011 15.376 14.766 14.076 13.386 12.616 11.796 11.066 10.296 9.556 8.866
771.591 8.166 7.436 6.736 6.146 5.626 5.186 4.816 4.506 4.196 4.006
810.170 3.846 3.656 3.476 3.306 3.266 3.306 3.346 3.386 3.406 3.356
848.750 3.346 3.386 3.416 3.416 3.426 3.386 3.246 3.076 2.926 2.766
887.330 2.666 2.536 2.446 2.376 2.396 2.466 2.486 2.496 2.466 2.476
925.909 2.526 2.516 2.466 2.436 2.446 2.416 2.396 2.486 2.576 2.676
964.489 2.746 2.796 2.856 2.986 3.086 3.166 3.246 3.296 3.406 3.446
1003.068 3.536 3.766 3.926 4.116 4.296 4.446 4.536 4.626 4.706 4.626
1041.648 4.566 4.356 4.086 3.956 3.866 3.866 3.966 4.206 4.586 5.176
1080.227 5.846 6.716 7.916 9.286 10.946 12.676 14.236 15.836 17.266 18.306
1118.807 18.866 18.766 18.266 17.626 17.046 16.476 15.856 15.336 14.926 14.366
1157.387 13.596 12.616 11.326 9.966 8.686 7.496 6.566 5.746 4.996 4.346
1195.966 3.836 3.496 3.166 2.976 2.936 2.826 2.756 2.736 2.786 2.976
1234.546 3.036 3.076 3.176 3.236 3.336 3.316 3.306 3.336 3.256 3.136
1273.125 2.966 2.846 2.726 2.536 2.386 2.306 2.286 2.296 2.306 2.346
1311.705 2.396 2.446 2.516 2.666 2.926 3.386 4.076 4.776 5.256 5.506
1350.284 5.656 5.716 5.526 5.016 4.336 3.766 3.366 3.066 2.846 2.676
1388.864 2.586 2.556 2.606 2.706 2.906 3.246 3.706 4.266 4.896 5.686
1427.443 6.806 8.216 9.776 11.376 12.886 14.296 15.536 16.536 17.176 17.326
1466.023 17.096 16.516 15.486 14.116 12.556 10.826 8.946 7.156 5.666 4.546
1504.603 3.736 3.116 2.636 2.266 2.016 1.806 1.646 1.536 1.426 1.356
1543.182 1.2889 1.2112 1.1358 1.0774 1.0522 1.008 0.9792 0.9644 0.9269 0.883
1581.762 0.8248 0.8028 0.8277 0.8056 0.765 0.748 0.7291 0.7062 0.6969 0.6825
1620.341 0.6555 0.6494 0.64 0.6147 0.6038 0.5858 0.5378 0.4636 0.41295 0.37846
1658.921 0.3748 0.40786 0.40302 0.4241 0.4579 0.467 0.4851 0.4946 0.5067 0.5105
1697.500 0.5211 0.5258 0.4979 0.4685 0.4487 0.461 0.4765 0.4818 0.4711 0.4836
1736.080 0.507 0.4848 0.4742 0.4724 0.4777 0.4921 0.497 0.4959 0.483 0.4727
1774.659 0.4688 0.4688 0.4733 0.4664 0.4654 0.4669 0.4973 0.5188 0.4982 0.4864
1813.239 0.501 0.5235 0.5189 0.5312 0.5548 0.5563 0.5589 0.5564 0.567 0.5645
1851.819 0.542 0.5594 0.5834 0.5667 0.5413 0.5122 0.4851 0.4806 0.4731 0.469
1890.398 0.4752 0.4593 0.4413 0.4304 0.4195 0.39472 0.35626 0.34656 0.34229 0.319419
1928.978 0.31487 0.31179 0.2953 0.2943 0.2905 0.2722 0.258 0.2825 0.3015 0.31041
1967.557 0.318301 0.322501 0.322846 0.30821 0.3016 0.3051 0.3118 0.31012 0.3053 0.318758
2006.137 0.32902 0.3047 0.2929 0.3031 0.3036 0.2691 0.2566 0.2839 0.2873 0.2738
2044.716 0.2648 0.2506 0.2542 0.2677 0.2754 0.292 0.3013 0.3016 0.3043 0.318697
2083.296 0.33262 0.33104 0.30698 0.31091 0.33455 0.33136 0.32606 0.321203 0.325355 0.321567
2121.875 0.2991 0.2883 0.303 0.2969 0.2582 0.2477 0.2553 0.2508 0.2415 0.214
2160.455 0.202 0.201 0.183 0.189 0.172 0.143 0.158 0.174 0.166 0.156
2199.035 0.164 0.169 0.177 0.193 0.188 0.205 0.217 0.202 0.2 0.212
2237.614 0.2417 0.2388 0.196 0.197 0.2186 0.209 0.208 0.2204 0.2192 0.193
2276.194 0.19 0.2176 0.2427 0.2378 0.2195 0.2168 0.2287 0.2651 0.2857 0.2774
2314.773 0.2747 0.2796 0.2891 0.2813 0.2728 0.28 0.2955 0.315892 0.2895 0.2657
2353.353 0.2632 0.2629 0.258 0.2503 0.2526 0.2529 0.2345 0.2328 0.2439 0.2228
2391.932 0.237 0.2409 0.203 0.2182 0.2456 0.2514 0.2629 0.233 0.2239 0.278
2430.512 0.3015 0.31183 0.33609 0.35963 0.39846 0.4344 0.4556 0.4427 0.4429 0.4927
2469.092 0.4888 0.4474 0.4529 0.4798 0.5117 0.5221 0.5254 0.5475 0.5259 0.494
2507.671 0.5049 0.5283 0.5484 0.5701 0.5896 0.6036 0.6276 0.6486 0.6735 0.7085
2546.251 0.7196 0.7295 0.7719 0.8162 0.8687 0.9104 0.9112 0.9505 1.0096 1.0396
2584.830 1.0686 1.1137 1.137 1.1559 1.2061 1.2511 1.2774 1.336 1.416 1.446
2623.410 1.476 1.526 1.596 1.686 1.796 1.906 2.036 2.196 2.376 2.606
2661.989 2.806 2.996 3.226 3.486 3.726 3.926 4.096 4.246 4.326 4.346
2700.569 4.376 4.436 4.486 4.526 4.626 4.776 4.966 5.216 5.526 5.876
2739.148 6.316 6.946 7.716 8.646 9.826 11.266 12.976 14.976 17.386 20.306
2777.728 23.856 28.006 32.356 36.476 39.926 42.406 43.846 44.196 43.516 41.886
2816.308 39.776 37.786 36.236 35.176 34.556 34.296 34.276 34.456 34.666 34.786
2854.887 34.756 34.516 34.096 33.406 32.646 32.086 31.906 32.136 32.686 33.386
2893.467 34.046 34.596 35.006 35.236 35.296 35.296 35.346 35.586 36.066 36.766
2932.046 37.766 38.846 39.776 40.396 40.416 39.696 38.226 36.366 34.406 32.226
2970.626 29.536 26.466 23.576 20.926 18.146 15.166 12.336 10.036 8.246 6.876
3009.205 5.856 5.046 4.446 4.026 3.696 3.396 3.216 3.066 2.886 2.716
3047.785 2.596 2.516 2.396 2.256 2.176 2.076 1.986 1.916 1.806 1.656
3086.364 1.526 1.466 1.416 1.356 1.2569 1.1863 1.1068 1.0254 0.9922 0.9734
3124.944 0.9172 0.821 0.773 0.7482 0.7328 0.7258 0.6644 0.6572 0.6626 0.6059
3163.524 0.5599 0.5334 0.5178 0.4537 0.4178 0.38562 0.38877 0.41046 0.35032 0.32171
3202.103 0.32465 0.34308 0.35551 0.34515 0.36315 0.32745 0.2814 0.2816 0.2686 0.2902
3240.683 0.2354 0.209 0.2786 0.281 0.2426 0.194 0.183 0.2283 0.2279 0.223
3279.262 0.2251 0.189 0.153 0.153 0.175 0.177 0.142 0.142 0.136 0.137
3317.842 0.194 0.187 0.2202 0.31342 0.39333 0.4725 0.6184 0.7477 0.8773 1.0434
3356.421 1.1703 1.2489 1.1748 1.0965 0.9787 0.8151 0.6555 0.4697 0.39551 0.39639
3395.001 0.318273 0.2278 0.2667 0.2226 0.144 0.117 0.093 0.073 0.073 0.101
3433.580 0.139 0.157 0.113 0.071 0.081 0.106 0.093 0.047 0.04 0.094
3472.160 0.13 0.082 0.045 0.107 0.13 0.121 0.144 0.158 0.137 0.103
3510.740 0.07 0.082 0.125 0.095 0.056 0.08 0.148 0.131 0.044 0
3549.319 0.02 0.082 0.076 0.067 0.107 0.089 0.046 0.105 0.113 0.082
3587.899 0.144 0.112 0.061 0.065 0.082 0.101 0.078 0.042 0.02 0.013
3626.478 0.001 0.023 0.056 0.091 0.098 0.071 0.055 0.063 0.056 0.066
3665.058 0.025 0.016 0.099 0.099 0.078 0.039 0.064 0.123 0.11 0.086
3703.637 0.084 0.073 0.032 0.059 0.091 0.055 0.087 0.063 0.038 0.127
3742.217 0.126 0.088 0.082 0.048 0.004 0.051 0.076 0.041 0.068 0.101
3780.797 0.09 0.122 0.115 0.074 0.052 0.015 0.051 0.155 0.187 0.139
3819.376 0.019 0.006 0.128 0.126 0.105 0.11 0.062 0.039 0.12 0.151
3857.956 0.135 0.15 0.195 0.168 0.125 0.127 0.089 0.144 0.183 0.212
3896.535 0.2743 0.2613 0.2737 0.2788 0.2307 0.2519 0.33347 0.2707 0.2245 0.2899
3935.115 0.2507 0.2497 0.276 0.282 0.2706 0.2609 0.2631 0.320019 0.36049 0.3055
3973.694 0.33851 0.315616 0.2301 0.2914 0.2581 0.197 0.198 0.192
##END=
