##TITLE=1,4-BUTANEDINITRILE
##JCAMP-DX=4.24
##DATA TYPE=INFRARED SPECTRUM
##CLASS=COBLENTZ III
##ORIGIN=DOW CHEMICAL COMPANY
##OWNER=COBLENTZ SOCIETY
Collection (C) 2018 copyright by the U.S. Secretary of Commerce
on behalf of the United States of America. All rights reserved.
##DATE=1964/11/02
##NAMES=succinonitrile
SUCCINONITRILE
##CAS REGISTRY NO=110-61-2
##MOLFORM=C4 H4 N2
##SOURCE REFERENCE=COBLENTZ NO. 10256
##$NIST SOURCE=COBLENTZ
##$NIST IMAGE=cob10256
##SPECTROMETER/DATA SYSTEM=DOW KBr FOREPRISM-GRATING
##INSTRUMENT PARAMETERS=BLAZED AT 3.5, 12.0, 20.0 MICRON, CHANGED AT 5.0, 7.5, 14.9 MICRON
##STATE=LIQUID (NEAT)
##PATH LENGTH=SMEAR, KBr CRYSTALS
##SAMPLING PROCEDURE=TRANSMISSION
##RESOLUTION=4
##DATA PROCESSING=DIGITIZED BY NIST FROM HARD COPY (FROM TWO SEGMENTS)
##XUNITS=1/CM
##YUNITS=TRANSMITTANCE
##XFACTOR=1.000000
##YFACTOR=1
##DELTAX=0.851790
##FIRSTX=455.707
##LASTX=3794.72
##FIRSTY=0.901
##MAXX=3794.72
##MINX=455.707
##MAXY=0.994
##MINY=0.109
##NPOINTS=3921
##XYDATA=(X++(Y..Y))
455.707000 0.9010 0.9000 0.8980 0.8960 0.8920
459.965949 0.8880 0.8840 0.8800 0.8760 0.8720
464.224897 0.8700 0.8620 0.8570 0.8520 0.8450
468.483846 0.8370 0.8290 0.8200 0.8120 0.8011
472.742795 0.7900 0.7770 0.7640 0.7490 0.7330
477.001743 0.7151 0.6961 0.6880 0.6601 0.6391
481.260692 0.6250 0.6160 0.6150 0.6150 0.6170
485.519640 0.6270 0.6370 0.6599 0.6769 0.7068
489.778589 0.7430 0.8009 0.8399 0.8610 0.8780
494.037538 0.8939 0.9040 0.9130 0.9170 0.9220
498.296486 0.9250 0.9280 0.9290 0.9300 0.9320
502.555435 0.9320 0.9320 0.9330 0.9330 0.9340
506.814384 0.9340 0.9340 0.9340 0.9340 0.9340
511.073332 0.9330 0.9320 0.9320 0.9320 0.9300
515.332281 0.9290 0.9290 0.9290 0.9290 0.9290
519.591230 0.9300 0.9320 0.9320 0.9330 0.9330
523.850178 0.9320 0.9280 0.9250 0.9220 0.9170
528.109127 0.9130 0.9120 0.9090 0.9090 0.9130
532.368076 0.9180 0.9210 0.9260 0.9320 0.9340
536.627024 0.9380 0.9410 0.9420 0.9440 0.9440
540.885973 0.9460 0.9480 0.9480 0.9490 0.9490
545.144921 0.9490 0.9490 0.9490 0.9490 0.9490
549.403870 0.9490 0.9500 0.9500 0.9520 0.9520
553.662819 0.9520 0.9530 0.9530 0.9530 0.9530
557.921767 0.9520 0.9520 0.9530 0.9530 0.9520
562.180716 0.9520 0.9520 0.9520 0.9500 0.9500
566.439665 0.9500 0.9490 0.9480 0.9480 0.9450
570.698613 0.9440 0.9420 0.9410 0.9400 0.9400
574.957562 0.9400 0.9400 0.9400 0.9400 0.9400
579.216511 0.9400 0.9370 0.9370 0.9340 0.9340
583.475459 0.9340 0.9330 0.9330 0.9320 0.9280
587.734408 0.9250 0.9240 0.9180 0.9130 0.9090
591.993356 0.9010 0.8940 0.8900 0.8760 0.8580
596.252305 0.8400 0.8250 0.8041 0.7821 0.7243
600.511254 0.6730 0.6320 0.6080 0.5750 0.5161
604.770202 0.4901 0.4800 0.4800 0.4989 0.5119
609.029151 0.5290 0.6070 0.6749 0.6920 0.7199
613.288100 0.7798 0.8159 0.8409 0.8559 0.8699
617.547048 0.8780 0.8850 0.8900 0.8930 0.9000
621.805997 0.9050 0.9060 0.9100 0.9120 0.9130
626.064946 0.9160 0.9170 0.9200 0.9220 0.9250
630.323894 0.9320 0.9340 0.9360 0.9370 0.9410
634.582843 0.9440 0.9460 0.9490 0.9520 0.9540
638.841791 0.9560 0.9570 0.9600 0.9620 0.9640
643.100740 0.9660 0.9680 0.9690 0.9700 0.9720
647.359689 0.9740 0.9760 0.9770 0.9800 0.9800
651.618637 0.9800 0.9810 0.9810 0.9820 0.9820
655.877586 0.9840 0.9840 0.9850 0.9850 0.9860
660.136535 0.9860 0.9880 0.9880 0.9880 0.9890
664.395483 0.9890 0.9890 0.9890 0.9900 0.9900
668.654432 0.9900 0.9900 0.9920 0.9920 0.9920
672.913381 0.9920 0.9920 0.9930 0.9930 0.9930
677.172329 0.9930 0.9930 0.9930 0.9930 0.9930
681.431278 0.9930 0.9930 0.9930 0.9930 0.9930
685.690227 0.9930 0.9930 0.9930 0.9920 0.9920
689.949175 0.9920 0.9920 0.9920 0.9900 0.9880
694.208124 0.9880 0.9860 0.9860 0.9860 0.9840
698.467072 0.9840 0.9810 0.9800 0.9770 0.9730
702.726021 0.9690 0.9640 0.9610 0.9580 0.9570
706.984970 0.9540 0.9440 0.9400 0.9300 0.9200
711.243918 0.9100 0.8960 0.8920 0.8820 0.8780
715.502867 0.8760 0.8730 0.8760 0.8770 0.8780
719.761816 0.8810 0.8890 0.8920 0.8940 0.9000
724.020764 0.9050 0.9120 0.9140 0.9160 0.9170
728.279713 0.9180 0.9200 0.9200 0.9200 0.9180
732.538662 0.9160 0.9130 0.9120 0.9060 0.9010
736.797610 0.8940 0.8920 0.8880 0.8800 0.8700
741.056559 0.8610 0.8540 0.8480 0.8410 0.8330
745.315507 0.8250 0.8220 0.8220 0.8220 0.8220
749.574456 0.8240 0.8240 0.8240 0.8240 0.8210
753.833405 0.8160 0.8120 0.8020 0.7960 0.7820
758.092353 0.7740 0.7650 0.7321 0.7081 0.6722
762.351302 0.6450 0.6360 0.6360 0.6410 0.6470
766.610251 0.6610 0.6789 0.6999 0.7289 0.7599
770.869199 0.7800 0.7980 0.8120 0.8160 0.8220
775.128148 0.8330 0.8370 0.8420 0.8500 0.8530
779.387097 0.8580 0.8620 0.8690 0.8730 0.8780
783.646045 0.8840 0.8920 0.8940 0.8980 0.9040
787.904994 0.9120 0.9130 0.9160 0.9170 0.9180
792.163942 0.9180 0.9200 0.9200 0.9180 0.9180
796.422891 0.9170 0.9160 0.9140 0.9100 0.9060
800.681840 0.9020 0.8980 0.8930 0.8900 0.8761
804.940788 0.8690 0.8530 0.8340 0.8240 0.8090
809.199737 0.7890 0.7661 0.7251 0.7001 0.6920
813.458686 0.6810 0.6750 0.6670 0.6610 0.6550
817.717634 0.6470 0.6370 0.6230 0.6170 0.6210
821.976583 0.6250 0.6320 0.6450 0.6610 0.6920
826.235532 0.7249 0.7469 0.7899 0.8020 0.8418
830.494480 0.8700 0.8920 0.8960 0.9040 0.9120
834.753429 0.9160 0.9220 0.9260 0.9330 0.9340
839.012378 0.9370 0.9400 0.9440 0.9480 0.9530
843.271326 0.9560 0.9580 0.9620 0.9650 0.9660
847.530275 0.9700 0.9730 0.9770 0.9780 0.9810
851.789223 0.9820 0.9840 0.9850 0.9850 0.9860
856.048172 0.9860 0.9860 0.9880 0.9880 0.9880
860.307121 0.9890 0.9900 0.9900 0.9900 0.9900
864.566069 0.9900 0.9900 0.9900 0.9900 0.9900
868.825018 0.9900 0.9890 0.9890 0.9890 0.9900
873.083967 0.9900 0.9900 0.9900 0.9900 0.9900
877.342915 0.9900 0.9900 0.9890 0.9890 0.9890
881.601864 0.9890 0.9890 0.9890 0.9890 0.9890
885.860813 0.9890 0.9890 0.9880 0.9880 0.9880
890.119761 0.9880 0.9860 0.9860 0.9850 0.9840
894.378710 0.9820 0.9820 0.9810 0.9800 0.9810
898.637658 0.9810 0.9800 0.9770 0.9740 0.9700
902.896607 0.9680 0.9650 0.9600 0.9560 0.9480
907.155556 0.9410 0.9340 0.9320 0.9260 0.9120
911.414504 0.8851 0.8730 0.8561 0.8201 0.7852
915.673453 0.7620 0.6800 0.6450 0.6320 0.6470
919.932402 0.6630 0.7268 0.7838 0.8119 0.8608
924.191350 0.8780 0.8940 0.9130 0.9240 0.9340
928.450299 0.9410 0.9460 0.9500 0.9560 0.9560
932.709248 0.9570 0.9570 0.9570 0.9570 0.9560
936.968196 0.9540 0.9540 0.9540 0.9500 0.9450
941.227145 0.9420 0.9370 0.9340 0.9330 0.9250
945.486093 0.9200 0.9140 0.9120 0.9050 0.9000
949.745042 0.8920 0.8760 0.8540 0.8340 0.8170
954.003991 0.7980 0.7850 0.7720 0.7271 0.6652
958.262939 0.6109 0.5530 0.4960 0.4390 0.3821
962.521888 0.3231 0.3230 0.3709 0.3989 0.4199
966.780837 0.4901 0.6160 0.6430 0.7160 0.7809
971.039785 0.8159 0.8479 0.8520 0.8610 0.8730
975.298734 0.8820 0.8920 0.8960 0.9010 0.9050
979.557683 0.9090 0.9120 0.9130 0.9130 0.9130
983.816631 0.9120 0.9120 0.9060 0.9020 0.8980
988.075580 0.8960 0.8930 0.8850 0.8740 0.8680
992.334529 0.8500 0.8360 0.8130 0.7960 0.7581
996.593477 0.7311 0.6761 0.6242 0.5732 0.5232
1000.852426 0.4680 0.3990 0.3630 0.3630 0.3880
1005.111374 0.4159 0.4589 0.5238 0.6206 0.6429
1009.370323 0.6690 0.7880 0.8400 0.8520 0.8610
1013.629272 0.8720 0.8800 0.8920 0.8970 0.9050
1017.888220 0.9090 0.9120 0.9120 0.9120 0.9100
1022.147169 0.9100 0.9100 0.9080 0.9080 0.9060
1026.406118 0.9050 0.9050 0.9060 0.9080 0.9130
1030.665066 0.9170 0.9250 0.9280 0.9320 0.9340
1034.924015 0.9370 0.9400 0.9420 0.9450 0.9460
1039.182964 0.9490 0.9500 0.9540 0.9560 0.9560
1043.441912 0.9560 0.9570 0.9580 0.9610 0.9620
1047.700861 0.9640 0.9650 0.9650 0.9660 0.9680
1051.959809 0.9690 0.9700 0.9720 0.9730 0.9730
1056.218758 0.9730 0.9730 0.9730 0.9730 0.9730
1060.477707 0.9740 0.9740 0.9740 0.9740 0.9740
1064.736655 0.9740 0.9740 0.9740 0.9740 0.9730
1068.995604 0.9730 0.9730 0.9730 0.9720 0.9720
1073.254553 0.9720 0.9700 0.9700 0.9720 0.9720
1077.513501 0.9720 0.9720 0.9720 0.9720 0.9730
1081.772450 0.9740 0.9760 0.9760 0.9770 0.9770
1086.031399 0.9770 0.9780 0.9780 0.9780 0.9800
1090.290347 0.9800 0.9810 0.9820 0.9840 0.9850
1094.549296 0.9850 0.9850 0.9850 0.9860 0.9860
1098.808245 0.9860 0.9880 0.9880 0.9880 0.9880
1103.067193 0.9880 0.9880 0.9880 0.9880 0.9880
1107.326142 0.9880 0.9880 0.9860 0.9860 0.9860
1111.585090 0.9860 0.9860 0.9860 0.9860 0.9860
1115.844039 0.9860 0.9860 0.9860 0.9850 0.9850
1120.102988 0.9850 0.9850 0.9850 0.9860 0.9860
1124.361936 0.9860 0.9860 0.9860 0.9860 0.9880
1128.620885 0.9880 0.9880 0.9860 0.9850 0.9850
1132.879834 0.9850 0.9850 0.9850 0.9840 0.9810
1137.138782 0.9810 0.9800 0.9800 0.9780 0.9770
1141.397731 0.9770 0.9760 0.9770 0.9770 0.9780
1145.656680 0.9780 0.9780 0.9780 0.9780 0.9770
1149.915628 0.9770 0.9780 0.9770 0.9770 0.9770
1154.174577 0.9770 0.9760 0.9740 0.9740 0.9740
1158.433525 0.9730 0.9730 0.9700 0.9690 0.9690
1162.692474 0.9690 0.9680 0.9680 0.9660 0.9650
1166.951423 0.9640 0.9620 0.9600 0.9580 0.9560
1171.210371 0.9560 0.9560 0.9540 0.9500 0.9460
1175.469320 0.9440 0.9410 0.9400 0.9360 0.9340
1179.728269 0.9300 0.9280 0.9280 0.9280 0.9260
1183.987217 0.9260 0.9240 0.9200 0.9160 0.9130
1188.246166 0.9060 0.9040 0.8940 0.8850 0.8720
1192.505115 0.8570 0.8520 0.8340 0.8171 0.7861
1196.764063 0.7660 0.7600 0.7580 0.7600 0.7650
1201.023012 0.7850 0.7890 0.8000 0.8160 0.8299
1205.281960 0.8440 0.8530 0.8600 0.8650 0.8720
1209.540909 0.8740 0.8770 0.8800 0.8810 0.8810
1213.799858 0.8800 0.8780 0.8760 0.8740 0.8740
1218.058806 0.8730 0.8720 0.8640 0.8560 0.8480
1222.317755 0.8360 0.8290 0.8130 0.8010 0.7890
1226.576704 0.7760 0.7580 0.7331 0.7171 0.6802
1230.835652 0.6710 0.6610 0.6600 0.6630 0.6730
1235.094601 0.6880 0.6970 0.7159 0.7329 0.7489
1239.353550 0.7680 0.8220 0.8380 0.8560 0.8620
1243.612498 0.8700 0.8760 0.8820 0.8860 0.8920
1247.871447 0.8920 0.8940 0.8960 0.8970 0.8980
1252.130396 0.8980 0.9000 0.9000 0.9010 0.9000
1256.389344 0.8980 0.8970 0.8960 0.8940 0.8930
1260.648293 0.8920 0.8920 0.8860 0.8840 0.8770
1264.907241 0.8720 0.8640 0.8570 0.8520 0.8400
1269.166190 0.8330 0.8160 0.8100 0.7960 0.7940
1273.425139 0.7960 0.8100 0.8160 0.8320 0.8480
1277.684087 0.8540 0.8680 0.8690 0.8800 0.8820
1281.943036 0.8900 0.8920 0.8920 0.8930 0.8930
1286.201985 0.8940 0.8960 0.8960 0.8970 0.8970
1290.460933 0.8970 0.8960 0.8960 0.8960 0.8960
1294.719882 0.8960 0.8960 0.8940 0.8940 0.8930
1298.978831 0.8920 0.8920 0.8890 0.8890 0.8880
1303.237779 0.8860 0.8850 0.8840 0.8810 0.8800
1307.496728 0.8770 0.8740 0.8730 0.8660 0.8620
1311.755676 0.8560 0.8540 0.8490 0.8410 0.8330
1316.014625 0.8210 0.8050 0.7940 0.7850 0.7730
1320.273574 0.7690 0.7690 0.7700 0.7700 0.7690
1324.532522 0.7660 0.7610 0.7580 0.7450 0.7320
1328.791471 0.7200 0.6960 0.6720 0.6680 0.6610
1333.050420 0.6350 0.6170 0.5950 0.5570 0.5270
1337.309368 0.5110 0.5030 0.5000 0.4990 0.5000
1341.568317 0.5390 0.5670 0.5890 0.6290 0.6530
1345.827266 0.7109 0.7330 0.7609 0.7899 0.7980
1350.086214 0.8080 0.8140 0.8200 0.8210 0.8220
1354.345163 0.8250 0.8260 0.8280 0.8290 0.8290
1358.604111 0.8320 0.8320 0.8330 0.8340 0.8360
1362.863060 0.8370 0.8380 0.8380 0.8380 0.8380
1367.122009 0.8370 0.8360 0.8340 0.8340 0.8330
1371.380957 0.8320 0.8300 0.8300 0.8240 0.8200
1375.639906 0.8170 0.8130 0.8060 0.8010 0.7980
1379.898855 0.7960 0.7800 0.7690 0.7600 0.7500
1384.157803 0.7430 0.7360 0.7320 0.7280 0.7250
1388.416752 0.7200 0.7200 0.7110 0.7040 0.6960
1392.675701 0.6920 0.6870 0.6800 0.6760 0.6710
1396.934649 0.6670 0.6630 0.6610 0.6530 0.6450
1401.193598 0.6320 0.6210 0.6160 0.6040 0.5910
1405.452547 0.5760 0.5630 0.5441 0.5291 0.5200
1409.711495 0.4829 0.4520 0.4220 0.3790 0.3630
1413.970444 0.3240 0.2911 0.2581 0.2391 0.2250
1418.229392 0.2110 0.2020 0.1900 0.1650 0.1550
1422.488341 0.1450 0.1310 0.1270 0.1260 0.1270
1426.747290 0.1310 0.1370 0.1390 0.1460 0.1580
1431.006238 0.1670 0.1670 0.1730 0.1750 0.1770
1435.265187 0.1810 0.1850 0.1990 0.2050 0.2130
1439.524136 0.2420 0.2680 0.3059 0.3190 0.3429
1443.783084 0.3630 0.3900 0.4200 0.4520 0.4790
1448.042033 0.5050 0.5240 0.5689 0.6039 0.6249
1452.300982 0.6450 0.6610 0.6850 0.7030 0.7170
1456.559930 0.7320 0.7450 0.7540 0.7640 0.7740
1460.818879 0.7820 0.7890 0.7960 0.7980 0.8020
1465.077827 0.8060 0.8130 0.8160 0.8200 0.8240
1469.336776 0.8280 0.8320 0.8330 0.8410 0.8420
1473.595725 0.8460 0.8500 0.8530 0.8560 0.8580
1477.854673 0.8610 0.8640 0.8700 0.8720 0.8770
1482.113622 0.8810 0.8820 0.8850 0.8920 0.8920
1486.372571 0.8930 0.8940 0.8980 0.9000 0.9010
1490.631519 0.9040 0.9050 0.9050 0.9060 0.9080
1494.890468 0.9080 0.9090 0.9090 0.9120 0.9120
1499.149417 0.9120 0.9130 0.9140 0.9140 0.9140
1503.408365 0.9140 0.9140 0.9160 0.9180 0.9200
1507.667314 0.9210 0.9240 0.9250 0.9280 0.9330
1511.926262 0.9340 0.9340 0.9360 0.9360 0.9380
1516.185211 0.9410 0.9410 0.9420 0.9440 0.9440
1520.444160 0.9450 0.9460 0.9480 0.9480 0.9490
1524.703108 0.9500 0.9520 0.9520 0.9530 0.9530
1528.962057 0.9530 0.9560 0.9560 0.9570 0.9570
1533.221006 0.9570 0.9570 0.9580 0.9580 0.9580
1537.479954 0.9580 0.9580 0.9580 0.9600 0.9600
1541.738903 0.9600 0.9580 0.9580 0.9580 0.9580
1545.997852 0.9580 0.9580 0.9570 0.9570 0.9560
1550.256800 0.9540 0.9460 0.9420 0.9380 0.9370
1554.515749 0.9340 0.9330 0.9320 0.9300 0.9300
1558.774698 0.9300 0.9300 0.9320 0.9330 0.9360
1563.033646 0.9370 0.9410 0.9420 0.9460 0.9490
1567.292595 0.9520 0.9560 0.9570 0.9580 0.9580
1571.551543 0.9580 0.9600 0.9600 0.9610 0.9610
1575.810492 0.9620 0.9620 0.9610 0.9610 0.9600
1580.069441 0.9600 0.9580 0.9570 0.9570 0.9560
1584.328389 0.9560 0.9560 0.9540 0.9530 0.9530
1588.587338 0.9520 0.9520 0.9520 0.9530 0.9540
1592.846287 0.9560 0.9560 0.9570 0.9580 0.9580
1597.105235 0.9600 0.9610 0.9610 0.9620 0.9640
1601.364184 0.9640 0.9650 0.9650 0.9650 0.9660
1605.623133 0.9660 0.9680 0.9680 0.9680 0.9680
1609.882081 0.9680 0.9680 0.9680 0.9680 0.9680
1614.141030 0.9680 0.9680 0.9680 0.9660 0.9660
1618.399978 0.9660 0.9660 0.9660 0.9660 0.9660
1622.658927 0.9660 0.9660 0.9680 0.9680 0.9700
1626.917876 0.9700 0.9720 0.9720 0.9720 0.9730
1631.176824 0.9740 0.9760 0.9770 0.9770 0.9780
1635.435773 0.9810 0.9820 0.9840 0.9850 0.9850
1639.694722 0.9860 0.9860 0.9880 0.9890 0.9890
1643.953670 0.9890 0.9890 0.9890 0.9890 0.9880
1648.212619 0.9880 0.9860 0.9850 0.9850 0.9850
1652.471568 0.9840 0.9840 0.9820 0.9810 0.9800
1656.730516 0.9800 0.9800 0.9800 0.9780 0.9780
1660.989465 0.9780 0.9780 0.9770 0.9770 0.9770
1665.248414 0.9770 0.9780 0.9780 0.9780 0.9780
1669.507362 0.9780 0.9800 0.9800 0.9810 0.9820
1673.766311 0.9840 0.9840 0.9850 0.9850 0.9850
1678.025259 0.9840 0.9820 0.9840 0.9850 0.9850
1682.284208 0.9860 0.9860 0.9860 0.9860 0.9850
1686.543157 0.9850 0.9860 0.9880 0.9880 0.9880
1690.802105 0.9860 0.9860 0.9860 0.9880 0.9880
1695.061054 0.9880 0.9880 0.9880 0.9880 0.9880
1699.320003 0.9880 0.9880 0.9860 0.9860 0.9860
1703.578951 0.9850 0.9850 0.9850 0.9850 0.9850
1707.837900 0.9840 0.9840 0.9820 0.9810 0.9810
1712.096849 0.9810 0.9810 0.9800 0.9800 0.9800
1716.355797 0.9800 0.9800 0.9810 0.9810 0.9820
1720.614746 0.9820 0.9840 0.9850 0.9860 0.9880
1724.873694 0.9880 0.9890 0.9890 0.9900 0.9900
1729.132643 0.9900 0.9900 0.9900 0.9900 0.9900
1733.391592 0.9900 0.9900 0.9900 0.9900 0.9900
1737.650540 0.9920 0.9920 0.9920 0.9920 0.9900
1741.909489 0.9900 0.9900 0.9900 0.9900 0.9900
1746.168438 0.9900 0.9900 0.9900 0.9900 0.9900
1750.427386 0.9900 0.9900 0.9900 0.9900 0.9900
1754.686335 0.9890 0.9890 0.9880 0.9880 0.9880
1758.945284 0.9880 0.9880 0.9880 0.9860 0.9860
1763.204232 0.9850 0.9850 0.9850 0.9850 0.9840
1767.463181 0.9820 0.9820 0.9810 0.9800 0.9780
1771.722129 0.9780 0.9770 0.9760 0.9760 0.9740
1775.981078 0.9740 0.9740 0.9740 0.9730 0.9720
1780.240027 0.9720 0.9720 0.9720 0.9730 0.9720
1784.498975 0.9720 0.9720 0.9720 0.9720 0.9700
1788.757924 0.9700 0.9700 0.9720 0.9720 0.9720
1793.016873 0.9720 0.9720 0.9720 0.9730 0.9730
1797.275821 0.9740 0.9740 0.9740 0.9760 0.9760
1801.534770 0.9760 0.9740 0.9730 0.9720 0.9700
1805.793719 0.9700 0.9690 0.9690 0.9680 0.9680
1810.052667 0.9660 0.9660 0.9650 0.9640 0.9640
1814.311616 0.9620 0.9620 0.9610 0.9610 0.9610
1818.570565 0.9600 0.9600 0.9610 0.9610 0.9620
1822.829513 0.9640 0.9660 0.9680 0.9690 0.9700
1827.088462 0.9720 0.9730 0.9730 0.9730 0.9740
1831.347410 0.9760 0.9770 0.9770 0.9770 0.9780
1835.606359 0.9780 0.9780 0.9780 0.9780 0.9780
1839.865308 0.9780 0.9800 0.9820 0.9840 0.9850
1844.124256 0.9850 0.9850 0.9850 0.9850 0.9860
1848.383205 0.9860 0.9860 0.9860 0.9850 0.9840
1852.642154 0.9840 0.9820 0.9820 0.9810 0.9800
1856.901102 0.9800 0.9800 0.9800 0.9800 0.9810
1861.160051 0.9810 0.9820 0.9840 0.9850 0.9860
1865.419000 0.9860 0.9860 0.9860 0.9860 0.9880
1869.677948 0.9880 0.9890 0.9890 0.9900 0.9900
1873.936897 0.9900 0.9900 0.9900 0.9900 0.9900
1878.195845 0.9900 0.9900 0.9900 0.9900 0.9900
1882.454794 0.9900 0.9900 0.9900 0.9900 0.9900
1886.713743 0.9900 0.9900 0.9890 0.9890 0.9890
1890.972691 0.9880 0.9860 0.9860 0.9860 0.9860
1895.231640 0.9850 0.9850 0.9860 0.9860 0.9850
1899.490589 0.9850 0.9850 0.9850 0.9850 0.9840
1903.749537 0.9840 0.9840 0.9840 0.9840 0.9840
1908.008486 0.9820 0.9810 0.9810 0.9810 0.9800
1912.267435 0.9800 0.9800 0.9780 0.9780 0.9740
1916.526383 0.9720 0.9690 0.9680 0.9680 0.9660
1920.785332 0.9650 0.9660 0.9660 0.9690 0.9700
1925.044280 0.9720 0.9730 0.9740 0.9770 0.9770
1929.303229 0.9770 0.9780 0.9800 0.9800 0.9810
1933.562178 0.9810 0.9810 0.9840 0.9840 0.9840
1937.821126 0.9850 0.9850 0.9850 0.9850 0.9840
1942.080075 0.9840 0.9840 0.9820 0.9820 0.9840
1946.339024 0.9840 0.9850 0.9850 0.9850 0.9850
1950.597972 0.9860 0.9860 0.9850 0.9850 0.9820
1954.856921 0.9800 0.9770 0.9770 0.9780 0.9800
1959.115870 0.9810 0.9840 0.9850 0.9860 0.9860
1963.374818 0.9850 0.9860 0.9860 0.9880 0.9880
1967.633767 0.9880 0.9880 0.9880 0.9880 0.9880
1971.892716 0.9880 0.9880 0.9880 0.9860 0.9860
1976.151664 0.9850 0.9850 0.9850 0.9850 0.9840
1980.410613 0.9820 0.9810 0.9810 0.9810 0.9810
1984.669561 0.9810 0.9800 0.9800 0.9800 0.9800
1988.928510 0.9800 0.9800 0.9810 0.9810 0.9810
1993.187459 0.9820 0.9820 0.9820 0.9820 0.9820
1997.446407 0.9820 0.9820 0.9820 0.9810 0.9810
2001.705356 0.9810 0.9795 0.9780 0.9780 0.9780
2005.964305 0.9780 0.9780 0.9775 0.9770 0.9770
2010.223253 0.9770 0.9770 0.9770 0.9755 0.9740
2014.482202 0.9735 0.9730 0.9730 0.9730 0.9730
2018.741151 0.9730 0.9730 0.9730 0.9730 0.9730
2023.000099 0.9730 0.9730 0.9730 0.9730 0.9730
2027.259048 0.9730 0.9730 0.9730 0.9730 0.9730
2031.517996 0.9730 0.9730 0.9725 0.9720 0.9710
2035.776945 0.9700 0.9690 0.9680 0.9665 0.9650
2040.035894 0.9631 0.9611 0.9605 0.9600 0.9590
2044.294842 0.9580 0.9580 0.9580 0.9580 0.9580
2048.553791 0.9580 0.9580 0.9590 0.9600 0.9619
2052.812740 0.9639 0.9650 0.9660 0.9660 0.9660
2057.071688 0.9674 0.9689 0.9695 0.9700 0.9710
2061.330637 0.9720 0.9725 0.9730 0.9735 0.9740
2065.589586 0.9749 0.9759 0.9765 0.9770 0.9775
2069.848534 0.9780 0.9790 0.9800 0.9800 0.9800
2074.107483 0.9800 0.9800 0.9800 0.9800 0.9800
2078.366431 0.9800 0.9805 0.9810 0.9815 0.9820
2082.625380 0.9829 0.9839 0.9845 0.9850 0.9850
2086.884329 0.9850 0.9850 0.9850 0.9850 0.9850
2091.143277 0.9855 0.9860 0.9860 0.9860 0.9860
2095.402226 0.9860 0.9860 0.9860 0.9860 0.9860
2099.661175 0.9860 0.9860 0.9860 0.9860 0.9860
2103.920123 0.9860 0.9860 0.9860 0.9860 0.9860
2108.179072 0.9860 0.9860 0.9855 0.9850 0.9845
2112.438021 0.9840 0.9831 0.9821 0.9815 0.9810
2116.696969 0.9810 0.9810 0.9805 0.9800 0.9800
2120.955918 0.9800 0.9786 0.9771 0.9770 0.9770
2125.214867 0.9770 0.9770 0.9770 0.9770 0.9765
2129.473815 0.9760 0.9751 0.9741 0.9731 0.9721
2133.732764 0.9711 0.9701 0.9700 0.9700 0.9695
2137.991712 0.9690 0.9685 0.9680 0.9666 0.9651
2142.250661 0.9646 0.9641 0.9631 0.9621 0.9616
2146.509610 0.9611 0.9610 0.9610 0.9606 0.9601
2150.768558 0.9591 0.9581 0.9580 0.9580 0.9576
2155.027507 0.9571 0.9570 0.9570 0.9574 0.9579
2159.286456 0.9580 0.9580 0.9589 0.9599 0.9604
2163.545404 0.9609 0.9610 0.9610 0.9610 0.9610
2167.804353 0.9610 0.9610 0.9610 0.9610 0.9606
2172.063302 0.9601 0.9587 0.9572 0.9566 0.9561
2176.322250 0.9547 0.9532 0.9508 0.9483 0.9471
2180.581199 0.9461 0.9460 0.9460 0.9456 0.9451
2184.840147 0.9450 0.9450 0.9450 0.9450 0.9450
2189.099096 0.9450 0.9450 0.9450 0.9450 0.9450
2193.358045 0.9446 0.9441 0.9427 0.9412 0.9410
2197.616993 0.9410 0.9397 0.9382 0.9329 0.9269
2201.875942 0.9192 0.9112 0.9040 0.8969 0.8878
2206.134891 0.8783 0.8770 0.8770 0.8852 0.8946
2210.393839 0.9046 0.9145 0.9186 0.9216 0.9237
2214.652788 0.9257 0.9252 0.9242 0.9215 0.9185
2218.911737 0.9146 0.9106 0.9066 0.9026 0.8969
2223.170685 0.8909 0.8832 0.8752 0.8668 0.8583
2227.429634 0.8540 0.8506 0.8441 0.8371 0.8318
2231.688583 0.8268 0.8252 0.8242 0.8207 0.8167
2235.947531 0.8110 0.8050 0.7998 0.7948 0.7856
2240.206480 0.7756 0.7627 0.7492 0.7257 0.7002
2244.465428 0.6839 0.6694 0.6529 0.6359 0.5445
2248.724377 0.4376 0.3201 0.2003 0.1700 0.1590
2252.983326 0.1406 0.1207 0.1137 0.1097 0.1090
2257.242274 0.1090 0.1181 0.1291 0.1566 0.1875
2261.501223 0.2222 0.2576 0.2763 0.2913 0.3307
2265.760172 0.3756 0.3962 0.4112 0.4796 0.5604
2270.019120 0.5998 0.6292 0.6431 0.6532 0.6550
2274.278069 0.6550 0.6538 0.6523 0.6508 0.6493
2278.537018 0.6449 0.6400 0.6362 0.6327 0.6320
2282.795966 0.6320 0.6448 0.6608 0.6716 0.6811
2287.054915 0.6977 0.7162 0.7408 0.7670 0.7833
2291.313863 0.7973 0.8016 0.8036 0.8044 0.8049
2295.572812 0.8050 0.8050 0.8050 0.8050 0.8054
2299.831761 0.8059 0.8060 0.8060 0.8072 0.8087
2304.090709 0.8110 0.8135 0.8172 0.8212 0.8268
2308.349658 0.8328 0.8495 0.8690 0.8861 0.9025
2312.608607 0.9076 0.9096 0.9108 0.9118 0.9120
2316.867555 0.9120 0.9120 0.9120 0.9120 0.9120
2321.126504 0.9128 0.9138 0.9156 0.9176 0.9192
2325.385453 0.9207 0.9226 0.9246 0.9277 0.9312
2329.644401 0.9324 0.9329 0.9342 0.9357 0.9364
2333.903350 0.9369 0.9370 0.9370 0.9374 0.9379
2338.162298 0.9391 0.9406 0.9414 0.9419 0.9428
2342.421247 0.9438 0.9440 0.9440 0.9440 0.9440
2346.680196 0.9455 0.9475 0.9488 0.9498 0.9511
2350.939144 0.9526 0.9534 0.9539 0.9540 0.9540
2355.198093 0.9547 0.9557 0.9552 0.9542 0.9548
2359.457042 0.9558 0.9560 0.9560 0.9560 0.9560
2363.715990 0.9560 0.9560 0.9560 0.9560 0.9560
2367.974939 0.9560 0.9553 0.9543 0.9533 0.9523
2372.233888 0.9509 0.9494 0.9486 0.9481 0.9465
2376.492836 0.9445 0.9433 0.9423 0.9383 0.9333
2380.751785 0.9275 0.9216 0.9185 0.9165 0.9153
2385.010734 0.9143 0.9147 0.9157 0.9167 0.9177
2389.269682 0.9191 0.9206 0.9214 0.9219 0.9231
2393.528631 0.9246 0.9250 0.9250 0.9265 0.9285
2397.787579 0.9301 0.9316 0.9324 0.9329 0.9334
2402.046528 0.9339 0.9340 0.9340 0.9340 0.9340
2406.305477 0.9333 0.9323 0.9309 0.9294 0.9275
2410.564425 0.9255 0.9235 0.9216 0.9192 0.9167
2414.823374 0.9149 0.9134 0.9105 0.9070 0.9017
2419.082323 0.8957 0.8894 0.8829 0.8768 0.8708
2423.341271 0.8651 0.8596 0.8587 0.8597 0.8607
2427.600220 0.8617 0.8656 0.8706 0.8738 0.8763
2431.859169 0.8802 0.8847 0.8888 0.8928 0.8947
2436.118117 0.8957 0.8967 0.8977 0.8987 0.8997
2440.377066 0.9007 0.9017 0.9030 0.9046 0.9061
2444.636014 0.9076 0.9080 0.9080 0.9094 0.9114
2448.894963 0.9123 0.9128 0.9144 0.9164 0.9184
2453.153912 0.9204 0.9220 0.9235 0.9247 0.9257
2457.412860 0.9280 0.9310 0.9327 0.9337 0.9350
2461.671809 0.9365 0.9384 0.9404 0.9420 0.9435
2465.930758 0.9443 0.9448 0.9453 0.9458 0.9460
2470.189706 0.9460 0.9470 0.9485 0.9493 0.9498
2474.448655 0.9500 0.9500 0.9500 0.9500 0.9500
2478.707604 0.9500 0.9500 0.9500 0.9507 0.9517
2482.966552 0.9520 0.9520 0.9520 0.9520 0.9520
2487.225501 0.9520 0.9520 0.9520 0.9523 0.9528
2491.484449 0.9533 0.9538 0.9540 0.9540 0.9547
2495.743398 0.9557 0.9553 0.9543 0.9540 0.9540
2500.002347 0.9540 0.9540 0.9537 0.9532 0.9530
2504.261295 0.9530 0.9520 0.9505 0.9493 0.9484
2508.520244 0.9470 0.9455 0.9437 0.9417 0.9407
2512.779193 0.9402 0.9387 0.9367 0.9360 0.9360
2517.038141 0.9360 0.9360 0.9354 0.9344 0.9340
2521.297090 0.9340 0.9340 0.9340 0.9346 0.9356
2525.556039 0.9360 0.9360 0.9360 0.9360 0.9360
2529.814987 0.9360 0.9360 0.9360 0.9360 0.9360
2534.073936 0.9360 0.9360 0.9360 0.9360 0.9360
2538.332885 0.9360 0.9354 0.9344 0.9337 0.9332
2542.591833 0.9330 0.9330 0.9314 0.9289 0.9270
2546.850782 0.9255 0.9247 0.9242 0.9231 0.9216
2551.109730 0.9194 0.9169 0.9151 0.9136 0.9121
2555.368679 0.9106 0.9100 0.9100 0.9097 0.9092
2559.627628 0.9093 0.9098 0.9109 0.9124 0.9143
2563.886576 0.9163 0.9179 0.9194 0.9212 0.9232
2568.145525 0.9246 0.9256 0.9282 0.9316 0.9339
2572.404474 0.9354 0.9372 0.9392 0.9403 0.9408
2576.663422 0.9413 0.9418 0.9426 0.9436 0.9443
2580.922371 0.9448 0.9450 0.9450 0.9450 0.9450
2585.181320 0.9450 0.9450 0.9450 0.9450 0.9447
2589.440268 0.9442 0.9440 0.9440 0.9434 0.9424
2593.699217 0.9417 0.9412 0.9401 0.9386 0.9368
2597.958165 0.9348 0.9337 0.9332 0.9309 0.9274
2602.217114 0.9242 0.9212 0.9176 0.9136 0.9108
2606.476063 0.9088 0.9062 0.9032 0.9014 0.9004
2610.735011 0.8994 0.8984 0.8986 0.8996 0.9006
2614.993960 0.9016 0.9032 0.9052 0.9078 0.9108
2619.252909 0.9123 0.9128 0.9139 0.9154 0.9163
2623.511857 0.9168 0.9170 0.9170 0.9170 0.9170
2627.770806 0.9170 0.9170 0.9167 0.9162 0.9154
2632.029755 0.9144 0.9137 0.9132 0.9130 0.9130
2636.288703 0.9127 0.9122 0.9114 0.9104 0.9097
2640.547652 0.9092 0.9090 0.9090 0.9090 0.9090
2644.806601 0.9093 0.9098 0.9097 0.9092 0.9090
2649.065549 0.9090 0.9087 0.9082 0.9080 0.9080
2653.324498 0.9080 0.9080 0.9083 0.9088 0.9090
2657.583446 0.9090 0.9090 0.9090 0.9090 0.9090
2661.842395 0.9093 0.9098 0.9105 0.9116 0.9123
2666.101344 0.9128 0.9133 0.9138 0.9157 0.9187
2670.360292 0.9214 0.9239 0.9261 0.9281 0.9301
2674.619241 0.9321 0.9333 0.9338 0.9356 0.9386
2678.878190 0.9411 0.9431 0.9443 0.9448 0.9450
2683.137138 0.9450 0.9450 0.9450 0.9453 0.9458
2687.396087 0.9460 0.9460 0.9460 0.9460 0.9460
2691.655036 0.9460 0.9460 0.9460 0.9460 0.9460
2695.913984 0.9460 0.9460 0.9460 0.9460 0.9465
2700.172933 0.9475 0.9483 0.9488 0.9493 0.9498
2704.431881 0.9500 0.9500 0.9497 0.9492 0.9490
2708.690830 0.9490 0.9490 0.9490 0.9490 0.9490
2712.949779 0.9490 0.9490 0.9493 0.9498 0.9497
2717.208727 0.9492 0.9482 0.9467 0.9455 0.9445
2721.467676 0.9432 0.9417 0.9402 0.9387 0.9377
2725.726625 0.9372 0.9367 0.9362 0.9360 0.9360
2729.985573 0.9360 0.9360 0.9360 0.9360 0.9360
2734.244522 0.9360 0.9360 0.9360 0.9360 0.9360
2738.503471 0.9360 0.9360 0.9360 0.9360 0.9355
2742.762419 0.9345 0.9340 0.9340 0.9338 0.9333
2747.021368 0.9328 0.9323 0.9315 0.9305 0.9290
2751.280316 0.9270 0.9258 0.9253 0.9250 0.9250
2755.539265 0.9248 0.9243 0.9235 0.9225 0.9220
2759.798214 0.9220 0.9218 0.9213 0.9210 0.9210
2764.057162 0.9210 0.9210 0.9210 0.9210 0.9212
2768.316111 0.9217 0.9225 0.9235 0.9240 0.9240
2772.575060 0.9240 0.9240 0.9242 0.9247 0.9257
2776.834008 0.9272 0.9280 0.9280 0.9280 0.9280
2781.092957 0.9275 0.9265 0.9260 0.9260 0.9265
2785.351906 0.9275 0.9282 0.9287 0.9290 0.9290
2789.610854 0.9290 0.9290 0.9290 0.9290 0.9290
2793.869803 0.9290 0.9290 0.9290 0.9290 0.9290
2798.128752 0.9290 0.9290 0.9288 0.9283 0.9271
2802.387700 0.9251 0.9240 0.9240 0.9235 0.9225
2806.646649 0.9218 0.9213 0.9208 0.9203 0.9195
2810.905597 0.9185 0.9175 0.9166 0.9156 0.9146
2815.164546 0.9138 0.9133 0.9130 0.9130 0.9123
2819.423495 0.9108 0.9095 0.9085 0.9071 0.9051
2823.682443 0.9031 0.9011 0.8996 0.8986 0.8980
2827.941392 0.8980 0.8971 0.8951 0.8936 0.8926
2832.200341 0.8905 0.8870 0.8848 0.8843 0.8833
2836.459289 0.8818 0.8803 0.8788 0.8776 0.8766
2840.718238 0.8751 0.8731 0.8713 0.8699 0.8684
2844.977187 0.8669 0.8658 0.8653 0.8641 0.8622
2849.236135 0.8602 0.8582 0.8564 0.8549 0.8538
2853.495084 0.8533 0.8528 0.8523 0.8520 0.8520
2857.754032 0.8520 0.8520 0.8520 0.8520 0.8516
2862.012981 0.8506 0.8500 0.8500 0.8500 0.8500
2866.271930 0.8500 0.8500 0.8498 0.8493 0.8490
2870.530878 0.8490 0.8488 0.8483 0.8474 0.8459
2874.789827 0.8448 0.8443 0.8436 0.8426 0.8418
2879.048776 0.8413 0.8404 0.8389 0.8376 0.8366
2883.307724 0.8356 0.8346 0.8336 0.8326 0.8320
2887.566673 0.8320 0.8312 0.8292 0.8272 0.8252
2891.825622 0.8234 0.8219 0.8202 0.8182 0.8168
2896.084570 0.8163 0.8152 0.8132 0.8108 0.8078
2900.343519 0.8052 0.8032 0.8012 0.7992 0.7978
2904.602467 0.7973 0.7954 0.7914 0.7876 0.7841
2908.861416 0.7802 0.7757 0.7713 0.7668 0.7601
2913.120365 0.7502 0.7434 0.7419 0.7416 0.7431
2917.379313 0.7455 0.7495 0.7531 0.7562 0.7603
2921.638262 0.7663 0.7700 0.7700 0.7650 0.7520
2925.897211 0.7402 0.7302 0.7174 0.6999 0.6860
2930.156159 0.6780 0.6684 0.6559 0.6474 0.6460
2934.415108 0.6435 0.6395 0.6344 0.6274 0.6170
2938.674057 0.6010 0.5813 0.5553 0.5280 0.4986
2942.933005 0.4747 0.4602 0.4384 0.4039 0.3641
2947.191954 0.3146 0.2825 0.2810 0.2804 0.2814
2951.450903 0.2843 0.2908 0.2977 0.3052 0.3124
2955.709851 0.3189 0.3268 0.3373 0.3509 0.3698
2959.968800 0.3924 0.4213 0.4428 0.4508 0.4565
2964.227748 0.4580 0.4585 0.4570 0.4553 0.4533
2968.486697 0.4510 0.4480 0.4395 0.4203 0.4016
2972.745646 0.3836 0.3660 0.3490 0.3319 0.3144
2977.004594 0.2968 0.2788 0.2571 0.2281 0.2037
2981.263543 0.1883 0.1772 0.1747 0.1718 0.1683
2985.522492 0.1658 0.1653 0.1652 0.1657 0.1701
2989.781440 0.1821 0.1943 0.2067 0.2175 0.2250
2994.040389 0.2313 0.2353 0.2435 0.2600 0.2758
2998.299338 0.2902 0.3075 0.3305 0.3541 0.3790
3002.558286 0.4024 0.4224 0.4395 0.4506 0.4613
3006.817235 0.4713 0.4841 0.5026 0.5205 0.5375
3011.076183 0.5545 0.5715 0.5843 0.5883 0.5931
3015.335132 0.5996 0.6048 0.6073 0.6106 0.6155
3019.594081 0.6208 0.6268 0.6316 0.6336 0.6364
3023.853029 0.6409 0.6442 0.6447 0.6456 0.6476
3028.111978 0.6507 0.6562 0.6608 0.6633 0.6659
3032.370927 0.6689 0.6718 0.6743 0.6762 0.6766
3036.629875 0.6773 0.6783 0.6797 0.6823 0.6852
3040.888824 0.6892 0.6925 0.6940 0.6952 0.6957
3045.147773 0.6962 0.6966 0.6973 0.6983 0.6990
3049.406721 0.6990 0.6987 0.6977 0.6969 0.6964
3053.665670 0.6959 0.6954 0.6950 0.6950 0.6947
3057.924618 0.6937 0.6930 0.6930 0.6930 0.6930
3062.183567 0.6933 0.6943 0.6950 0.6950 0.6950
3066.442516 0.6950 0.6953 0.6963 0.6974 0.6989
3070.701464 0.7007 0.7032 0.7055 0.7076 0.7094
3074.960413 0.7109 0.7127 0.7152 0.7184 0.7234
3079.219362 0.7281 0.7321 0.7368 0.7433 0.7498
3083.478310 0.7563 0.7617 0.7642 0.7671 0.7711
3087.737259 0.7744 0.7759 0.7779 0.7814 0.7854
3091.996208 0.7904 0.7943 0.7953 0.7965 0.7985
3096.255156 0.8007 0.8032 0.8061 0.8100 0.8135
3100.514105 0.8155 0.8180 0.8220 0.8259 0.8294
3104.773054 0.8320 0.8320 0.8323 0.8333 0.8345
3109.032002 0.8365 0.8384 0.8399 0.8416 0.8441
3113.290951 0.8465 0.8485 0.8500 0.8500 0.8502
3117.549899 0.8512 0.8525 0.8545 0.8562 0.8572
3121.808848 0.8585 0.8605 0.8620 0.8620 0.8623
3126.067797 0.8633 0.8641 0.8646 0.8651 0.8656
3130.326745 0.8664 0.8679 0.8691 0.8696 0.8700
3134.585694 0.8700 0.8702 0.8712 0.8720 0.8720
3138.844643 0.8721 0.8726 0.8733 0.8749 0.8762
3143.103591 0.8772 0.8780 0.8780 0.8782 0.8792
3147.362540 0.8800 0.8800 0.8801 0.8806 0.8810
3151.621489 0.8810 0.8810 0.8810 0.8809 0.8804
3155.880437 0.8798 0.8788 0.8778 0.8768 0.8757
3160.139386 0.8742 0.8722 0.8687 0.8649 0.8599
3164.398334 0.8557 0.8542 0.8526 0.8506 0.8485
3168.657283 0.8460 0.8438 0.8428 0.8423 0.8438
3172.916232 0.8459 0.8504 0.8548 0.8589 0.8628
3177.175180 0.8663 0.8704 0.8769 0.8831 0.8881
3181.434129 0.8922 0.8932 0.8944 0.8964 0.8980
3185.693078 0.8980 0.8983 0.8998 0.9010 0.9010
3189.952026 0.9010 0.9010 0.9009 0.9004 0.8997
3194.210975 0.8982 0.8967 0.8952 0.8939 0.8934
3198.469924 0.8923 0.8888 0.8851 0.8806 0.8762
3202.728872 0.8722 0.8681 0.8637 0.8593 0.8559
3206.987821 0.8525 0.8500 0.8470 0.8415 0.8365
3211.246770 0.8340 0.8316 0.8296 0.8281 0.8286
3215.505718 0.8295 0.8320 0.8354 0.8429 0.8501
3219.764667 0.8561 0.8629 0.8734 0.8833 0.8908
3224.023615 0.8980 0.9034 0.9084 0.9109 0.9135
3228.282564 0.9160 0.9185 0.9215 0.9242 0.9252
3232.541513 0.9262 0.9272 0.9280 0.9280 0.9280
3236.800461 0.9280 0.9280 0.9280 0.9278 0.9268
3241.059410 0.9258 0.9248 0.9238 0.9222 0.9207
3245.318359 0.9192 0.9179 0.9174 0.9166 0.9141
3249.577307 0.9117 0.9097 0.9078 0.9068 0.9062
3253.836256 0.9077 0.9092 0.9107 0.9122 0.9132
3258.095205 0.9145 0.9174 0.9201 0.9212 0.9222
3262.354153 0.9237 0.9250 0.9250 0.9248 0.9233
3266.613102 0.9220 0.9220 0.9216 0.9191 0.9165
3270.872050 0.9130 0.9094 0.9054 0.9017 0.8997
3275.130999 0.8979 0.8969 0.8960 0.8960 0.8964
3279.389948 0.8989 0.9017 0.9062 0.9110 0.9180
3283.648896 0.9247 0.9297 0.9342 0.9357 0.9373
3287.907845 0.9398 0.9423 0.9443 0.9463 0.9483
3292.166794 0.9501 0.9511 0.9521 0.9526 0.9530
3296.425742 0.9530 0.9531 0.9536 0.9540 0.9540
3300.684691 0.9540 0.9540 0.9540 0.9540 0.9540
3304.943640 0.9540 0.9540 0.9540 0.9541 0.9551
3309.202588 0.9561 0.9566 0.9570 0.9570 0.9570
3313.461537 0.9570 0.9570 0.9570 0.9570 0.9570
3317.720485 0.9571 0.9576 0.9581 0.9591 0.9599
3321.979434 0.9589 0.9579 0.9574 0.9570 0.9570
3326.238383 0.9569 0.9564 0.9560 0.9560 0.9560
3330.497331 0.9560 0.9561 0.9566 0.9571 0.9576
3334.756280 0.9580 0.9580 0.9581 0.9591 0.9600
3339.015229 0.9600 0.9599 0.9589 0.9580 0.9580
3343.274177 0.9580 0.9580 0.9581 0.9591 0.9600
3347.533126 0.9600 0.9601 0.9606 0.9610 0.9615
3351.792075 0.9621 0.9631 0.9640 0.9645 0.9650
3356.051023 0.9655 0.9660 0.9660 0.9660 0.9660
3360.309972 0.9661 0.9671 0.9680 0.9680 0.9680
3364.568921 0.9680 0.9680 0.9685 0.9690 0.9690
3368.827869 0.9690 0.9690 0.9690 0.9690 0.9690
3373.086818 0.9695 0.9700 0.9700 0.9700 0.9700
3377.345766 0.9701 0.9716 0.9730 0.9730 0.9730
3381.604715 0.9735 0.9741 0.9751 0.9760 0.9760
3385.863664 0.9760 0.9760 0.9760 0.9760 0.9760
3390.122612 0.9760 0.9760 0.9765 0.9770 0.9770
3394.381561 0.9770 0.9770 0.9770 0.9770 0.9770
3398.640510 0.9775 0.9780 0.9780 0.9780 0.9780
3402.899458 0.9780 0.9780 0.9780 0.9780 0.9780
3407.158407 0.9775 0.9770 0.9770 0.9770 0.9770
3411.417356 0.9770 0.9770 0.9770 0.9770 0.9770
3415.676304 0.9770 0.9770 0.9770 0.9770 0.9770
3419.935253 0.9770 0.9770 0.9770 0.9770 0.9770
3424.194201 0.9770 0.9770 0.9775 0.9780 0.9780
3428.453150 0.9780 0.9780 0.9780 0.9780 0.9780
3432.712099 0.9780 0.9780 0.9780 0.9780 0.9780
3436.971047 0.9780 0.9780 0.9780 0.9780 0.9780
3441.229996 0.9780 0.9780 0.9780 0.9780 0.9780
3445.488945 0.9780 0.9780 0.9780 0.9775 0.9770
3449.747893 0.9770 0.9770 0.9770 0.9770 0.9775
3454.006842 0.9780 0.9780 0.9780 0.9790 0.9800
3458.265791 0.9790 0.9780 0.9780 0.9780 0.9790
3462.524739 0.9800 0.9800 0.9800 0.9800 0.9800
3466.783688 0.9800 0.9800 0.9800 0.9800 0.9785
3471.042636 0.9770 0.9775 0.9780 0.9780 0.9780
3475.301585 0.9780 0.9780 0.9780 0.9780 0.9780
3479.560534 0.9780 0.9790 0.9800 0.9800 0.9800
3483.819482 0.9805 0.9810 0.9810 0.9810 0.9810
3488.078431 0.9810 0.9810 0.9810 0.9810 0.9810
3492.337380 0.9810 0.9810 0.9815 0.9820 0.9820
3496.596328 0.9820 0.9815 0.9810 0.9805 0.9800
3500.855277 0.9800 0.9800 0.9800 0.9800 0.9800
3505.114226 0.9800 0.9800 0.9800 0.9800 0.9800
3509.373174 0.9800 0.9800 0.9800 0.9800 0.9790
3513.632123 0.9780 0.9780 0.9780 0.9780 0.9780
3517.891072 0.9780 0.9780 0.9780 0.9780 0.9780
3522.150020 0.9780 0.9780 0.9780 0.9780 0.9780
3526.408969 0.9780 0.9780 0.9790 0.9800 0.9790
3530.667917 0.9780 0.9790 0.9800 0.9790 0.9780
3534.926866 0.9780 0.9780 0.9780 0.9780 0.9780
3539.185815 0.9780 0.9790 0.9800 0.9790 0.9780
3543.444763 0.9780 0.9780 0.9775 0.9770 0.9770
3547.703712 0.9770 0.9765 0.9760 0.9760 0.9760
3551.962661 0.9745 0.9730 0.9725 0.9720 0.9710
3556.221609 0.9700 0.9695 0.9690 0.9685 0.9680
3560.480558 0.9661 0.9641 0.9630 0.9621 0.9611
3564.739507 0.9601 0.9591 0.9581 0.9575 0.9570
3568.998455 0.9565 0.9560 0.9550 0.9540 0.9540
3573.257404 0.9540 0.9540 0.9540 0.9549 0.9559
3577.516352 0.9569 0.9579 0.9589 0.9599 0.9619
3581.775301 0.9639 0.9645 0.9650 0.9664 0.9679
3586.034250 0.9680 0.9680 0.9680 0.9680 0.9680
3590.293198 0.9680 0.9685 0.9690 0.9690 0.9690
3594.552147 0.9695 0.9700 0.9714 0.9729 0.9735
3598.811096 0.9740 0.9749 0.9759 0.9760 0.9760
3603.070044 0.9765 0.9770 0.9765 0.9760 0.9760
3607.328993 0.9760 0.9760 0.9760 0.9751 0.9741
3611.587942 0.9740 0.9740 0.9749 0.9759 0.9765
3615.846890 0.9770 0.9775 0.9780 0.9789 0.9799
3620.105839 0.9805 0.9810 0.9796 0.9781 0.9780
3624.364787 0.9780 0.9780 0.9780 0.9789 0.9799
3628.623736 0.9805 0.9810 0.9824 0.9839 0.9840
3632.882685 0.9840 0.9840 0.9840 0.9845 0.9850
3637.141633 0.9850 0.9850 0.9836 0.9821 0.9815
3641.400582 0.9810 0.9810 0.9810 0.9805 0.9801
3645.659531 0.9791 0.9781 0.9789 0.9799 0.9791
3649.918479 0.9781 0.9776 0.9771 0.9770 0.9770
3654.177428 0.9770 0.9770 0.9774 0.9779 0.9789
3658.436377 0.9799 0.9800 0.9800 0.9791 0.9781
3662.695325 0.9771 0.9761 0.9747 0.9732 0.9730
3666.954274 0.9730 0.9743 0.9758 0.9764 0.9769
3671.213223 0.9770 0.9770 0.9774 0.9779 0.9789
3675.472171 0.9799 0.9800 0.9800 0.9791 0.9781
3679.731120 0.9789 0.9799 0.9800 0.9800 0.9809
3683.990068 0.9819 0.9820 0.9820 0.9837 0.9858
3688.249017 0.9869 0.9879 0.9884 0.9889 0.9894
3692.507966 0.9899 0.9909 0.9919 0.9920 0.9920
3696.766914 0.9924 0.9929 0.9926 0.9921 0.9911
3701.025863 0.9901 0.9896 0.9891 0.9890 0.9890
3705.284812 0.9894 0.9899 0.9900 0.9900 0.9900
3709.543760 0.9900 0.9896 0.9891 0.9890 0.9890
3713.802709 0.9903 0.9918 0.9920 0.9920 0.9924
3718.061658 0.9929 0.9930 0.9930 0.9930 0.9930
3722.320606 0.9930 0.9930 0.9934 0.9939 0.9940
3726.579555 0.9940 0.9940 0.9940 0.9940 0.9940
3730.838503 0.9936 0.9931 0.9926 0.9921 0.9907
3735.097452 0.9893 0.9878 0.9863 0.9843 0.9823
3739.356401 0.9812 0.9802 0.9787 0.9772 0.9766
3743.615349 0.9761 0.9752 0.9742 0.9740 0.9740
3747.874298 0.9736 0.9731 0.9726 0.9721 0.9720
3752.133247 0.9720 0.9720 0.9720 0.9720 0.9720
3756.392195 0.9724 0.9729 0.9730 0.9730 0.9730
3760.651144 0.9730 0.9730 0.9730 0.9730 0.9730
3764.910093 0.9726 0.9721 0.9720 0.9720 0.9712
3769.169041 0.9702 0.9692 0.9682 0.9672 0.9662
3773.427990 0.9660 0.9660 0.9660 0.9660 0.9656
3777.686939 0.9651 0.9650 0.9650 0.9650 0.9650
3781.945887 0.9646 0.9641 0.9632 0.9622 0.9620
3786.204836 0.9620 0.9620 0.9620 0.9620 0.9620
3790.463784 0.9616 0.9611 0.9610 0.9610 0.9606
3794.722733 0.9601
##END=
