##TITLE=3-Butyn-2-one
##JCAMP-DX=4.24
##DATA TYPE=INFRARED SPECTRUM
##ORIGIN=EPA-IR VAPOR PHASE LIBRARY
##OWNER=SRD/NIST
Collection (C) 2018 copyright by the U.S. Secretary of Commerce
on behalf of the United States of America. All rights reserved.
##CAS REGISTRY NO=1423-60-5
##MOLFORM=C 4 H 4 O
##$NIST SOURCE=MSDC-IR
##STATE=gas
##XUNITS=1/CM
##YUNITS=ABSORBANCE
##XFACTOR=1.
##YFACTOR=0.001
##DELTAX=1.92898
##FIRSTX=549.8
##LASTX=4000.7
##FIRSTY=2.863
##MAXX=4000.7
##MINX=549.759
##MAXY=0.277813
##MINY=0
##NPOINTS=1790
##XYDATA=(X++(Y..Y))
549.759 2.863 4.733 6.383 6.373 7.493 10.313 12.533 13.963 16.323 18.883
569.049 20.853 23.303 25.543 27.743 30.573 35.213 39.473 38.683 35.193 32.533
588.339 30.943 29.943 29.823 30.483 30.453 29.623 29.113 27.573 25.493 24.443
607.628 22.963 21.363 20.743 21.473 23.563 25.933 28.773 32.553 36.723 40.273
626.918 43.003 45.493 46.213 46.023 45.463 44.753 45.063 48.723 59.603 86.753
646.208 121.323 122.703 103.333 95.523 95.663 96.833 95.133 88.933 79.373 71.273
665.498 65.963 64.203 65.743 66.433 64.573 58.883 51.543 46.003 50.923 65.453
684.787 69.903 77.683 96.493 90.043 67.713 56.183 49.983 45.723 42.643 40.623
704.077 40.083 39.223 39.553 41.593 42.753 43.303 43.733 42.833 41.153 39.743
723.367 39.573 40.353 40.603 39.043 35.953 34.323 34.473 34.843 35.363 35.123
742.657 32.743 29.063 24.583 19.693 15.003 11.563 9.233 7.263 5.993 5.293
761.947 4.373 3.663 3.163 2.573 2.313 2.303 2.753 2.953 2.763 2.273
781.236 2.033 2.663 2.853 2.703 2.853 2.813 2.513 2.343 2.253 2.343
800.526 2.823 2.873 2.473 2.273 2.423 2.183 1.813 1.853 1.4404 0.8
819.816 0.259 0.374 1.713 2.233 2.123 2.153 1.893 1.973 1.983 1.5616
839.106 1.3782 1.743 1.5841 1.4026 1.783 1.923 1.1114 0.64458 1.3223 1.753
858.395 1.2872 0.68343 0.64565 0.8888 1.0738 1.1376 1.1142 1.1342 1.3882 1.753
877.685 1.823 1.4041 1.3079 1.4705 1.6149 1.893 1.793 1.703 2.083 2.063
896.975 1.6363 1.713 1.673 2.073 2.023 1.4245 1.793 1.813 2.073 2.473
916.265 2.353 2.803 3.173 2.873 2.823 3.333 3.623 3.753 3.883 4.263
935.555 4.893 5.963 7.093 7.983 9.143 10.313 11.923 14.453 17.183 19.793
954.844 22.833 25.713 28.293 30.523 31.873 32.573 33.923 35.243 35.833 35.943
974.134 35.033 34.933 35.543 35.813 36.473 36.993 36.623 35.973 35.243 32.883
993.424 29.913 27.483 24.743 21.883 19.033 16.873 16.053 15.583 14.193 13.073
1012.714 12.843 13.083 12.863 13.693 15.823 18.383 18.923 17.053 16.483 15.763
1032.003 15.273 15.983 16.413 16.103 16.423 16.933 17.133 16.873 16.963 16.653
1051.293 15.733 15.843 15.793 15.413 15.113 14.843 14.193 12.713 12.113 11.683
1070.583 11.823 12.143 11.523 10.073 8.093 7.263 6.543 6.483 6.643 5.623
1089.873 5.123 4.463 4.233 5.193 5.293 6.273 6.463 5.063 5.273 6.153
1109.163 5.213 4.493 6.013 6.073 6.643 8.483 7.943 9.273 11.623 12.483
1128.452 13.513 15.433 18.253 21.483 24.833 27.413 30.743 35.343 39.963 45.233
1147.742 50.213 55.363 61.733 69.233 77.343 85.403 94.813 107.133 122.213 138.233
1167.032 154.883 172.433 188.903 201.513 211.463 217.383 219.293 219.833 219.433 219.363
1186.322 217.443 210.313 200.803 198.333 198.103 195.213 194.233 189.833 180.323 165.513
1205.611 144.703 120.753 96.703 75.233 55.993 41.583 32.493 24.633 19.733 18.013
1224.901 15.733 12.453 10.953 10.333 9.073 9.343 8.773 7.993 8.753 9.493
1244.191 10.733 11.343 11.883 13.283 15.163 17.173 18.563 20.373 22.233 23.873
1263.481 25.063 25.803 25.823 25.053 23.773 23.253 23.083 22.833 23.173 23.723
1282.771 24.403 24.703 24.803 24.273 23.113 21.633 19.983 18.533 17.343 16.423
1302.060 15.543 14.583 14.103 13.963 14.183 14.803 15.353 16.113 17.213 18.543
1321.350 20.093 21.783 22.963 23.633 24.003 24.423 25.433 27.063 29.513 32.573
1340.640 35.883 39.243 42.643 45.983 49.533 53.003 55.893 58.053 59.363 60.013
1359.930 60.923 63.273 65.373 65.723 66.873 69.053 70.723 71.653 71.503 69.863
1379.219 66.223 61.163 55.543 49.773 44.193 39.163 35.093 31.993 29.443 27.113
1398.509 25.223 23.663 22.643 21.973 21.373 20.883 20.583 20.373 20.113 20.083
1417.799 19.923 19.753 19.953 20.283 20.713 21.003 20.763 19.263 17.443 16.573
1437.089 16.083 15.733 15.413 15.113 14.863 14.423 13.923 13.513 12.843 12.133
1456.378 11.363 10.473 9.683 8.993 8.603 8.103 7.723 7.343 6.873 6.613
1475.668 6.323 6.013 5.823 5.683 5.703 5.483 5.273 5.543 5.703 5.653
1494.958 5.493 5.503 5.633 5.683 5.833 5.813 5.913 6.283 6.383 6.443
1514.248 6.603 6.803 7.103 7.133 7.283 7.533 7.723 7.703 7.573 7.513
1533.538 7.403 7.613 7.583 7.743 7.973 7.833 8.093 8.383 8.273 8.003
1552.827 7.773 7.553 7.303 6.933 6.593 6.303 5.993 5.883 5.853 5.783
1572.117 5.773 5.743 5.673 5.593 5.843 6.003 5.773 5.673 5.563 5.613
1591.407 5.953 6.163 6.133 6.093 6.083 6.133 6.293 6.173 6.203 6.193
1610.697 6.183 6.423 6.443 6.223 6.333 6.643 6.723 6.483 6.413 6.743
1629.986 6.843 7.003 7.363 7.533 7.763 8.123 8.373 8.653 9.253 9.863
1649.276 10.793 11.943 13.303 14.723 16.603 18.883 20.983 23.593 26.993 30.793
1668.566 35.643 40.933 47.113 55.073 64.953 75.393 88.043 102.503 120.003 140.363
1687.856 161.443 184.263 206.703 226.603 243.013 253.053 254.103 248.433 238.893 228.523
1707.146 220.873 214.603 208.733 210.773 228.663 256.253 276.523 277.813 261.553 233.823
1726.435 201.043 168.183 137.563 111.873 90.413 73.913 61.543 51.453 43.173 35.823
1745.725 29.653 24.173 19.663 15.793 12.763 10.383 8.213 6.643 5.593 4.743
1765.015 4.043 3.613 3.253 2.773 2.443 2.273 2.213 2.163 2.063 1.763
1784.305 1.5819 1.6418 1.743 1.743 1.5806 1.319 1.2551 1.3354 1.305 1.2602
1803.594 1.1931 1.0541 1.1485 1.1107 1.1056 1.1178 1.0555 1.1276 1.0639 0.9998
1822.884 0.9864 0.9409 1.0562 1.1201 1.1182 0.9975 0.9237 1.2069 1.2365 0.9617
1842.174 0.8951 1.0632 1.1681 1.2713 1.3008 1.5119 1.653 1.743 1.863 1.873
1861.464 2.043 2.183 2.353 2.533 2.653 2.703 2.693 2.623 2.533 2.623
1880.754 2.693 2.393 2.073 2.143 2.403 2.453 2.453 2.393 2.303 2.173
1900.043 1.883 1.5799 1.5171 1.5937 1.753 1.793 1.6245 1.4609 1.4867 1.5622
1919.333 1.4866 1.5268 1.6516 1.6384 1.4968 1.5662 1.6003 1.555 1.6206 1.723
1938.623 1.6295 1.653 1.723 1.5722 1.6064 1.5986 1.6164 1.693 1.673 1.5275
1957.913 1.4688 1.4384 1.5087 1.4703 1.2817 1.289 1.2136 1.1208 1.1758 1.1204
1977.202 1.1322 1.2264 1.0345 0.8685 0.9969 1.2325 1.1474 0.991 1.0186 1.0298
1996.492 1.0901 1.0956 1.0492 1.0522 1.0871 1.1822 1.3234 1.4277 1.4079 1.5528
2015.782 1.673 1.703 1.733 1.903 2.173 2.263 2.363 2.533 2.793 3.123
2035.072 3.463 3.873 4.233 4.633 5.153 5.963 7.043 8.213 9.503 10.793
2054.362 12.283 14.293 16.473 18.713 21.493 24.793 28.263 31.873 35.713 39.883
2073.651 44.433 48.923 53.253 57.693 61.893 65.453 68.673 71.183 73.213 74.533
2092.941 74.943 75.043 74.463 73.763 72.783 71.013 68.853 66.293 63.103 59.393
2112.231 54.763 49.873 44.993 39.143 32.693 26.103 19.933 14.833 10.943 8.083
2131.521 6.233 5.203 4.513 3.973 3.423 3.073 3.023 2.903 2.653 2.513
2150.810 2.473 2.363 2.313 2.103 2.083 2.193 1.943 1.853 1.863 1.793
2170.100 1.723 1.4897 1.4781 1.5755 1.4877 1.4038 1.3943 1.3528 1.2293 1.1247
2189.390 1.0193 1.0557 1.0656 1.1603 1.0274 0.8321 0.8561 0.7602 0.8416 0.9104
2208.680 0.855 0.8652 0.8076 0.7895 0.8112 0.7754 0.8621 0.8468 0.866 1.0173
2227.970 1.1666 1.1482 0.9654 0.9571 0.9564 0.8487 0.9686 1.0852 1.2642 1.4006
2247.259 1.2836 1.282 1.3073 1.108 1.0149 1.0544 1.1417 1.0688 0.9109 1.0971
2266.549 1.3755 1.4678 1.4036 1.5399 1.4897 1.4542 1.4042 1.2047 1.3103 1.2577
2285.839 1.202 1.3951 1.3662 1.2283 1.285 1.1894 1.3103 1.5665 1.2796 1.0405
2305.129 1.1712 1.4866 1.693 1.673 1.743 1.6395 1.369 1.3239 1.2552 1.3419
2324.418 1.5635 1.683 1.5867 1.4802 1.663 1.813 1.6314 1.5078 1.5547 1.5332
2343.708 1.693 1.713 1.5794 1.703 1.913 1.863 1.783 1.4411 1.0104 1.1587
2362.998 1.3436 1.2258 1.2882 1.4375 1.3946 1.3003 1.1886 1.1069 1.193 1.2926
2382.288 1.1992 1.1279 1.1356 1.1563 1.1784 1.0176 0.9031 0.9332 0.8036 0.8983
2401.578 0.9407 1.0027 0.9415 0.7847 0.9163 1.1511 1.4237 1.2431 1.0077 1.0843
2420.867 1.1653 1.086 0.9143 0.8247 0.69559 0.9775 1.4348 1.1977 0.8019 0.785
2440.157 0.8318 0.7848 0.8055 0.73456 0.74102 0.8808 0.9191 0.9848 0.9491 0.70719
2459.447 0.434 0.452 0.7071 0.9469 0.8471 0.507 0.5949 0.7197 0.660438 0.6228
2478.737 0.7587 0.8388 0.9086 1.045 0.9969 0.9231 0.9011 1.1105 1.1757 1.2341
2498.026 1.2099 0.988 1.0338 1.0287 0.796 0.8394 1.0443 1.1421 1.0858 0.9417
2517.316 0.9379 1.1621 1.2225 1.1036 1.0947 1.1086 1.197 1.0295 1.2466 1.5479
2536.606 1.4319 1.2237 0.9489 1.1318 1.465 1.4411 1.2073 1.0061 1.1742 1.23
2555.896 1.0744 1.0282 1.0344 1.0343 0.7775 0.74624 0.9798 0.9286 0.8611 0.8648
2575.186 0.9203 0.8672 0.8897 1.1718 1.0994 0.9043 0.9485 0.8282 0.8222 0.901
2594.475 1.0503 1.1904 1.1054 1.3767 1.3038 0.9205 0.8301 0.9852 1.1746 1.113
2613.765 1.2215 1.3926 1.3666 1.2158 1.1449 1.2042 1.2615 1.2283 1.683 2.003
2633.055 1.773 1.6141 1.5094 1.6394 1.5486 1.4077 1.653 1.813 1.683 1.4315
2652.345 1.2171 1.4418 1.963 1.943 1.843 1.953 1.823 1.723 1.813 2.133
2671.634 2.173 1.923 1.933 1.693 1.5569 1.6436 1.3933 1.4906 1.3154 1.355
2690.924 1.663 1.4507 1.2374 1.3437 1.4889 1.3373 1.1013 0.8603 0.9713 1.1246
2710.214 0.9527 0.777 0.657967 0.813 0.74153 0.5736 0.9009 1.1308 0.9764 1.0778
2729.504 1.2381 1.2897 1.5918 1.4789 1.2188 1.3605 1.1789 0.76 0.67887 0.8738
2748.794 1.0754 1.1762 1.114 1.0979 0.9113 0.436 0.273 0.6149 0.9603 0.71415
2768.083 0.8078 1.2287 1.1246 1.0013 0.9143 0.8967 0.9913 1.0198 0.8857 0.9167
2787.373 1.0461 1.0615 0.9864 1.1627 1.2926 1.2213 1.412 1.604 1.5609 1.3138
2806.663 1.6414 1.693 1.514 1.595 1.683 1.693 1.6529 1.723 1.5652 1.773
2825.953 2.073 2.193 2.053 1.5839 1.5702 1.683 1.773 1.6251 1.5893 1.823
2845.242 2.073 2.033 2.023 2.063 1.693 1.6156 1.793 2.103 2.263 2.013
2864.532 1.793 1.933 1.943 1.743 1.973 2.033 2.093 2.403 2.513 2.363
2883.822 2.033 2.323 2.513 2.343 2.373 2.243 2.253 2.373 2.373 2.533
2903.112 2.603 2.493 2.563 2.833 2.933 3.123 3.343 3.413 3.683 4.143
2922.401 4.093 3.823 3.663 3.643 3.723 3.383 3.313 3.993 4.273 4.093
2941.691 4.283 4.433 4.423 4.403 4.543 4.363 4.173 4.293 4.503 4.493
2960.981 4.553 4.783 4.593 4.773 4.983 5.013 5.123 6.043 7.483 7.403
2980.271 6.353 5.663 5.263 5.173 5.703 5.873 5.883 6.473 6.813 7.283
2999.561 8.083 8.303 8.413 9.033 9.163 8.833 8.293 7.923 8.113 8.723
3018.850 9.113 8.123 7.183 7.433 7.713 8.043 8.123 7.223 6.413 5.893
3038.140 5.213 4.853 4.453 3.863 3.333 3.503 4.063 3.963 4.233 4.523
3057.430 4.103 4.263 4.583 4.473 4.663 4.773 4.583 4.433 4.523 4.433
3076.720 4.433 5.023 4.913 4.573 4.733 4.853 4.583 4.203 4.273 4.013
3096.009 3.823 4.043 3.893 3.403 2.933 2.703 3.033 3.253 3.073 3.033
3115.299 3.183 3.093 2.873 2.743 2.533 2.613 2.833 2.763 2.403 2.423
3134.589 2.613 2.293 2.263 1.793 1.4429 1.773 1.813 1.863 2.143 2.033
3153.879 1.4562 1.3943 1.673 1.6408 1.4143 1.2112 1.4289 1.863 1.653 1.3214
3173.169 1.099 1.1811 1.3263 0.8908 0.8118 1.0293 0.9028 0.70132 0.67987 1.0184
3192.458 1.0146 0.478 0.414 0.5851 0.7864 0.71424 0.371 0.414 0.6035 0.74994
3211.748 1.0403 1.3884 1.0942 1.0701 1.5281 1.763 1.873 1.4273 1.1612 1.1205
3231.038 1.2047 1.663 1.773 1.763 2.133 2.413 2.333 2.463 2.763 3.143
3250.328 3.763 3.803 3.843 4.393 4.693 4.963 5.703 6.553 7.083 8.093
3269.617 9.073 9.673 10.323 11.723 13.393 14.993 17.343 19.453 21.453 23.993
3288.907 26.183 28.223 30.033 31.923 34.763 38.993 45.423 52.273 57.363 60.663
3308.197 63.323 65.303 66.243 64.563 60.763 58.733 60.983 66.973 66.543 55.073
3327.487 46.993 49.293 54.503 57.353 56.383 51.263 44.433 36.593 27.973 20.293
3346.777 14.513 10.883 8.413 6.863 5.933 5.333 4.933 5.223 5.693 5.733
3366.066 5.373 5.133 5.063 5.693 6.283 6.523 6.793 6.703 7.033 7.563
3385.356 7.673 7.663 7.703 7.923 8.143 7.623 7.173 7.103 7.373 7.503
3404.646 7.843 7.613 7.423 7.933 7.653 6.503 5.883 5.503 4.403 3.603
3423.936 3.443 3.163 2.803 2.453 1.883 2.233 2.383 1.753 1.5723 1.5831
3443.225 1.4491 1.0601 1.2483 1.4955 1.2581 1.5769 1.5149 0.9403 0.8875 1.4326
3462.515 1.993 1.703 1.2279 1.0831 1.2068 1.3182 0.8809 0.9132 1.4514 1.444
3481.805 1.1429 1.1213 1.6358 1.6428 1.4452 1.2847 0.6047 0.7575 1.2673 1.4586
3501.095 1.4279 1.1017 0.9409 0.8471 1.1511 1.0006 1.1432 1.2687 0.8591 1.3552
3520.385 1.5067 1.5347 1.571 1.0085 0.284 0.5785 1.2662 1.3821 1.1793 0.8675
3539.674 0.8945 0.6211 0.6071 1.0669 1.488 1.31 1.0113 1.1923 1.2916 1.0768
3558.964 0.8561 1.1818 0.9807 0.504 0.478 0.66544 1.0503 1.0664 0.9926 0.9235
3578.254 0.52 0.48 0.7934 0.64503 0.8469 1.1278 0.73381 0.8378 1.1151 0.8881
3597.544 0.7646 0.74746 0.7683 0.7555 0.660023 0.5669 0.244 0 0.045 0.068
3616.833 0.251 0.527 0.65014 0.7676 0.70273 0.541 0.542 0.541 0.537 0.535
3636.123 0.415 0.543 0.9634 1.1981 1.3011 1.2377 0.81 0.099 0.013 0.72626
3655.413 0.7781 0.258 0.5966 1.0539 1.102 0.88 0.5959 0.6427 0.54 0.9131
3674.703 1.086 0.68731 0.8173 0.657857 0.411 0.573 1.0196 1.3183 0.8465 0.524
3693.993 0.201 0.292 0.7727 0.49 0.371 0.535 0.422 0.8068 1.2318 1.4099
3713.282 1.174 0.69626 0.9456 1.0893 0.68985 0.5573 0.501 0.5784 0.51 0.5759
3732.572 0.662414 0.398 0.6097 1.1333 1.2212 1.0056 1.1106 0.8148 0.6344 0.6462
3751.862 0.9776 1.0829 0.9083 0.9601 0.6282 0.513 0.524 0.525 0.654237 0.9097
3771.152 0.9594 0.549 0.399 0.6454 0.8913 0.6432 0.344 0.491 0.42 0.69629
3790.441 1.073 1.0973 1.1064 0.623 0.306 0.285 0.146 0.19 0.5 0.9874
3809.731 1.456 1.2503 0.531 0.412 0.68688 0.64569 0.513 0.8966 1.375 1.3118
3829.021 1.0306 1.0646 0.535 0.233 0.796 0.7836 0.71727 0.9385 0.69695 0.331
3848.311 0.292 0.299 0.31 0.71315 1.2809 0.7682 0.426 0.867 0.793 0.72651
3867.601 0.659495 0.6383 0.8914 1.0999 0.846 0.8114 0.8362 0.539 0.9512 0.8396
3886.890 0.7966 1.3121 1.2651 1.1112 1.055 1.0325 0.7669 0.72564 1.4025 1.783
3906.180 1.3243 1.0049 1.3381 1.5723 1.4365 1.2258 1.2548 1.4713 1.5316 1.4918
3925.470 1.6516 1.893 1.813 1.813 1.883 1.693 2.023 2.423 2.223 2.353
3944.760 2.493 2.563 2.913 2.913 2.673 1.913 1.833 2.343 2.463 2.723
3964.049 2.513 2.053 1.6291 2.193 2.473 1.933 1.963 2.253 2.213 2.473
3983.339 2.893 2.703 2.473 2.423 2.363 2.143 2.403 2.623 2.323 1.783
##END=
