##TITLE=Iodoacetamide
##JCAMP-DX=4.24
##DATA TYPE=INFRARED SPECTRUM
##ORIGIN=EPA-IR VAPOR PHASE LIBRARY
##OWNER=SRD/NIST
Collection (C) 2018 copyright by the U.S. Secretary of Commerce
on behalf of the United States of America. All rights reserved.
##CAS REGISTRY NO=144-48-9
##MOLFORM=C 2 H 4 I N O
##$NIST SOURCE=MSDC-IR
##STATE=gas
##XUNITS=1/CM
##YUNITS=ABSORBANCE
##XFACTOR=1.
##YFACTOR=0.001
##DELTAX=1.92934
##FIRSTX=549.9
##LASTX=3999.5
##FIRSTY=1.725
##MAXX=3999.53
##MINX=549.863
##MAXY=0.020495
##MINY=0
##NPOINTS=1789
##XYDATA=(X++(Y..Y))
549.863 1.725 1.745 1.845 1.825 1.715 1.675 1.885 1.985 1.855 1.955
569.156 2.135 2.145 2.125 2.135 2.115 2.175 2.295 2.305 2.185 2.145
588.450 2.035 1.885 1.945 2.015 1.945 1.935 1.945 1.915 1.885 1.845
607.743 1.655 1.535 1.4613 1.4151 1.4499 1.3915 1.3986 1.3928 1.3266 1.3035
627.037 1.3172 1.3802 1.4214 1.4461 1.432 1.3621 1.3442 1.2948 1.2611 1.3034
646.330 1.2912 1.2656 1.2493 1.2386 1.265 1.3313 1.3062 1.2455 1.3145 1.4124
665.624 1.3842 1.2956 1.2269 1.1907 1.2461 1.2908 1.2315 1.1857 1.1742 1.1571
684.917 1.1963 1.2353 1.2167 1.1931 1.2323 1.2819 1.3162 1.3448 1.276 1.2722
704.210 1.3434 1.3342 1.2989 1.2787 1.3142 1.3044 1.2621 1.2844 1.2033 1.1458
723.504 1.2115 1.2504 1.2015 1.1497 1.225 1.2973 1.2964 1.2524 1.2593 1.28
742.797 1.2567 1.2212 1.2268 1.2525 1.2187 1.2146 1.2515 1.2451 1.2173 1.2458
762.091 1.2736 1.2533 1.2531 1.2698 1.2524 1.2633 1.3102 1.372 1.3778 1.3307
781.384 1.3004 1.3119 1.3766 1.3883 1.3386 1.3097 1.3383 1.3332 1.3145 1.2836
800.678 1.2716 1.3062 1.3418 1.3513 1.3775 1.3846 1.3431 1.308 1.3357 1.4335
819.971 1.4571 1.4591 1.4795 1.4795 1.545 1.575 1.555 1.575 1.595 1.585
839.264 1.605 1.645 1.605 1.605 1.635 1.675 1.685 1.655 1.665 1.675
858.558 1.635 1.595 1.535 1.4454 1.4129 1.3746 1.341 1.3087 1.2956 1.3403
877.851 1.2822 1.2156 1.2434 1.2095 1.1639 1.181 1.1411 1.1024 1.1364 1.1326
897.145 1.1114 1.12 1.0866 1.0305 1.0931 1.129 1.0705 1.0039 0.9894 1.0131
916.438 1.0037 1.0153 0.9924 0.9674 0.9933 0.9703 0.9394 0.9875 1.0054 0.971
935.732 0.9548 0.9583 0.9641 0.9241 0.8701 0.8617 0.898 0.9264 0.9027 0.9105
955.025 0.8852 0.8542 0.8815 0.9084 0.9252 0.9085 0.8648 0.8519 0.8165 0.7194
974.318 0.7081 0.7493 0.7565 0.7661 0.7473 0.7432 0.7664 0.7286 0.7331 0.7515
993.612 0.7408 0.7482 0.7225 0.7318 0.7414 0.7479 0.7603 0.7496 0.7867 0.8084
1012.905 0.796 0.7922 0.7791 0.7616 0.8002 0.8475 0.8411 0.8112 0.8141 0.8506
1032.199 0.8586 0.8826 0.9429 0.9812 0.9826 0.988 1.0406 1.0775 1.049 1.0281
1051.492 1.0305 1.0308 1.0575 1.0536 1.0544 1.0718 1.0454 1.0025 0.9543 0.9458
1070.786 0.9328 0.9162 0.9491 0.9278 0.8422 0.8127 0.8371 0.8226 0.7976 0.7614
1090.079 0.7419 0.7957 0.7692 0.7476 0.687 0.6436 0.7023 0.6748 0.6454 0.58152
1109.372 0.57143 0.6479 0.5797 0.5967 0.6691 0.6292 0.6756 0.6682 0.655 0.6571
1128.666 0.49059 0.53835 0.76 0.8007 0.8219 0.8532 0.7566 0.7786 1.0001 1.1666
1147.959 1.1224 1.0979 1.3718 1.655 1.825 2.005 2.125 2.185 2.365 2.515
1167.253 2.635 2.815 2.895 2.865 2.775 2.745 2.655 2.525 2.315 2.015
1186.546 1.795 1.755 1.705 1.535 1.2902 1.0117 0.9742 1.1393 1.1589 0.9159
1205.840 0.9221 1.0183 1.0767 0.9832 0.9963 1.1488 0.8773 0.7168 0.8658 0.8311
1225.133 0.6948 0.8593 0.8491 0.6793 0.7608 0.6425 0.52601 0.6351 0.57249 0.54017
1244.426 0.6121 0.56392 0.57815 0.5936 0.6587 0.7287 0.723 0.7086 0.6869 0.7225
1263.720 0.7334 0.8002 0.8126 0.8522 0.8597 0.8665 1 1.038 1.1048 1.2098
1283.013 1.2545 1.312 1.3926 1.4715 1.575 1.655 1.785 1.925 2.005 2.155
1302.307 2.385 2.635 2.885 3.125 3.445 3.825 4.195 4.645 5.125 5.625
1321.600 6.085 6.655 7.185 7.605 8.025 8.305 8.445 8.535 8.485 8.295
1340.894 8.085 7.825 7.445 6.975 6.445 5.855 5.295 4.755 4.285 3.855
1360.187 3.425 3.045 2.695 2.405 2.175 1.955 1.765 1.645 1.505 1.361
1379.480 1.2908 1.25 1.2181 1.1829 1.1535 1.1565 1.1651 1.17 1.1474 1.1658
1398.774 1.2088 1.258 1.315 1.3474 1.4045 1.4526 1.485 1.505 1.515 1.505
1418.067 1.4815 1.485 1.4562 1.4078 1.3613 1.281 1.1673 1.0693 1.0001 0.9318
1437.361 0.8848 0.8621 0.8273 0.7564 0.6793 0.6566 0.6428 0.6486 0.684 0.6431
1456.654 0.57779 0.55199 0.6023 0.641 0.5922 0.56249 0.5796 0.55547 0.5468 0.56683
1475.948 0.53494 0.51936 0.493536 0.48245 0.52871 0.5526 0.47924 0.4359 0.462 0.4468
1495.241 0.4377 0.4431 0.4406 0.4571 0.4549 0.4314 0.4443 0.4709 0.47647 0.4742
1514.534 0.49564 0.50037 0.50674 0.51398 0.52753 0.5616 0.55327 0.56347 0.591 0.6125
1533.828 0.6679 0.7202 0.7739 0.8237 0.8628 0.9236 0.9907 1.1097 1.2378 1.333
1553.121 1.4628 1.615 1.805 2.025 2.265 2.505 2.855 3.325 3.745 4.165
1572.415 4.595 4.985 5.305 5.625 5.965 6.215 6.475 6.695 6.725 6.695
1591.708 6.605 6.445 6.175 5.835 5.525 5.155 4.765 4.385 3.975 3.625
1611.002 3.315 3.035 2.795 2.545 2.345 2.175 2.055 1.915 1.795 1.675
1630.295 1.575 1.525 1.4566 1.4189 1.3875 1.3375 1.2889 1.2785 1.2802 1.2851
1649.588 1.2922 1.2783 1.2969 1.359 1.4028 1.4391 1.505 1.585 1.665 1.755
1668.882 1.865 1.975 2.085 2.235 2.405 2.585 2.785 2.995 3.205 3.425
1688.175 3.685 4.025 4.375 4.695 5.065 5.515 5.975 6.475 7.025 7.635
1707.469 8.305 9.075 9.925 10.855 11.925 13.085 14.375 15.695 16.935 18.075
1726.762 18.995 19.655 20.105 20.375 20.495 20.465 20.145 19.435 18.385 16.985
1746.056 15.325 13.655 12.085 10.645 9.485 8.525 7.695 6.965 6.295 5.675
1765.349 5.095 4.585 4.105 3.645 3.245 2.905 2.605 2.305 2.045 1.805
1784.642 1.555 1.3821 1.206 1.0394 0.9585 0.8578 0.7491 0.7042 0.6717 0.6494
1803.936 0.6144 0.5913 0.57704 0.55528 0.57342 0.55449 0.51533 0.50232 0.50129 0.5085
1823.229 0.50008 0.51753 0.51294 0.51345 0.52187 0.51713 0.55166 0.54308 0.5077 0.491115
1842.523 0.490839 0.50579 0.52564 0.50569 0.50643 0.51991 0.50509 0.52212 0.54092 0.57767
1861.816 0.56453 0.52709 0.54245 0.54569 0.52132 0.52502 0.52587 0.51086 0.5313 0.55215
1881.110 0.54106 0.55193 0.56389 0.53496 0.54536 0.53886 0.54168 0.54402 0.50284 0.484949
1900.403 0.493547 0.5107 0.53375 0.53541 0.52058 0.51368 0.50227 0.51427 0.52621 0.50358
1919.696 0.493133 0.52541 0.54575 0.50848 0.49804 0.492257 0.47524 0.4716 0.4746 0.485323
1938.990 0.4479 0.421 0.4254 0.4465 0.4379 0.422 0.4151 0.4154 0.4223 0.3974
1958.283 0.4086 0.4109 0.3997 0.4201 0.442 0.4718 0.47691 0.4607 0.4259 0.4095
1977.577 0.4129 0.4168 0.4292 0.4003 0.4075 0.4395 0.4325 0.4295 0.4198 0.431
1996.870 0.4618 0.4502 0.4337 0.4095 0.4003 0.4317 0.4103 0.366 0.3868 0.4224
2016.164 0.4122 0.381 0.371 0.4053 0.4185 0.3916 0.377 0.3877 0.4446 0.4361
2035.457 0.3893 0.3877 0.3936 0.4139 0.4029 0.384 0.3947 0.383 0.3947 0.406
2054.750 0.4017 0.4012 0.375 0.3923 0.4201 0.4087 0.3915 0.3872 0.3905 0.4203
2074.044 0.4058 0.375 0.3883 0.3986 0.426 0.4336 0.4098 0.37 0.369 0.365
2093.337 0.374 0.4302 0.4137 0.4205 0.4469 0.4006 0.413 0.4547 0.4228 0.3871
2112.631 0.4036 0.4262 0.4159 0.4247 0.4416 0.4506 0.4708 0.4244 0.4088 0.4481
2131.924 0.4444 0.4402 0.4135 0.4172 0.4325 0.4467 0.4582 0.404 0.4058 0.4477
2151.218 0.4333 0.4035 0.4249 0.4512 0.4284 0.4232 0.4485 0.4513 0.442 0.4548
2170.511 0.4378 0.408 0.4098 0.4043 0.4094 0.4326 0.4485 0.4587 0.4426 0.4148
2189.804 0.4163 0.4076 0.4129 0.4372 0.4536 0.4343 0.4038 0.4204 0.4123 0.4064
2209.098 0.4311 0.4562 0.4571 0.414 0.4132 0.4332 0.437 0.4327 0.4042 0.4182
2228.391 0.4235 0.4096 0.4236 0.4568 0.4471 0.4279 0.456 0.4594 0.4501 0.4412
2247.685 0.4364 0.4366 0.4224 0.4241 0.4337 0.4164 0.4448 0.48094 0.4634 0.4273
2266.978 0.4233 0.4464 0.4439 0.4503 0.4503 0.429 0.4267 0.4409 0.4555 0.4383
2286.272 0.4402 0.4596 0.4687 0.47783 0.44 0.4027 0.421 0.4261 0.4195 0.4222
2305.565 0.4497 0.47658 0.4433 0.3982 0.4113 0.4353 0.4001 0.3953 0.378 0.369
2324.858 0.3961 0.404 0.4113 0.4237 0.4088 0.3862 0.3878 0.3918 0.3891 0.4155
2344.152 0.4334 0.3993 0.36 0.361 0.4129 0.43 0.4201 0.3998 0.361 0.379
2363.445 0.424 0.4076 0.349 0.332 0.385 0.4038 0.3987 0.4268 0.4421 0.4393
2382.739 0.4401 0.4109 0.3915 0.3956 0.38 0.383 0.3916 0.378 0.355 0.369
2402.032 0.402 0.4246 0.449 0.4097 0.3894 0.4303 0.4036 0.4119 0.4143 0.383
2421.326 0.37 0.374 0.3916 0.42 0.4429 0.4248 0.4293 0.4291 0.4272 0.4071
2440.619 0.365 0.368 0.367 0.3859 0.4022 0.384 0.3908 0.404 0.4133 0.4104
2459.912 0.3902 0.37 0.376 0.378 0.38 0.367 0.3861 0.4055 0.3967 0.355
2479.206 0.331 0.375 0.356 0.335 0.361 0.363 0.375 0.377 0.374 0.381
2498.499 0.385 0.3958 0.3964 0.3853 0.3869 0.3926 0.372 0.364 0.358 0.3852
2517.793 0.3981 0.3874 0.362 0.326 0.348 0.331 0.336 0.3926 0.4293 0.4171
2537.086 0.357 0.375 0.385 0.358 0.339 0.36 0.3911 0.375 0.371 0.362
2556.380 0.382 0.37 0.357 0.352 0.333 0.329 0.322 0.312 0.325 0.38
2575.673 0.4226 0.4137 0.3851 0.4015 0.3875 0.378 0.361 0.353 0.345 0.312
2594.966 0.366 0.4261 0.4157 0.352 0.319 0.311 0.328 0.34 0.309 0.262
2614.260 0.279 0.369 0.359 0.348 0.3954 0.4287 0.379 0.329 0.347 0.37
2633.553 0.3932 0.367 0.343 0.372 0.3869 0.4064 0.382 0.323 0.34 0.308
2652.847 0.295 0.326 0.35 0.375 0.4149 0.3896 0.305 0.295 0.335 0.343
2672.140 0.341 0.344 0.337 0.335 0.31 0.347 0.32 0.287 0.339 0.353
2691.434 0.365 0.4038 0.4002 0.376 0.3903 0.382 0.367 0.358 0.339 0.332
2710.727 0.3943 0.4075 0.32 0.316 0.351 0.353 0.362 0.3981 0.353 0.325
2730.020 0.373 0.407 0.376 0.328 0.351 0.312 0.274 0.303 0.312 0.335
2749.314 0.357 0.389 0.385 0.352 0.377 0.41 0.342 0.366 0.384 0.323
2768.607 0.341 0.348 0.323 0.33 0.337 0.353 0.3886 0.366 0.375 0.372
2787.901 0.3974 0.4023 0.36 0.383 0.359 0.311 0.4008 0.4632 0.4167 0.355
2807.194 0.308 0.346 0.4116 0.376 0.381 0.437 0.4097 0.356 0.364 0.364
2826.488 0.35 0.378 0.4308 0.4032 0.3874 0.4296 0.4129 0.3932 0.357 0.304
2845.781 0.289 0.347 0.4234 0.3982 0.352 0.352 0.37 0.4001 0.4244 0.4161
2865.074 0.371 0.304 0.31 0.318 0.297 0.351 0.343 0.336 0.4007 0.4104
2884.368 0.334 0.331 0.274 0.282 0.382 0.352 0.4344 0.490495 0.3969 0.37
2903.661 0.361 0.3869 0.4331 0.355 0.289 0.34 0.4045 0.4501 0.4695 0.504
2922.955 0.51686 0.4406 0.3962 0.4368 0.4056 0.349 0.3 0.354 0.4092 0.338
2942.248 0.3928 0.4527 0.47743 0.47661 0.4285 0.4249 0.4734 0.416 0.3866 0.4435
2961.542 0.4152 0.4595 0.54194 0.52318 0.52848 0.58168 0.6041 0.57468 0.55599 0.51564
2980.835 0.487501 0.4589 0.366 0.3 0.4128 0.50588 0.4631 0.4653 0.4354 0.3956
3000.128 0.353 0.293 0.29 0.358 0.36 0.315 0.332 0.31 0.288 0.351
3019.422 0.307 0.235 0.29 0.35 0.37 0.312 0.261 0.305 0.268 0.217
3038.715 0.313 0.301 0.235 0.266 0.293 0.249 0.305 0.3981 0.375 0.349
3058.009 0.335 0.352 0.359 0.256 0.281 0.35 0.23 0.218 0.294 0.274
3077.302 0.283 0.3 0.241 0.268 0.213 0.103 0.189 0.294 0.231 0.191
3096.596 0.249 0.221 0.216 0.271 0.254 0.247 0.2 0.231 0.342 0.274
3115.889 0.256 0.226 0.103 0.2 0.264 0.155 0.154 0.233 0.3 0.271
3135.182 0.189 0.219 0.199 0.196 0.291 0.295 0.209 0.132 0.079 0.139
3154.476 0.117 0.085 0.212 0.29 0.275 0.241 0.249 0.248 0.294 0.366
3173.769 0.38 0.259 0.09 0.058 0.143 0.177 0.136 0.195 0.197 0.212
3193.063 0.168 0.057 0.187 0.202 0.122 0.056 0.087 0.158 0.052 0.076
3212.356 0.15 0.079 0.246 0.364 0.26 0.178 0.14 0.234 0.27 0.185
3231.650 0.127 0.139 0.207 0.2 0.205 0.193 0.131 0.232 0.201 0.154
3250.943 0.182 0.135 0.172 0.199 0.174 0.183 0.21 0.272 0.23 0.181
3270.236 0.326 0.285 0.25 0.353 0.296 0.153 0.133 0.212 0.204 0.276
3289.530 0.316 0.176 0.175 0.312 0.288 0.164 0.183 0.063 0 0.179
3308.823 0.173 0.193 0.196 0.057 0.051 0.167 0.231 0.182 0.186 0.259
3328.117 0.214 0.133 0.117 0.162 0.24 0.215 0.224 0.334 0.347 0.299
3347.410 0.242 0.273 0.341 0.272 0.261 0.341 0.281 0.199 0.202 0.079
3366.704 0.032 0.185 0.281 0.303 0.339 0.3948 0.53295 0.54296 0.52768 0.6825
3385.997 0.6364 0.54128 0.6095 0.7471 0.8804 1.0331 1.0197 0.8115 0.9219 1.3207
3405.290 1.4256 1.3523 1.4508 1.545 1.675 1.785 1.725 1.805 2.005 2.205
3424.584 2.215 1.975 1.955 1.965 1.945 2.015 2.015 2.015 1.945 1.795
3443.877 1.645 1.515 1.2839 1.1141 1.0664 1.0798 1.089 0.8969 0.8008 0.766
3463.171 0.7822 0.8363 0.727 0.733 0.9135 0.918 0.8451 0.8395 0.8827 0.8459
3482.464 0.7337 0.8972 1.0458 1.065 1.0318 1.0553 1.0799 1.0319 1.1155 1.2293
3501.758 1.2901 1.3081 1.3824 1.4034 1.4353 1.545 1.665 1.705 1.735 1.825
3521.051 1.875 2.035 2.095 2.185 2.415 2.665 2.915 3.155 3.355 3.545
3540.344 3.745 3.725 3.525 3.225 3.155 3.205 3.105 2.895 2.605 2.295
3559.638 1.855 1.505 1.2576 1.0401 0.8878 0.8142 0.7512 0.6017 0.53634 0.4696
3578.931 0.351 0.4188 0.51289 0.55213 0.386 0.301 0.4255 0.4148 0.4196 0.4058
3598.225 0.3868 0.45 0.4025 0.337 0.237 0.139 0.223 0.365 0.346 0.224
3617.518 0.372 0.4382 0.347 0.365 0.338 0.337 0.297 0.201 0.201 0.282
3636.812 0.337 0.316 0.269 0.25 0.257 0.308 0.3889 0.4078 0.306 0.229
3656.105 0.319 0.38 0.329 0.303 0.326 0.305 0.254 0.295 0.362 0.288
3675.398 0.216 0.253 0.295 0.288 0.234 0.207 0.254 0.309 0.4083 0.4605
3694.692 0.352 0.274 0.275 0.333 0.273 0.104 0.161 0.268 0.273 0.221
3713.985 0.184 0.293 0.372 0.344 0.312 0.276 0.286 0.4145 0.378 0.257
3733.279 0.265 0.273 0.254 0.279 0.314 0.278 0.196 0.253 0.4122 0.4505
3752.572 0.4235 0.4005 0.322 0.254 0.323 0.4089 0.4199 0.345 0.317 0.294
3771.866 0.284 0.256 0.272 0.349 0.299 0.291 0.301 0.285 0.301 0.281
3791.159 0.268 0.329 0.366 0.306 0.305 0.305 0.306 0.335 0.317 0.308
3810.452 0.301 0.307 0.316 0.271 0.214 0.266 0.3913 0.366 0.304 0.246
3829.746 0.249 0.215 0.238 0.327 0.249 0.213 0.237 0.319 0.306 0.178
3849.039 0.151 0.231 0.326 0.305 0.293 0.4015 0.4463 0.4104 0.357 0.32
3868.333 0.254 0.274 0.335 0.326 0.316 0.341 0.324 0.306 0.295 0.265
3887.626 0.272 0.369 0.365 0.364 0.369 0.267 0.224 0.265 0.33 0.336
3906.920 0.302 0.25 0.237 0.236 0.32 0.385 0.3851 0.34 0.335 0.336
3926.213 0.337 0.251 0.211 0.32 0.268 0.261 0.302 0.35 0.373 0.308
3945.506 0.359 0.3898 0.276 0.253 0.242 0.232 0.334 0.4137 0.344 0.288
3964.800 0.302 0.306 0.31 0.362 0.4327 0.383 0.339 0.32 0.294 0.334
3984.093 0.304 0.237 0.229 0.298 0.3884 0.4337 0.4503 0.385 0.348
##END=
