##TITLE=3-Methoxy-1-propanol
##JCAMP-DX=4.24
##DATA TYPE=INFRARED SPECTRUM
##ORIGIN=EPA-IR VAPOR PHASE LIBRARY
##OWNER=SRD/NIST
Collection (C) 2018 copyright by the U.S. Secretary of Commerce
on behalf of the United States of America. All rights reserved.
##CAS REGISTRY NO=1589-49-7
##MOLFORM=C 4 H 10 O 2
##$NIST SOURCE=MSDC-IR
##STATE=gas
##XUNITS=1/CM
##YUNITS=ABSORBANCE
##XFACTOR=1.
##YFACTOR=0.001
##DELTAX=1.92898
##FIRSTX=549.8
##LASTX=4000.7
##FIRSTY=0.4924
##MAXX=4000.7
##MINX=549.759
##MAXY=0.0385716
##MINY=0
##NPOINTS=1790
##XYDATA=(X++(Y..Y))
549.759 0.4924 0.3835 0.4813 0.5539 0.5448 0.3144 0.144 0.0595 0.1321 0.2859
569.049 0.3163 0.2612 0.2048 0.218 0.1681 0.05178 0.02717 0.1767 0.1936 0.1413
588.339 0.2223 0.12519 0.10307 0.2502 0.1876 0.1422 0.2873 0.2574 0.1373 0.12524
607.628 0.2216 0.3018 0.3396 0.2828 0.11182 0.0214 0.0129 0 0.05133 0.1809
626.918 0.2013 0.1839 0.12931 0.1666 0.2152 0.2423 0.313 0.09736 0.0018 0.04866
646.208 0.10442 0.11134 0.037839 0.10757 0.1828 0.2112 0.06207 0.0004 0.1319 0.2162
665.498 0.2775 0.1932 0.1407 0.1858 0.09037 0.06998 0.05434 0.0043 0.12063 0.2205
684.787 0.2636 0.3576 0.3882 0.3459 0.2588 0.222 0.2416 0.2741 0.2484 0.262
704.077 0.3401 0.2512 0.15 0.2226 0.2932 0.243 0.2667 0.3165 0.3664 0.3369
723.367 0.3124 0.385 0.3375 0.4434 0.4904 0.3941 0.3573 0.3036 0.3058 0.4008
742.657 0.5176 0.4853 0.3823 0.4201 0.6699 0.7755 0.6028 0.6037 0.8144 0.8689
761.947 0.846 0.8822 0.9131 0.8937 0.9187 0.9712 1.1016 1.2516 1.2216 1.1016
781.236 1.1116 1.1716 1.0516 0.9281 0.9692 1.2016 1.2116 1.1316 1.1416 1.0416
800.526 0.9796 0.8942 0.8835 0.9239 0.8576 0.9481 0.9034 0.665 0.6854 0.7955
819.816 0.8784 0.8673 0.8418 0.8731 0.8492 0.8551 0.81 0.8368 1.0109 1.1116
839.106 1.0816 1.1816 1.1816 1.1116 1.0916 1.0716 1.1516 1.2316 1.3416 1.4216
858.395 1.4116 1.3816 1.3716 1.5216 1.6616 1.6416 1.6616 1.6816 1.7416 1.9116
877.685 2.1416 2.3016 2.4016 2.4816 2.5916 2.6816 2.7416 2.8416 2.9016 2.9616
896.975 3.1716 3.3616 3.4116 3.4316 3.6416 3.7216 3.7016 3.9316 4.0916 4.1016
916.265 4.0716 4.1216 4.2116 4.1516 4.0516 3.9916 3.9516 3.9316 3.9016 3.8716
935.555 3.8716 3.8816 3.7816 3.9016 4.0116 3.9016 3.9916 4.1816 4.2316 4.2816
954.844 4.4316 4.4416 4.4916 4.7016 4.7716 4.8416 4.9116 4.8416 4.8516 5.0316
974.134 4.9816 4.9816 5.1416 5.1516 5.2916 5.4116 5.3716 5.3716 5.5316 5.7716
993.424 5.9416 6.2316 6.6216 6.9716 7.3716 7.9316 8.5416 9.0316 9.6716 10.3116
1012.714 10.9716 11.6216 12.3216 12.9216 13.3516 13.9216 14.3616 14.8516 15.2416 15.5016
1032.003 15.9716 16.3716 16.4516 16.4616 16.6316 16.8116 16.9216 16.9816 17.1416 17.2116
1051.293 17.2316 17.1916 17.1316 17.2516 17.1516 17.1716 17.2516 17.3816 17.6016 17.9416
1070.583 18.3316 18.4816 18.7216 19.0516 19.4716 19.8816 20.0116 20.5016 21.4316 21.9316
1089.873 22.6116 23.3416 23.9816 24.8116 25.6816 26.6116 27.6216 28.8116 29.9216 30.9016
1109.163 32.0216 33.5316 35.0616 36.1516 37.0516 37.9216 38.5716 38.5616 38.1816 37.5416
1128.452 36.4916 35.2916 33.7616 32.0816 30.3416 28.3816 25.9816 23.3216 21.0016 18.9616
1147.742 17.0816 15.6316 14.6116 13.6216 12.7816 12.2816 11.8516 11.5116 11.2416 11.0916
1167.032 10.9816 11.0316 11.0516 10.9616 10.9516 11.0216 11.1716 10.9516 10.8616 11.0316
1186.322 11.0516 11.1816 11.1116 10.8516 10.8816 10.7516 10.4016 10.0716 9.9016 9.6216
1205.611 9.2316 8.8616 8.5716 8.2116 7.8016 7.6516 7.2116 6.6916 6.3916 6.1916
1224.901 5.9116 5.6416 5.3916 5.1316 4.9416 4.6516 4.5516 4.5716 4.3616 4.1916
1244.191 4.0516 4.0216 3.9916 3.8116 3.7416 3.7116 3.6216 3.5916 3.6816 3.6716
1263.481 3.5816 3.3716 3.2216 3.2216 3.2816 3.4016 3.4016 3.4216 3.5016 3.4616
1282.771 3.3816 3.4216 3.3616 3.2916 3.2916 3.2416 3.2216 3.1816 3.1716 3.1316
1302.060 3.0316 2.9916 2.9316 2.8516 2.8416 2.7616 2.7316 2.7716 2.7516 2.7316
1321.350 2.7216 2.7316 2.7416 2.7716 2.8116 2.8416 2.9316 3.0216 3.0716 3.1816
1340.640 3.2616 3.3316 3.4516 3.5716 3.6916 3.8616 4.0216 4.1616 4.3216 4.5016
1359.930 4.7216 4.9316 5.2016 5.4916 5.7816 6.1016 6.3816 6.6416 6.8916 7.1516
1379.219 7.3616 7.5416 7.7116 7.7816 7.8016 7.7616 7.6416 7.5416 7.4316 7.2516
1398.509 7.0016 6.7216 6.4816 6.2116 5.9816 5.7216 5.5216 5.4016 5.2816 5.2116
1417.799 5.1616 5.1416 5.0516 4.9116 4.8316 4.7216 4.6216 4.5516 4.4116 4.3616
1437.089 4.3316 4.2316 4.1516 4.1116 4.0816 4.0816 4.1616 4.2616 4.3316 4.4516
1456.378 4.6216 4.7116 4.7916 4.8216 4.8216 4.8616 4.9016 4.9016 4.8816 4.7816
1475.668 4.6716 4.5116 4.2616 4.0716 3.8616 3.6316 3.3816 3.1316 2.8816 2.6216
1494.958 2.4116 2.1816 1.9516 1.8016 1.6616 1.5016 1.3916 1.2916 1.2316 1.1416
1514.248 1.0416 0.9778 0.925 0.8925 0.8704 0.8678 0.835 0.8204 0.7848 0.7437
1533.538 0.7423 0.7001 0.7085 0.6778 0.5793 0.5617 0.5652 0.5389 0.539 0.546
1552.827 0.5499 0.5539 0.5287 0.4994 0.4774 0.4658 0.4796 0.4647 0.466 0.5211
1572.117 0.5106 0.4393 0.3928 0.3957 0.3452 0.3682 0.4319 0.4087 0.3789 0.2906
1591.407 0.2953 0.3439 0.297 0.2423 0.2436 0.2429 0.2668 0.306 0.314 0.3327
1610.697 0.3045 0.264 0.262 0.2611 0.2102 0.2358 0.3093 0.2531 0.2145 0.2329
1629.986 0.2257 0.2436 0.2928 0.3241 0.2739 0.2628 0.2518 0.1871 0.1584 0.1854
1649.276 0.1872 0.1784 0.2322 0.2018 0.12138 0.08163 0.09389 0.1379 0.1457 0.1587
1668.566 0.1664 0.1718 0.136 0.12586 0.1778 0.1667 0.1654 0.137 0.10882 0.10445
1687.856 0.10044 0.12524 0.09616 0.11108 0.1999 0.158 0.12843 0.11051 0.07175 0.1418
1707.146 0.10928 0.05981 0.10103 0.08524 0.08283 0.12452 0.1055 0.06898 0.06233 0.08905
1726.435 0.10785 0.07052 0.04558 0.05385 0.07489 0.06179 0.04496 0.097 0.09367 0.09568
1745.725 0.11221 0.05728 0.05916 0.04497 0.04413 0.05569 0.06175 0.05988 0.039994 0.07071
1765.015 0.06138 0.0754 0.0953 0.06321 0.0106 0.0164 0.04165 0.08595 0.12896 0.10753
1784.305 0.09634 0.0881 0.07698 0.10172 0.1236 0.07674 0.06254 0.08217 0.09271 0.11823
1803.594 0.11432 0.08458 0.11651 0.1501 0.12986 0.10107 0.0943 0.1435 0.1784 0.11403
1822.884 0.05974 0.11702 0.1741 0.1434 0.12916 0.144 0.1562 0.1736 0.154 0.1737
1842.174 0.1816 0.1426 0.1464 0.1484 0.1344 0.1368 0.1607 0.1721 0.1727 0.1548
1861.464 0.1702 0.2271 0.2238 0.1964 0.2034 0.1902 0.1976 0.2165 0.1871 0.2038
1880.754 0.2199 0.1895 0.2 0.2115 0.2496 0.2633 0.2599 0.2738 0.2483 0.2269
1900.043 0.2305 0.2763 0.2998 0.2887 0.3351 0.3451 0.2765 0.2753 0.2593 0.2279
1919.333 0.2476 0.2928 0.2927 0.273 0.2981 0.3017 0.3068 0.2944 0.2564 0.2533
1938.623 0.2587 0.2479 0.2203 0.2412 0.3061 0.3195 0.3178 0.3462 0.3656 0.3492
1957.913 0.32 0.3195 0.3277 0.3462 0.3525 0.347 0.3685 0.3577 0.3758 0.4192
1977.202 0.4439 0.4624 0.4335 0.4226 0.4706 0.4743 0.4639 0.4853 0.4732 0.4974
1996.492 0.5366 0.51 0.4742 0.5006 0.5539 0.5624 0.5399 0.5587 0.5941 0.6025
2015.782 0.601 0.6232 0.6415 0.6312 0.6327 0.6406 0.6647 0.7005 0.6918 0.6664
2035.072 0.6628 0.7016 0.6809 0.6297 0.6452 0.6831 0.7191 0.7218 0.7046 0.6591
2054.362 0.6366 0.6303 0.6178 0.6495 0.6955 0.6934 0.6719 0.6356 0.6062 0.617
2073.651 0.6155 0.5521 0.5486 0.6004 0.6029 0.581 0.5316 0.5221 0.5167 0.5237
2092.941 0.526 0.4772 0.466 0.4926 0.5278 0.5323 0.5123 0.4916 0.4459 0.3872
2112.231 0.4266 0.4357 0.4191 0.4454 0.44 0.4235 0.4184 0.4488 0.4508 0.4426
2131.521 0.4277 0.4024 0.3835 0.3818 0.4024 0.4097 0.4161 0.4417 0.414 0.3791
2150.810 0.3594 0.3435 0.3514 0.3584 0.3778 0.3839 0.3312 0.3158 0.3326 0.3106
2170.100 0.2939 0.356 0.3795 0.3565 0.337 0.3554 0.3954 0.3389 0.3046 0.286
2189.390 0.2601 0.2725 0.3216 0.3252 0.292 0.2908 0.343 0.3547 0.282 0.2455
2208.680 0.2631 0.3189 0.3456 0.3404 0.3528 0.3293 0.3259 0.3344 0.3083 0.3174
2227.970 0.3123 0.2892 0.2848 0.3126 0.2965 0.2691 0.3424 0.3764 0.3406 0.2893
2247.259 0.2845 0.3423 0.3924 0.3252 0.2587 0.2627 0.2337 0.2701 0.2823 0.244
2266.549 0.2362 0.2397 0.2499 0.2318 0.2299 0.2347 0.2249 0.2425 0.239 0.2174
2285.839 0.2436 0.2337 0.2271 0.2569 0.2382 0.1812 0.1902 0.2616 0.2368 0.1951
2305.129 0.2377 0.2333 0.2164 0.2438 0.2791 0.3375 0.3242 0.2661 0.2803 0.3197
2324.418 0.3439 0.3571 0.3521 0.2772 0.2099 0.2175 0.2638 0.3598 0.3382 0.2879
2343.708 0.249 0.2591 0.3009 0.2755 0.2805 0.3015 0.2845 0.2636 0.272 0.2786
2362.998 0.286 0.297 0.3023 0.3027 0.2923 0.3181 0.3385 0.3028 0.286 0.2984
2382.288 0.3268 0.3576 0.3861 0.3373 0.2906 0.2689 0.246 0.2578 0.291 0.3002
2401.578 0.2876 0.2852 0.3051 0.2815 0.2482 0.3378 0.3938 0.3804 0.3452 0.2917
2420.867 0.3199 0.3209 0.292 0.2778 0.2664 0.2976 0.2928 0.3199 0.3639 0.3407
2440.157 0.3307 0.3144 0.2708 0.3017 0.3363 0.2926 0.2654 0.2847 0.2635 0.2614
2459.447 0.293 0.2612 0.2521 0.2254 0.2551 0.3462 0.3301 0.284 0.2514 0.2085
2478.737 0.2579 0.2764 0.2925 0.2968 0.2724 0.3305 0.317 0.313 0.3089 0.2394
2498.026 0.2155 0.2279 0.2449 0.2804 0.305 0.2887 0.2866 0.3337 0.343 0.2629
2517.316 0.2838 0.3613 0.3523 0.2786 0.25 0.3031 0.3239 0.2986 0.3137 0.3496
2536.606 0.3637 0.3803 0.3133 0.3028 0.3089 0.3431 0.4035 0.3964 0.4265 0.3865
2555.896 0.3669 0.4222 0.4006 0.3971 0.451 0.4432 0.4068 0.4725 0.5091 0.4581
2575.186 0.4489 0.483 0.4408 0.4353 0.5194 0.5557 0.545 0.5282 0.5206 0.4969
2594.475 0.5082 0.547 0.6092 0.6796 0.6428 0.5626 0.5132 0.533 0.5705 0.6092
2613.765 0.629 0.5993 0.6094 0.6499 0.6221 0.6209 0.6881 0.7073 0.6594 0.6781
2633.055 0.7211 0.6866 0.7103 0.7035 0.7089 0.7717 0.7552 0.7379 0.7878 0.8465
2652.345 0.8251 0.8101 0.8789 0.9012 0.8353 0.7729 0.8335 0.8801 0.9157 0.9591
2671.634 0.9521 0.9402 0.944 0.9806 0.9868 1.0247 1.0716 1.0916 1.0916 1.0916
2690.924 1.0716 1.1516 1.2916 1.3516 1.3616 1.3616 1.4316 1.5116 1.5316 1.5516
2710.214 1.6516 1.8116 1.8216 1.8216 1.9416 2.0816 2.1616 2.1416 2.1916 2.2416
2729.504 2.3016 2.4316 2.5416 2.6016 2.6816 2.7516 2.7316 2.7316 2.7916 2.7916
2748.794 2.8016 2.9216 2.9316 2.8916 2.9216 2.9016 2.9016 2.9916 3.0716 3.1016
2768.083 3.1016 3.1816 3.2016 3.2116 3.3416 3.4616 3.6016 3.7116 3.8216 4.0316
2787.373 4.2516 4.5016 4.8016 5.0916 5.4516 5.8416 6.3216 6.8616 7.4016 8.1916
2806.663 9.0216 9.7516 10.4516 11.0816 11.7116 12.4316 13.0616 13.6616 14.3816 14.9716
2825.953 15.5216 16.0016 16.3316 16.6516 16.9116 17.0016 17.2016 17.4816 17.7316 18.0216
2845.242 18.3416 18.6616 18.9516 19.2816 19.6416 20.1016 20.7616 21.4216 22.1316 22.8516
2864.532 23.5816 24.3016 24.9516 25.5316 25.9916 26.5716 27.1016 27.4516 27.7216 27.8916
2883.822 28.0716 28.2416 28.3016 28.2216 27.9516 27.7716 27.7016 27.3616 26.9716 26.7916
2903.112 26.6116 26.5516 26.5516 26.5016 26.5416 26.4816 26.6016 26.9416 27.3116 27.7116
2922.401 28.2816 28.9316 29.5316 30.0516 30.4616 30.9416 31.2916 31.5416 31.5916 31.5216
2941.691 31.4916 31.3716 31.1016 30.5816 29.8216 28.8116 27.7916 26.8116 25.8616 24.9716
2960.981 23.9016 22.7916 21.7916 20.9016 20.0216 19.0716 18.2616 17.5616 16.9916 16.4816
2980.271 15.8716 15.2816 14.7816 14.2116 13.4916 12.8416 12.3016 11.6116 10.8816 10.2616
2999.561 9.6816 9.1716 8.5516 7.8316 7.1216 6.3616 5.7616 5.3116 4.7816 4.3416
3018.850 3.9916 3.6516 3.4016 3.2116 3.0116 2.8216 2.6516 2.4816 2.3916 2.3016
3038.140 2.1716 2.0316 1.9716 1.9716 1.9916 1.8516 1.7516 1.6916 1.5216 1.5816
3057.430 1.5916 1.4916 1.4416 1.4116 1.3716 1.3016 1.2816 1.2616 1.3116 1.3216
3076.720 1.2816 1.3016 1.2216 1.1516 1.1316 1.0716 1.0816 1.1416 0.9611 0.8616
3096.009 0.9216 0.8643 0.8661 0.8578 0.7532 0.6727 0.7078 0.7092 0.7358 0.8085
3115.299 0.7992 0.733 0.6271 0.6429 0.6677 0.6602 0.5277 0.4223 0.5547 0.6106
3134.589 0.644 0.6181 0.5977 0.5888 0.5351 0.4573 0.3511 0.377 0.5463 0.6171
3153.879 0.4926 0.3677 0.413 0.4922 0.5642 0.583 0.4275 0.2975 0.3629 0.5154
3173.169 0.5049 0.4243 0.3984 0.3617 0.405 0.4425 0.4528 0.4844 0.4012 0.3338
3192.458 0.3999 0.4345 0.3939 0.3964 0.3405 0.3075 0.3743 0.3279 0.2381 0.3154
3211.748 0.338 0.3314 0.2335 0.1848 0.2732 0.2428 0.2229 0.2439 0.3505 0.2833
3231.038 0.1367 0.2244 0.2494 0.2665 0.2764 0.2851 0.3532 0.3366 0.3222 0.1925
3250.328 0.10156 0.1735 0.2268 0.2911 0.3376 0.3938 0.3685 0.2244 0.216 0.2027
3269.617 0.2191 0.2806 0.2026 0.2099 0.296 0.2088 0.1371 0.2226 0.1894 0.1099
3288.907 0.2203 0.2691 0.2206 0.2295 0.2661 0.3004 0.3106 0.2317 0.2145 0.2172
3308.197 0.2131 0.2428 0.2045 0.1946 0.08294 0.1457 0.3337 0.366 0.321 0.3841
3327.487 0.4092 0.2877 0.206 0.201 0.3405 0.3545 0.3311 0.2817 0.10705 0.158
3346.777 0.3181 0.3497 0.2919 0.2323 0.2428 0.215 0.2805 0.3803 0.4616 0.4096
3366.066 0.2397 0.1831 0.2683 0.4245 0.4171 0.3431 0.2843 0.3744 0.3673 0.3129
3385.356 0.3661 0.3514 0.3521 0.2868 0.2437 0.262 0.2931 0.322 0.3698 0.314
3404.646 0.3387 0.3895 0.3494 0.4126 0.4203 0.3899 0.3573 0.3305 0.3226 0.2535
3423.936 0.3598 0.5417 0.3722 0.2967 0.3895 0.4032 0.4038 0.3573 0.3782 0.4383
3443.225 0.523 0.4302 0.3046 0.3814 0.4587 0.6019 0.6821 0.5465 0.5399 0.546
3462.515 0.5159 0.5864 0.6374 0.6411 0.499 0.4681 0.5793 0.5357 0.4336 0.3815
3481.805 0.4564 0.5625 0.5212 0.4407 0.4434 0.53 0.4816 0.4231 0.4912 0.4742
3501.095 0.4078 0.3934 0.4142 0.3977 0.4107 0.5071 0.4221 0.378 0.3869 0.429
3520.385 0.5134 0.4442 0.3676 0.332 0.3908 0.4402 0.4455 0.4298 0.4334 0.4881
3539.674 0.5287 0.5692 0.61 0.5955 0.6024 0.521 0.4087 0.5338 0.5983 0.5588
3558.964 0.5649 0.6433 0.784 0.8054 0.8661 1.0111 1.0716 1.1216 1.3316 1.6016
3578.254 1.8716 2.2716 2.7616 3.2516 3.5616 3.9216 4.2616 4.4416 4.5916 4.7116
3597.544 4.6216 4.5316 4.6416 4.7016 4.6216 4.6016 4.4816 4.2316 3.9716 3.7016
3616.833 3.4216 3.1216 2.9516 2.7316 2.5316 2.3816 2.1916 2.0916 1.9716 1.8616
3636.123 1.9416 1.9916 1.8916 1.8816 2.0216 2.1716 2.2616 2.4316 2.6416 2.7316
3655.413 2.9716 3.2416 3.4016 3.6116 3.8316 3.9316 3.9916 4.0316 3.9516 3.8216
3674.703 3.6616 3.4916 3.4716 3.4016 3.1016 2.9716 2.8316 2.5016 2.1816 1.7716
3693.993 1.5016 1.4316 1.2516 1.0916 1.1216 1.0213 0.9313 0.904 0.6907 0.5925
3713.282 0.5819 0.662 0.7124 0.6863 0.658 0.5679 0.5918 0.6423 0.5662 0.489
3732.572 0.5955 0.6958 0.5321 0.516 0.6469 0.5863 0.6151 0.7341 0.7361 0.6659
3751.862 0.6059 0.5749 0.5074 0.5123 0.6186 0.591 0.5503 0.7068 0.6823 0.5074
3771.152 0.4214 0.4281 0.4242 0.32 0.4274 0.5286 0.4289 0.3476 0.4058 0.4541
3790.441 0.5016 0.3866 0.232 0.3758 0.401 0.4896 0.4251 0.3594 0.4469 0.3877
3809.731 0.3281 0.2754 0.3426 0.4006 0.4194 0.468 0.4222 0.3296 0.2794 0.4094
3829.021 0.5136 0.4604 0.4289 0.4293 0.427 0.4443 0.3789 0.3956 0.5371 0.5314
3848.311 0.4495 0.3641 0.3795 0.4425 0.4604 0.4792 0.546 0.5169 0.4848 0.491
3867.601 0.3484 0.3625 0.3829 0.3429 0.4817 0.4455 0.3146 0.4548 0.5544 0.4457
3886.890 0.3317 0.3465 0.4009 0.3838 0.3078 0.1544 0.2805 0.5756 0.5417 0.3364
3906.180 0.223 0.3336 0.3689 0.3711 0.4273 0.4683 0.4135 0.3333 0.4756 0.4813
3925.470 0.4577 0.3726 0.2853 0.3235 0.3038 0.2809 0.1766 0.06579 0.2485 0.3847
3944.760 0.3877 0.5312 0.6278 0.5717 0.4332 0.3596 0.4253 0.4561 0.3618 0.3963
3964.049 0.4769 0.4929 0.4964 0.5747 0.64 0.5963 0.5914 0.5316 0.2924 0.2667
3983.339 0.3046 0.4368 0.53 0.4165 0.5273 0.5057 0.3513 0.3614 0.4791 0.451
##END=
