##TITLE=Aminoiminomethanesulfinic acid
##JCAMP-DX=4.24
##DATA TYPE=INFRARED SPECTRUM
##CLASS=COBLENTZ II
##ORIGIN=DOW CHEMICAL COMPANY
##OWNER=COBLENTZ SOC.
Collection (C) 2018 copyright by the U.S. Secretary of Commerce
on behalf of the United States of America. All rights reserved.
##DATE=1964/06/29
##NAMES=amino(imino)methanesulfinic acid
##CAS REGISTRY NO=1758-73-2
##MOLFORM=C H4 N2 O2 S
##SOURCE REFERENCE=COBLENTZ NO. 08975
##$NIST SOURCE=COBLENTZ
##$NIST IMAGE=cob8975
##SPECTROMETER/DATA SYSTEM=DOW KBr FOREPRISM-GRATING
##INSTRUMENT PARAMETERS=BLAZED AT 3.5, 12.0, 20.0 MICRON AND CHANGED AT 5.0, 7.5, 14.9 MICRON
##STATE=SOLID (SPLIT MULL), FLUOROLUBE FOR 3800-1330 CM^-^1, NUJOL FOR 1330-400 CM^-^1
$$SPECTRAL CONTAMINATION DUE TO AN UNKNOWN AROUND 400 CM^-^1
##SAMPLING PROCEDURE=TRANSMISSION
##RESOLUTION=2
##DATA PROCESSING=DIGITIZED BY COBLENTZ SOCIETY (BATCH I) FROM HARD COPY
##XUNITS=1/CM
##YUNITS=TRANSMITTANCE
##XLABEL=Wavenumbers (cm-1)
##YLABEL=% Transmission
##XFACTOR=1
##YFACTOR=1
##DELTAX=1
##FIRSTX=379
##LASTX=3824
##FIRSTY=0.8404
##MAXX=3824
##MINX=379
##MAXY=0.9675
##MINY=0.0076
##NPOINTS=3446
##XYDATA=(X++(Y..Y))
379.000000 0.8404 0.8401 0.8398 0.8395 0.8395
384.000000 0.8396 0.8396 0.8397 0.8397 0.8397
389.000000 0.8398 0.8398 0.8399 0.8404 0.8408
394.000000 0.8413 0.8418 0.8421 0.8427 0.8432
399.000000 0.8436 0.8445 0.8454 0.8462 0.8471
404.000000 0.8480 0.8489 0.8498 0.8514 0.8534
409.000000 0.8554 0.8574 0.8615 0.8658 0.8701
414.000000 0.8751 0.8828 0.8904 0.8995 0.9090
419.000000 0.9121 0.9151 0.9182 0.9213 0.9244
424.000000 0.9268 0.9292 0.9316 0.9340 0.9364
429.000000 0.9384 0.9396 0.9407 0.9418 0.9430
434.000000 0.9441 0.9453 0.9464 0.9470 0.9475
439.000000 0.9482 0.9487 0.9493 0.9499 0.9505
444.000000 0.9507 0.9509 0.9511 0.9513 0.9515
449.000000 0.9516 0.9518 0.9521 0.9523 0.9524
454.000000 0.9524 0.9523 0.9523 0.9523 0.9521
459.000000 0.9521 0.9521 0.9521 0.9521 0.9521
464.000000 0.9518 0.9515 0.9510 0.9505 0.9501
469.000000 0.9496 0.9491 0.9487 0.9482 0.9471
474.000000 0.9461 0.9449 0.9438 0.9427 0.9396
479.000000 0.9362 0.9328 0.9295 0.9249 0.9199
484.000000 0.9149 0.9100 0.9038 0.8970 0.8902
489.000000 0.8832 0.8747 0.8661 0.8575 0.8398
494.000000 0.8162 0.8025 0.7892 0.7792 0.7693
499.000000 0.7560 0.7218 0.6622 0.6028 0.5432
504.000000 0.4837 0.4241 0.3645 0.3050 0.2952
509.000000 0.2981 0.4207 0.8959 0.9347 0.9420
514.000000 0.9494 0.9534 0.9559 0.9584 0.9598
519.000000 0.9612 0.9625 0.9638 0.9646 0.9653
524.000000 0.9661 0.9667 0.9668 0.9671 0.9673
529.000000 0.9674 0.9675 0.9675 0.9674 0.9673
534.000000 0.9671 0.9670 0.9668 0.9667 0.9663
539.000000 0.9659 0.9655 0.9651 0.9646 0.9642
544.000000 0.9638 0.9634 0.9631 0.9627 0.9623
549.000000 0.9620 0.9616 0.9612 0.9609 0.9605
554.000000 0.9601 0.9596 0.9591 0.9586 0.9581
559.000000 0.9575 0.9570 0.9565 0.9560 0.9555
564.000000 0.9550 0.9542 0.9534 0.9525 0.9518
569.000000 0.9510 0.9502 0.9494 0.9486 0.9478
574.000000 0.9470 0.9462 0.9453 0.9444 0.9435
579.000000 0.9425 0.9417 0.9408 0.9399 0.9382
584.000000 0.9361 0.9341 0.9321 0.9302 0.9287
589.000000 0.9273 0.9259 0.9244 0.9231 0.9218
594.000000 0.9207 0.9196 0.9184 0.9171 0.9158
599.000000 0.9143 0.9128 0.9114 0.9085 0.9054
604.000000 0.9021 0.8991 0.8952 0.8884 0.8816
609.000000 0.8748 0.8656 0.8562 0.8468 0.8381
614.000000 0.8295 0.8209 0.8122 0.8031 0.7937
619.000000 0.7843 0.7328 0.6614 0.6561 0.8648
624.000000 0.8736 0.8778 0.8784 0.8785 0.8768
629.000000 0.8753 0.8733 0.8706 0.8683 0.8660
634.000000 0.8637 0.8611 0.8585 0.8559 0.8532
639.000000 0.8506 0.8480 0.8447 0.8410 0.8371
644.000000 0.8335 0.8298 0.8262 0.8230 0.8197
649.000000 0.8164 0.8133 0.8103 0.8071 0.8089
654.000000 0.8137 0.8184 0.8200 0.7696 0.7637
659.000000 0.7567 0.7486 0.7398 0.7314 0.7231
664.000000 0.7114 0.6988 0.6861 0.6734 0.6607
669.000000 0.6480 0.6353 0.6226 0.6099 0.5972
674.000000 0.5845 0.5717 0.5591 0.5491 0.5348
679.000000 0.5062 0.4824 0.4683 0.4542 0.4249
684.000000 0.3677 0.3145 0.2613 0.2081 0.1549
689.000000 0.1017 0.1001 0.0991 0.1125 0.1476
694.000000 0.1827 0.2178 0.2529 0.2880 0.3232
699.000000 0.3582 0.3934 0.4235 0.4305 0.4324
704.000000 0.4349 0.4333 0.4329 0.4324 0.4312
709.000000 0.4301 0.4220 0.4080 0.3941 0.3800
714.000000 0.3660 0.3521 0.3380 0.3271 0.2899
719.000000 0.2595 0.2413 0.2257 0.2120 0.1928
724.000000 0.1722 0.1595 0.1468 0.1365 0.1264
729.000000 0.1190 0.1126 0.1063 0.0999 0.0928
734.000000 0.0842 0.0756 0.0693 0.0636 0.0597
739.000000 0.0569 0.0546 0.0539 0.0532 0.0525
744.000000 0.0536 0.0535 0.0535 0.0543 0.0559
749.000000 0.0575 0.0613 0.0651 0.0691 0.0730
754.000000 0.0770 0.0820 0.0871 0.0926 0.0993
759.000000 0.1061 0.1132 0.1218 0.1307 0.1442
764.000000 0.1562 0.1682 0.1801 0.1920 0.2040
769.000000 0.2159 0.2279 0.2398 0.2518 0.2637
774.000000 0.2757 0.2876 0.2996 0.3115 0.3234
779.000000 0.3354 0.3474 0.3747 0.3940 0.4116
784.000000 0.4473 0.4587 0.4701 0.4812 0.4924
789.000000 0.5035 0.5146 0.5286 0.5443 0.5601
794.000000 0.5745 0.5878 0.6010 0.6223 0.6499
799.000000 0.6645 0.6791 0.6901 0.6995 0.7087
804.000000 0.7178 0.7265 0.7324 0.7384 0.7443
809.000000 0.7501 0.7558 0.7597 0.7636 0.7675
814.000000 0.7714 0.7747 0.7768 0.7790 0.7811
819.000000 0.7833 0.7854 0.7875 0.7901 0.7931
824.000000 0.7961 0.7991 0.8021 0.8051 0.8082
829.000000 0.8098 0.8115 0.8131 0.8147 0.8162
834.000000 0.8180 0.8193 0.8205 0.8216 0.8228
839.000000 0.8240 0.8251 0.8263 0.8274 0.8286
844.000000 0.8297 0.8307 0.8317 0.8327 0.8337
849.000000 0.8347 0.8356 0.8370 0.8384 0.8398
854.000000 0.8413 0.8427 0.8442 0.8456 0.8470
859.000000 0.8484 0.8493 0.8502 0.8511 0.8518
864.000000 0.8528 0.8537 0.8546 0.8555 0.8561
869.000000 0.8561 0.8561 0.8562 0.8562 0.8558
874.000000 0.8554 0.8550 0.8547 0.8543 0.8539
879.000000 0.8530 0.8520 0.8511 0.8501 0.8491
884.000000 0.8481 0.8471 0.8461 0.8451 0.8441
889.000000 0.8430 0.8418 0.8407 0.8395 0.8384
894.000000 0.8374 0.8368 0.8364 0.8358 0.8353
899.000000 0.8347 0.8342 0.8335 0.8325 0.8318
904.000000 0.8310 0.8302 0.8293 0.8285 0.8273
909.000000 0.8259 0.8246 0.8233 0.8220 0.8207
914.000000 0.8194 0.8181 0.8168 0.8155 0.8142
919.000000 0.8126 0.8111 0.8096 0.8080 0.8064
924.000000 0.8049 0.8033 0.8018 0.8001 0.7987
929.000000 0.7967 0.7946 0.7925 0.7905 0.7884
934.000000 0.7864 0.7843 0.7821 0.7801 0.7781
939.000000 0.7760 0.7735 0.7707 0.7680 0.7653
944.000000 0.7625 0.7598 0.7571 0.7543 0.7515
949.000000 0.7488 0.7455 0.7421 0.7389 0.7356
954.000000 0.7322 0.7290 0.7258 0.7225 0.7187
959.000000 0.7142 0.7098 0.7054 0.7010 0.6965
964.000000 0.6905 0.6837 0.6769 0.6701 0.6596
969.000000 0.6471 0.6404 0.6377 0.6349 0.6324
974.000000 0.6299 0.6274 0.6206 0.6127 0.6025
979.000000 0.5910 0.5771 0.5617 0.5315 0.5053
984.000000 0.4553 0.4204 0.3854 0.3505 0.3156
989.000000 0.2807 0.2458 0.2108 0.1759 0.1410
994.000000 0.1061 0.0712 0.0480 0.0320 0.0156
999.000000 0.0109 0.0110 0.0109 0.0108 0.0121
1004.000000 0.0129 0.0137 0.0155 0.0183 0.0212
1009.000000 0.0284 0.0483 0.0818 0.1154 0.1490
1014.000000 0.1825 0.2161 0.2496 0.2832 0.2948
1019.000000 0.2899 0.2460 0.2020 0.1581 0.1141
1024.000000 0.0702 0.0317 0.0317 0.0512 0.1296
1029.000000 0.2082 0.2517 0.2512 0.2502 0.2206
1034.000000 0.2011 0.1815 0.1620 0.1425 0.1230
1039.000000 0.1034 0.0855 0.0721 0.0618 0.0537
1044.000000 0.0473 0.0413 0.0356 0.0324 0.0296
1049.000000 0.0274 0.0267 0.0262 0.0256 0.0256
1054.000000 0.0249 0.0263 0.0266 0.0272 0.0279
1059.000000 0.0286 0.0293 0.0305 0.0317 0.0331
1064.000000 0.0344 0.0399 0.0464 0.0533 0.0601
1069.000000 0.0708 0.0822 0.0943 0.1181 0.1405
1074.000000 0.1475 0.1546 0.1760 0.2063 0.2367
1079.000000 0.2670 0.2973 0.3277 0.3580 0.3859
1084.000000 0.3990 0.4068 0.4167 0.4312 0.5512
1089.000000 0.5710 0.5821 0.5931 0.6068 0.6216
1094.000000 0.6384 0.6561 0.6668 0.6767 0.6861
1099.000000 0.6942 0.7021 0.7083 0.7133 0.7183
1104.000000 0.7217 0.7245 0.7272 0.7291 0.7301
1109.000000 0.7303 0.7306 0.7308 0.7301 0.7292
1114.000000 0.7275 0.7255 0.7235 0.7211 0.7210
1119.000000 0.7218 0.7225 0.7234 0.7243 0.7251
1124.000000 0.7308 0.7441 0.7514 0.7615 0.7696
1129.000000 0.7740 0.7784 0.7819 0.7844 0.7868
1134.000000 0.7893 0.7915 0.7928 0.7942 0.7955
1139.000000 0.7967 0.7972 0.7978 0.7985 0.7991
1144.000000 0.7997 0.8003 0.8008 0.8015 0.8022
1149.000000 0.8030 0.8037 0.8044 0.8055 0.8083
1154.000000 0.8111 0.8165 0.8171 0.8180 0.8178
1159.000000 0.8175 0.8169 0.8157 0.8145 0.8132
1164.000000 0.8125 0.8121 0.8126 0.8136 0.8144
1169.000000 0.8149 0.8154 0.8157 0.8160 0.8162
1174.000000 0.8165 0.8165 0.8162 0.8161 0.8161
1179.000000 0.8160 0.8158 0.8158 0.8158 0.8158
1184.000000 0.8158 0.8158 0.8158 0.8158 0.8158
1189.000000 0.8158 0.8158 0.8158 0.8158 0.8158
1194.000000 0.8158 0.8158 0.8158 0.8158 0.8157
1199.000000 0.8157 0.8157 0.8157 0.8156 0.8156
1204.000000 0.8156 0.8156 0.8155 0.8155 0.8155
1209.000000 0.8155 0.8154 0.8154 0.8154 0.8153
1214.000000 0.8153 0.8149 0.8145 0.8140 0.8136
1219.000000 0.8132 0.8128 0.8122 0.8118 0.8115
1224.000000 0.8111 0.8107 0.8101 0.8095 0.8089
1229.000000 0.8083 0.8076 0.8071 0.8065 0.8060
1234.000000 0.8054 0.8048 0.8042 0.8036 0.8030
1239.000000 0.8024 0.8018 0.8011 0.8006 0.8000
1244.000000 0.7994 0.7988 0.7982 0.7975 0.7969
1249.000000 0.7965 0.7961 0.7956 0.7951 0.7946
1254.000000 0.7941 0.7937 0.7932 0.7926 0.7921
1259.000000 0.7918 0.7912 0.7908 0.7904 0.7900
1264.000000 0.7896 0.7892 0.7887 0.7883 0.7878
1269.000000 0.7875 0.7869 0.7865 0.7861 0.7858
1274.000000 0.7854 0.7851 0.7847 0.7843 0.7840
1279.000000 0.7836 0.7832 0.7828 0.7824 0.7818
1284.000000 0.7814 0.7810 0.7805 0.7792 0.7775
1289.000000 0.7761 0.7745 0.7730 0.7714 0.7697
1294.000000 0.7680 0.7662 0.7646 0.7628 0.7615
1299.000000 0.7606 0.7598 0.7589 0.7585 0.7581
1304.000000 0.7578 0.7574 0.7572 0.7574 0.7575
1309.000000 0.7578 0.7580 0.7583 0.7583 0.7583
1314.000000 0.7582 0.7580 0.7578 0.7571 0.7565
1319.000000 0.7558 0.7551 0.7515 0.7371 0.7228
1324.000000 0.7084 0.6941 0.6797 0.6653 0.6517
1329.000000 0.6493 0.6462 0.6424 0.6381 0.6339
1334.000000 0.6298 0.6257 0.6215 0.6173 0.6142
1339.000000 0.6151 0.6168 0.6192 0.6218 0.6267
1344.000000 0.6312 0.6348 0.6384 0.6405 0.6421
1349.000000 0.6436 0.6430 0.6424 0.6418 0.6395
1354.000000 0.6369 0.6341 0.6312 0.6283 0.6249
1359.000000 0.6215 0.6180 0.6146 0.6114 0.6088
1364.000000 0.6060 0.6034 0.6007 0.5980 0.5954
1369.000000 0.5926 0.5897 0.5868 0.5840 0.5810
1374.000000 0.5782 0.5754 0.5725 0.5696 0.5665
1379.000000 0.5634 0.5603 0.5573 0.5542 0.5510
1384.000000 0.5480 0.5449 0.5419 0.5388 0.5358
1389.000000 0.5328 0.5297 0.5267 0.5234 0.5189
1394.000000 0.5145 0.5100 0.5056 0.5010 0.4967
1399.000000 0.4922 0.4873 0.4824 0.4776 0.4727
1404.000000 0.4678 0.4630 0.4581 0.4532 0.4480
1409.000000 0.4425 0.4370 0.4316 0.4260 0.4206
1414.000000 0.4152 0.4097 0.4039 0.3980 0.3922
1419.000000 0.3862 0.3805 0.3746 0.3684 0.3623
1424.000000 0.3562 0.3500 0.3438 0.3373 0.3307
1429.000000 0.3244 0.3192 0.3150 0.3121 0.3122
1434.000000 0.3122 0.3103 0.3111 0.3128 0.3166
1439.000000 0.3378 0.3494 0.3609 0.3727 0.3843
1444.000000 0.3959 0.4075 0.4191 0.4310 0.4449
1449.000000 0.4580 0.4637 0.4654 0.4672 0.4688
1454.000000 0.4694 0.4699 0.4705 0.4710 0.4715
1459.000000 0.4717 0.4718 0.4720 0.4722 0.4724
1464.000000 0.4727 0.4731 0.4735 0.4738 0.4742
1469.000000 0.4746 0.4752 0.4760 0.4768 0.4777
1474.000000 0.4785 0.4797 0.4810 0.4824 0.4837
1479.000000 0.4851 0.4869 0.4886 0.4903 0.4921
1484.000000 0.4937 0.4953 0.4969 0.4985 0.5001
1489.000000 0.5017 0.5034 0.5051 0.5067 0.5084
1494.000000 0.5101 0.5118 0.5134 0.5151 0.5168
1499.000000 0.5185 0.5201 0.5218 0.5236 0.5254
1504.000000 0.5272 0.5289 0.5307 0.5325 0.5343
1509.000000 0.5360 0.5378 0.5396 0.5414 0.5435
1514.000000 0.5457 0.5480 0.5503 0.5526 0.5549
1519.000000 0.5571 0.5594 0.5618 0.5643 0.5668
1524.000000 0.5693 0.5718 0.5742 0.5767 0.5792
1529.000000 0.5817 0.5842 0.5867 0.5892 0.5918
1534.000000 0.5945 0.5971 0.5997 0.6023 0.6049
1539.000000 0.6075 0.6101 0.6127 0.6154 0.6181
1544.000000 0.6208 0.6235 0.6262 0.6290 0.6317
1549.000000 0.6344 0.6371 0.6399 0.6425 0.6449
1554.000000 0.6472 0.6498 0.6521 0.6546 0.6569
1559.000000 0.6594 0.6618 0.6642 0.6667 0.6685
1564.000000 0.6700 0.6714 0.6728 0.6744 0.6758
1569.000000 0.6772 0.6788 0.6803 0.6818 0.6833
1574.000000 0.6848 0.6862 0.6878 0.6894 0.6906
1579.000000 0.6911 0.6918 0.6924 0.6925 0.6925
1584.000000 0.6919 0.6919 0.6919 0.6915 0.6910
1589.000000 0.6905 0.6899 0.6890 0.6878 0.6865
1594.000000 0.6853 0.6841 0.6828 0.6817 0.6800
1599.000000 0.6781 0.6762 0.6744 0.6725 0.6706
1604.000000 0.6685 0.6664 0.6643 0.6621 0.6601
1609.000000 0.6584 0.6565 0.6547 0.6528 0.6511
1614.000000 0.6492 0.6472 0.6454 0.6436 0.6424
1619.000000 0.6411 0.6399 0.6387 0.6375 0.6362
1624.000000 0.6351 0.6338 0.6325 0.6312 0.6300
1629.000000 0.6287 0.6275 0.6262 0.6244 0.6225
1634.000000 0.6206 0.6187 0.6167 0.6148 0.6129
1639.000000 0.6102 0.6074 0.6047 0.6019 0.5990
1644.000000 0.5947 0.5905 0.5862 0.5819 0.5777
1649.000000 0.5733 0.5673 0.5614 0.5554 0.5495
1654.000000 0.5435 0.5353 0.5268 0.5183 0.5096
1659.000000 0.5006 0.4916 0.4737 0.4476 0.4314
1664.000000 0.4119 0.3928 0.3739 0.3550 0.3362
1669.000000 0.3173 0.2984 0.2796 0.2607 0.2418
1674.000000 0.2229 0.2040 0.1852 0.1663 0.1474
1679.000000 0.1285 0.1081 0.0915 0.0781 0.0602
1684.000000 0.0467 0.0360 0.0268 0.0189 0.0153
1689.000000 0.0121 0.0109 0.0097 0.0095 0.0095
1694.000000 0.0096 0.0100 0.0107 0.0130 0.0154
1699.000000 0.0209 0.0287 0.0375 0.0460 0.0544
1704.000000 0.0611 0.0671 0.0732 0.0918 0.1457
1709.000000 0.2074 0.2691 0.3307 0.3924 0.4541
1714.000000 0.5157 0.5489 0.5714 0.6028 0.6338
1719.000000 0.6572 0.6789 0.6943 0.7098 0.7215
1724.000000 0.7318 0.7422 0.7490 0.7551 0.7615
1729.000000 0.7676 0.7740 0.7805 0.7869 0.7935
1734.000000 0.7998 0.8051 0.8104 0.8156 0.8209
1739.000000 0.8258 0.8306 0.8354 0.8402 0.8446
1744.000000 0.8484 0.8523 0.8561 0.8600 0.8638
1749.000000 0.8671 0.8705 0.8739 0.8771 0.8804
1754.000000 0.8830 0.8853 0.8856 0.8859 0.8862
1759.000000 0.8865 0.8868 0.8873 0.8878 0.8885
1764.000000 0.8891 0.8897 0.8903 0.8909 0.8913
1769.000000 0.8913 0.8914 0.8914 0.8915 0.8915
1774.000000 0.8916 0.8916 0.8916 0.8916 0.8916
1779.000000 0.8915 0.8915 0.8915 0.8914 0.8914
1784.000000 0.8914 0.8912 0.8911 0.8910 0.8909
1789.000000 0.8907 0.8906 0.8905 0.8903 0.8902
1794.000000 0.8901 0.8900 0.8899 0.8898 0.8897
1799.000000 0.8897 0.8896 0.8896 0.8895 0.8894
1804.000000 0.8894 0.8893 0.8893 0.8894 0.8897
1809.000000 0.8899 0.8901 0.8903 0.8905 0.8907
1814.000000 0.8910 0.8912 0.8916 0.8920 0.8924
1819.000000 0.8928 0.8932 0.8936 0.8940 0.8945
1824.000000 0.8951 0.8957 0.8964 0.8971 0.8978
1829.000000 0.8984 0.8991 0.8994 0.8996 0.8999
1834.000000 0.9002 0.9015 0.9028 0.9041 0.9054
1839.000000 0.9063 0.9071 0.9080 0.9085 0.9086
1844.000000 0.9087 0.9089 0.9090 0.9091 0.9092
1849.000000 0.9092 0.9092 0.9092 0.9091 0.9091
1854.000000 0.9091 0.9091 0.9090 0.9090 0.9090
1859.000000 0.9090 0.9090 0.9091 0.9094 0.9096
1864.000000 0.9098 0.9064 0.9103 0.9103 0.9103
1869.000000 0.9102 0.9102 0.9101 0.9100 0.9099
1874.000000 0.9098 0.9097 0.9096 0.9095 0.9094
1879.000000 0.9093 0.9092 0.9091 0.9091 0.9091
1884.000000 0.9092 0.9092 0.9093 0.9093 0.9094
1889.000000 0.9094 0.9094 0.9093 0.9092 0.9091
1894.000000 0.9090 0.9089 0.9088 0.9087 0.9086
1899.000000 0.9085 0.9084 0.9083 0.9082 0.9081
1904.000000 0.9080 0.9078 0.9078 0.9075 0.9075
1909.000000 0.9074 0.9073 0.9071 0.9070 0.9068
1914.000000 0.9067 0.9066 0.9065 0.9063 0.9062
1919.000000 0.9060 0.9059 0.9058 0.9056 0.9053
1924.000000 0.9049 0.9045 0.9041 0.9037 0.9033
1929.000000 0.9028 0.9025 0.9020 0.9013 0.9006
1934.000000 0.8999 0.8992 0.8985 0.8978 0.8970
1939.000000 0.8963 0.8956 0.8949 0.8942 0.8935
1944.000000 0.8931 0.8928 0.8925 0.8923 0.8920
1949.000000 0.8917 0.8918 0.8923 0.8928 0.8933
1954.000000 0.8938 0.8954 0.8971 0.8990 0.9007
1959.000000 0.9025 0.9027 0.9002 0.8953 0.8902
1964.000000 0.8868 0.8851 0.8836 0.8825 0.8815
1969.000000 0.8802 0.8789 0.8777 0.8764 0.8752
1974.000000 0.8740 0.8728 0.8717 0.8707 0.8696
1979.000000 0.8686 0.8675 0.8664 0.8651 0.8631
1984.000000 0.8612 0.8592 0.8571 0.8536 0.8499
1989.000000 0.8467 0.8434 0.8400 0.8383 0.8418
1994.000000 0.8454 0.8489 0.8525 0.8560 0.8595
1999.000000 0.8631 0.8666 0.8684 0.8703 0.8704
2004.000000 0.8705 0.8706 0.8706 0.8706 0.8705
2009.000000 0.8704 0.8703 0.8700 0.8698 0.8695
2014.000000 0.8693 0.8690 0.8688 0.8685 0.8682
2019.000000 0.8678 0.8675 0.8671 0.8667 0.8661
2024.000000 0.8656 0.8650 0.8644 0.8638 0.8633
2029.000000 0.8625 0.8618 0.8611 0.8603 0.8594
2034.000000 0.8586 0.8577 0.8568 0.8560 0.8551
2039.000000 0.8542 0.8533 0.8524 0.8515 0.8506
2044.000000 0.8497 0.8484 0.8471 0.8457 0.8442
2049.000000 0.8436 0.8431 0.8425 0.8420 0.8414
2054.000000 0.8409 0.8403 0.8398 0.8392 0.8387
2059.000000 0.8387 0.8387 0.8389 0.8391 0.8395
2064.000000 0.8399 0.8403 0.8407 0.8411 0.8415
2069.000000 0.8418 0.8423 0.8428 0.8433 0.8440
2074.000000 0.8447 0.8454 0.8461 0.8468 0.8475
2079.000000 0.8480 0.8485 0.8484 0.8483 0.8482
2084.000000 0.8481 0.8480 0.8478 0.8478 0.8477
2089.000000 0.8474 0.8471 0.8468 0.8466 0.8463
2094.000000 0.8460 0.8457 0.8454 0.8451 0.8449
2099.000000 0.8446 0.8443 0.8440 0.8437 0.8434
2104.000000 0.8431 0.8428 0.8425 0.8421 0.8420
2109.000000 0.8417 0.8414 0.8411 0.8409 0.8407
2114.000000 0.8406 0.8404 0.8402 0.8400 0.8399
2119.000000 0.8397 0.8395 0.8393 0.8391 0.8389
2124.000000 0.8387 0.8384 0.8382 0.8378 0.8377
2129.000000 0.8375 0.8373 0.8370 0.8368 0.8366
2134.000000 0.8364 0.8361 0.8359 0.8356 0.8354
2139.000000 0.8350 0.8346 0.8342 0.8339 0.8335
2144.000000 0.8332 0.8328 0.8324 0.8320 0.8317
2149.000000 0.8313 0.8309 0.8306 0.8303 0.8300
2154.000000 0.8298 0.8295 0.8292 0.8289 0.8287
2159.000000 0.8284 0.8282 0.8278 0.8274 0.8268
2164.000000 0.8264 0.8259 0.8254 0.8249 0.8244
2169.000000 0.8239 0.8234 0.8227 0.8220 0.8211
2174.000000 0.8203 0.8194 0.8186 0.8176 0.8168
2179.000000 0.8160 0.8151 0.8143 0.8135 0.8125
2184.000000 0.8118 0.8108 0.8101 0.8092 0.8084
2189.000000 0.8074 0.8065 0.8056 0.8047 0.8037
2194.000000 0.8028 0.8018 0.8010 0.8000 0.7991
2199.000000 0.7982 0.7972 0.7964 0.7955 0.7946
2204.000000 0.7938 0.7928 0.7921 0.7912 0.7905
2209.000000 0.7896 0.7888 0.7878 0.7871 0.7861
2214.000000 0.7854 0.7845 0.7837 0.7828 0.7818
2219.000000 0.7810 0.7801 0.7795 0.7789 0.7784
2224.000000 0.7778 0.7778 0.7778 0.7782 0.7786
2229.000000 0.7789 0.7793 0.7797 0.7801 0.7804
2234.000000 0.7807 0.7810 0.7812 0.7815 0.7818
2239.000000 0.7821 0.7824 0.7830 0.7836 0.7845
2244.000000 0.7855 0.7857 0.7858 0.7858 0.7858
2249.000000 0.7857 0.7854 0.7851 0.7848 0.7845
2254.000000 0.7842 0.7839 0.7837 0.7831 0.7825
2259.000000 0.7818 0.7811 0.7804 0.7798 0.7791
2264.000000 0.7784 0.7776 0.7771 0.7764 0.7758
2269.000000 0.7751 0.7745 0.7738 0.7732 0.7725
2274.000000 0.7719 0.7714 0.7708 0.7701 0.7697
2279.000000 0.7691 0.7685 0.7684 0.7683 0.7683
2284.000000 0.7683 0.7683 0.7683 0.7683 0.7683
2289.000000 0.7683 0.7683 0.7683 0.7684 0.7686
2294.000000 0.7688 0.7690 0.7692 0.7694 0.7696
2299.000000 0.7698 0.7700 0.7701 0.7704 0.7706
2304.000000 0.7708 0.7711 0.7714 0.7715 0.7718
2309.000000 0.7721 0.7725 0.7726 0.7730 0.7733
2314.000000 0.7736 0.7738 0.7741 0.7743 0.7746
2319.000000 0.7749 0.7751 0.7755 0.7758 0.7760
2324.000000 0.7762 0.7765 0.7768 0.7771 0.7775
2329.000000 0.7776 0.7780 0.7783 0.7786 0.7788
2334.000000 0.7791 0.7794 0.7797 0.7800 0.7803
2339.000000 0.7805 0.7808 0.7811 0.7814 0.7817
2344.000000 0.7819 0.7822 0.7825 0.7830 0.7834
2349.000000 0.7837 0.7841 0.7844 0.7848 0.7851
2354.000000 0.7856 0.7858 0.7862 0.7865 0.7869
2359.000000 0.7874 0.7878 0.7881 0.7885 0.7888
2364.000000 0.7892 0.7896 0.7900 0.7901 0.7905
2369.000000 0.7907 0.7908 0.7911 0.7912 0.7915
2374.000000 0.7917 0.7917 0.7917 0.7908 0.7901
2379.000000 0.7893 0.7886 0.7878 0.7869 0.7861
2384.000000 0.7855 0.7847 0.7839 0.7831 0.7824
2389.000000 0.7818 0.7811 0.7806 0.7800 0.7797
2394.000000 0.7795 0.7793 0.7791 0.7789 0.7787
2399.000000 0.7785 0.7783 0.7781 0.7778 0.7776
2404.000000 0.7775 0.7772 0.7771 0.7768 0.7767
2409.000000 0.7765 0.7762 0.7761 0.7758 0.7756
2414.000000 0.7754 0.7751 0.7750 0.7747 0.7744
2419.000000 0.7741 0.7738 0.7734 0.7731 0.7728
2424.000000 0.7725 0.7721 0.7718 0.7715 0.7711
2429.000000 0.7708 0.7706 0.7703 0.7700 0.7697
2434.000000 0.7694 0.7691 0.7688 0.7685 0.7682
2439.000000 0.7678 0.7676 0.7674 0.7671 0.7668
2444.000000 0.7665 0.7661 0.7658 0.7656 0.7653
2449.000000 0.7650 0.7647 0.7644 0.7641 0.7638
2454.000000 0.7635 0.7631 0.7628 0.7625 0.7621
2459.000000 0.7618 0.7615 0.7611 0.7608 0.7605
2464.000000 0.7601 0.7598 0.7594 0.7589 0.7585
2469.000000 0.7581 0.7576 0.7571 0.7568 0.7562
2474.000000 0.7558 0.7555 0.7551 0.7546 0.7542
2479.000000 0.7538 0.7534 0.7528 0.7525 0.7521
2484.000000 0.7517 0.7511 0.7508 0.7503 0.7499
2489.000000 0.7493 0.7488 0.7482 0.7476 0.7471
2494.000000 0.7465 0.7460 0.7454 0.7448 0.7443
2499.000000 0.7437 0.7432 0.7425 0.7421 0.7415
2504.000000 0.7410 0.7404 0.7399 0.7392 0.7386
2509.000000 0.7376 0.7368 0.7358 0.7350 0.7341
2514.000000 0.7333 0.7324 0.7315 0.7306 0.7298
2519.000000 0.7289 0.7280 0.7271 0.7262 0.7254
2524.000000 0.7245 0.7236 0.7228 0.7218 0.7210
2529.000000 0.7201 0.7192 0.7183 0.7175 0.7165
2534.000000 0.7157 0.7146 0.7136 0.7125 0.7114
2539.000000 0.7103 0.7092 0.7081 0.7069 0.7058
2544.000000 0.7048 0.7037 0.7025 0.7018 0.7011
2549.000000 0.7004 0.6997 0.6990 0.6983 0.6975
2554.000000 0.6968 0.6961 0.6954 0.6947 0.6940
2559.000000 0.6932 0.6925 0.6918 0.6911 0.6904
2564.000000 0.6897 0.6889 0.6882 0.6875 0.6868
2569.000000 0.6858 0.6849 0.6839 0.6830 0.6819
2574.000000 0.6811 0.6801 0.6792 0.6782 0.6772
2579.000000 0.6762 0.6754 0.6744 0.6735 0.6725
2584.000000 0.6715 0.6706 0.6697 0.6687 0.6678
2589.000000 0.6668 0.6658 0.6649 0.6640 0.6630
2594.000000 0.6621 0.6611 0.6601 0.6592 0.6583
2599.000000 0.6572 0.6564 0.6554 0.6544 0.6533
2604.000000 0.6521 0.6511 0.6500 0.6489 0.6478
2609.000000 0.6468 0.6457 0.6446 0.6436 0.6425
2614.000000 0.6414 0.6403 0.6392 0.6381 0.6371
2619.000000 0.6362 0.6354 0.6346 0.6339 0.6331
2624.000000 0.6324 0.6316 0.6308 0.6300 0.6293
2629.000000 0.6285 0.6278 0.6270 0.6262 0.6255
2634.000000 0.6249 0.6243 0.6237 0.6231 0.6225
2639.000000 0.6218 0.6212 0.6206 0.6200 0.6194
2644.000000 0.6188 0.6181 0.6175 0.6169 0.6162
2649.000000 0.6156 0.6150 0.6144 0.6138 0.6132
2654.000000 0.6126 0.6119 0.6112 0.6106 0.6099
2659.000000 0.6092 0.6086 0.6079 0.6073 0.6066
2664.000000 0.6059 0.6052 0.6046 0.6039 0.6033
2669.000000 0.6026 0.6019 0.6012 0.6006 0.5999
2674.000000 0.5992 0.5984 0.5977 0.5969 0.5962
2679.000000 0.5954 0.5947 0.5940 0.5933 0.5925
2684.000000 0.5918 0.5910 0.5903 0.5895 0.5888
2689.000000 0.5880 0.5873 0.5865 0.5858 0.5848
2694.000000 0.5838 0.5827 0.5816 0.5805 0.5794
2699.000000 0.5783 0.5772 0.5760 0.5750 0.5739
2704.000000 0.5728 0.5717 0.5706 0.5694 0.5683
2709.000000 0.5672 0.5660 0.5650 0.5639 0.5627
2714.000000 0.5616 0.5600 0.5584 0.5568 0.5552
2719.000000 0.5536 0.5520 0.5504 0.5489 0.5473
2724.000000 0.5457 0.5440 0.5423 0.5400 0.5378
2729.000000 0.5355 0.5333 0.5310 0.5289 0.5266
2734.000000 0.5244 0.5218 0.5193 0.5164 0.5136
2739.000000 0.5107 0.5079 0.5050 0.5022 0.4993
2744.000000 0.4965 0.4936 0.4907 0.4877 0.4848
2749.000000 0.4819 0.4790 0.4754 0.4718 0.4677
2754.000000 0.4637 0.4604 0.4571 0.4542 0.4512
2759.000000 0.4484 0.4456 0.4429 0.4403 0.4381
2764.000000 0.4360 0.4338 0.4317 0.4295 0.4274
2769.000000 0.4260 0.4246 0.4234 0.4222 0.4209
2774.000000 0.4197 0.4185 0.4173 0.4160 0.4148
2779.000000 0.4141 0.4134 0.4130 0.4127 0.4124
2784.000000 0.4121 0.4122 0.4117 0.4126 0.4129
2789.000000 0.4134 0.4140 0.4151 0.4162 0.4175
2794.000000 0.4188 0.4200 0.4212 0.4229 0.4246
2799.000000 0.4265 0.4285 0.4304 0.4324 0.4336
2804.000000 0.4349 0.4360 0.4371 0.4382 0.4393
2809.000000 0.4403 0.4414 0.4424 0.4435 0.4445
2814.000000 0.4455 0.4464 0.4473 0.4476 0.4480
2819.000000 0.4483 0.4487 0.4490 0.4494 0.4497
2824.000000 0.4501 0.4500 0.4499 0.4499 0.4498
2829.000000 0.4496 0.4495 0.4494 0.4493 0.4491
2834.000000 0.4490 0.4489 0.4488 0.4484 0.4481
2839.000000 0.4477 0.4474 0.4470 0.4466 0.4462
2844.000000 0.4459 0.4454 0.4449 0.4442 0.4435
2849.000000 0.4427 0.4420 0.4412 0.4405 0.4395
2854.000000 0.4385 0.4373 0.4360 0.4349 0.4337
2859.000000 0.4325 0.4312 0.4300 0.4287 0.4270
2864.000000 0.4253 0.4236 0.4219 0.4201 0.4183
2869.000000 0.4164 0.4146 0.4127 0.4109 0.4090
2874.000000 0.4071 0.4052 0.4034 0.4014 0.3994
2879.000000 0.3971 0.3948 0.3925 0.3903 0.3880
2884.000000 0.3857 0.3834 0.3810 0.3788 0.3766
2889.000000 0.3743 0.3720 0.3697 0.3674 0.3650
2894.000000 0.3629 0.3606 0.3582 0.3568 0.3553
2899.000000 0.3538 0.3523 0.3507 0.3492 0.3477
2904.000000 0.3462 0.3446 0.3430 0.3416 0.3400
2909.000000 0.3384 0.3370 0.3355 0.3340 0.3321
2914.000000 0.3303 0.3282 0.3260 0.3240 0.3220
2919.000000 0.3199 0.3178 0.3157 0.3137 0.3116
2924.000000 0.3095 0.3071 0.3048 0.3024 0.3001
2929.000000 0.2977 0.2953 0.2929 0.2905 0.2881
2934.000000 0.2858 0.2834 0.2810 0.2783 0.2757
2939.000000 0.2724 0.2691 0.2658 0.2625 0.2592
2944.000000 0.2560 0.2527 0.2494 0.2461 0.2428
2949.000000 0.2391 0.2355 0.2315 0.2276 0.2235
2954.000000 0.2197 0.2157 0.2117 0.2079 0.2042
2959.000000 0.2018 0.1994 0.1971 0.1948 0.1924
2964.000000 0.1901 0.1878 0.1854 0.1831 0.1808
2969.000000 0.1784 0.1761 0.1735 0.1712 0.1684
2974.000000 0.1657 0.1629 0.1602 0.1574 0.1546
2979.000000 0.1519 0.1492 0.1464 0.1437 0.1408
2984.000000 0.1379 0.1346 0.1314 0.1281 0.1248
2989.000000 0.1215 0.1183 0.1150 0.1118 0.1086
2994.000000 0.1054 0.1024 0.0995 0.0965 0.0936
2999.000000 0.0906 0.0876 0.0846 0.0817 0.0787
3004.000000 0.0758 0.0725 0.0693 0.0654 0.0615
3009.000000 0.0576 0.0537 0.0501 0.0466 0.0442
3014.000000 0.0417 0.0394 0.0370 0.0346 0.0323
3019.000000 0.0303 0.0284 0.0272 0.0260 0.0247
3024.000000 0.0234 0.0222 0.0209 0.0199 0.0189
3029.000000 0.0181 0.0173 0.0165 0.0157 0.0149
3034.000000 0.0142 0.0134 0.0128 0.0122 0.0116
3039.000000 0.0110 0.0104 0.0098 0.0092 0.0088
3044.000000 0.0085 0.0083 0.0082 0.0081 0.0080
3049.000000 0.0078 0.0077 0.0076 0.0076 0.0076
3054.000000 0.0076 0.0076 0.0077 0.0077 0.0078
3059.000000 0.0078 0.0079 0.0080 0.0081 0.0082
3064.000000 0.0083 0.0084 0.0085 0.0086 0.0088
3069.000000 0.0089 0.0090 0.0091 0.0093 0.0094
3074.000000 0.0095 0.0097 0.0099 0.0101 0.0103
3079.000000 0.0104 0.0107 0.0109 0.0111 0.0113
3084.000000 0.0115 0.0118 0.0122 0.0125 0.0129
3089.000000 0.0132 0.0134 0.0138 0.0142 0.0145
3094.000000 0.0148 0.0151 0.0155 0.0158 0.0161
3099.000000 0.0164 0.0168 0.0172 0.0176 0.0180
3104.000000 0.0184 0.0189 0.0194 0.0199 0.0204
3109.000000 0.0208 0.0212 0.0216 0.0222 0.0226
3114.000000 0.0230 0.0233 0.0236 0.0240 0.0244
3119.000000 0.0247 0.0251 0.0254 0.0258 0.0261
3124.000000 0.0265 0.0267 0.0272 0.0275 0.0278
3129.000000 0.0281 0.0284 0.0287 0.0290 0.0293
3134.000000 0.0296 0.0299 0.0302 0.0306 0.0311
3139.000000 0.0316 0.0323 0.0329 0.0336 0.0342
3144.000000 0.0349 0.0359 0.0368 0.0381 0.0393
3149.000000 0.0405 0.0417 0.0427 0.0440 0.0452
3154.000000 0.0465 0.0477 0.0490 0.0508 0.0526
3159.000000 0.0542 0.0558 0.0573 0.0588 0.0601
3164.000000 0.0614 0.0626 0.0638 0.0650 0.0662
3169.000000 0.0672 0.0683 0.0693 0.0704 0.0709
3174.000000 0.0714 0.0717 0.0720 0.0723 0.0726
3179.000000 0.0728 0.0729 0.0730 0.0729 0.0728
3184.000000 0.0727 0.0726 0.0725 0.0724 0.0723
3189.000000 0.0722 0.0721 0.0717 0.0714 0.0709
3194.000000 0.0704 0.0698 0.0693 0.0688 0.0683
3199.000000 0.0677 0.0671 0.0662 0.0653 0.0644
3204.000000 0.0636 0.0627 0.0618 0.0609 0.0601
3209.000000 0.0591 0.0582 0.0572 0.0563 0.0553
3214.000000 0.0544 0.0534 0.0524 0.0514 0.0505
3219.000000 0.0494 0.0483 0.0471 0.0460 0.0448
3224.000000 0.0437 0.0425 0.0414 0.0402 0.0391
3229.000000 0.0379 0.0367 0.0356 0.0345 0.0333
3234.000000 0.0322 0.0310 0.0298 0.0286 0.0275
3239.000000 0.0264 0.0254 0.0245 0.0235 0.0227
3244.000000 0.0217 0.0208 0.0200 0.0191 0.0182
3249.000000 0.0174 0.0166 0.0159 0.0152 0.0145
3254.000000 0.0138 0.0133 0.0128 0.0125 0.0123
3259.000000 0.0120 0.0118 0.0115 0.0113 0.0112
3264.000000 0.0111 0.0110 0.0110 0.0110 0.0110
3269.000000 0.0109 0.0109 0.0109 0.0109 0.0108
3274.000000 0.0108 0.0109 0.0110 0.0111 0.0113
3279.000000 0.0114 0.0115 0.0116 0.0118 0.0119
3284.000000 0.0120 0.0121 0.0123 0.0125 0.0127
3289.000000 0.0129 0.0132 0.0134 0.0138 0.0140
3294.000000 0.0143 0.0145 0.0148 0.0150 0.0153
3299.000000 0.0156 0.0160 0.0165 0.0171 0.0176
3304.000000 0.0182 0.0187 0.0193 0.0198 0.0204
3309.000000 0.0208 0.0214 0.0220 0.0226 0.0233
3314.000000 0.0240 0.0247 0.0254 0.0261 0.0267
3319.000000 0.0282 0.0296 0.0314 0.0333 0.0351
3324.000000 0.0368 0.0387 0.0405 0.0425 0.0446
3329.000000 0.0483 0.0520 0.0555 0.0590 0.0618
3334.000000 0.0647 0.0685 0.0723 0.0771 0.0820
3339.000000 0.0975 0.1131 0.1242 0.1353 0.1428
3344.000000 0.1504 0.1573 0.1643 0.1714 0.1784
3349.000000 0.1915 0.2044 0.2209 0.2374 0.2496
3354.000000 0.2619 0.2727 0.2835 0.2952 0.3069
3359.000000 0.3192 0.3314 0.3389 0.3462 0.3523
3364.000000 0.3582 0.3643 0.3703 0.3762 0.3823
3369.000000 0.3900 0.3977 0.4080 0.4186 0.4304
3374.000000 0.4423 0.4481 0.4540 0.4599 0.4658
3379.000000 0.4760 0.4862 0.4979 0.5095 0.5280
3384.000000 0.5466 0.5551 0.5637 0.5684 0.5731
3389.000000 0.5778 0.5825 0.5872 0.5919 0.5975
3394.000000 0.6031 0.6105 0.6180 0.6254 0.6329
3399.000000 0.6404 0.6480 0.6561 0.6643 0.6719
3404.000000 0.6798 0.6828 0.6861 0.6895 0.6928
3409.000000 0.6962 0.6998 0.7032 0.7067 0.7149
3414.000000 0.7231 0.7280 0.7328 0.7378 0.7426
3419.000000 0.7474 0.7521 0.7568 0.7617 0.7667
3424.000000 0.7717 0.7768 0.7818 0.7869 0.7921
3429.000000 0.7971 0.8022 0.8074 0.8125 0.8165
3434.000000 0.8205 0.8241 0.8278 0.8314 0.8350
3439.000000 0.8385 0.8420 0.8444 0.8468 0.8493
3444.000000 0.8518 0.8542 0.8566 0.8589 0.8612
3449.000000 0.8628 0.8644 0.8660 0.8675 0.8692
3454.000000 0.8708 0.8724 0.8740 0.8753 0.8767
3459.000000 0.8777 0.8787 0.8796 0.8806 0.8815
3464.000000 0.8825 0.8834 0.8844 0.8850 0.8856
3469.000000 0.8862 0.8868 0.8874 0.8880 0.8886
3474.000000 0.8893 0.8899 0.8905 0.8911 0.8917
3479.000000 0.8921 0.8927 0.8930 0.8934 0.8937
3484.000000 0.8940 0.8943 0.8946 0.8949 0.8952
3489.000000 0.8955 0.8958 0.8961 0.8964 0.8966
3494.000000 0.8968 0.8971 0.8974 0.8975 0.8978
3499.000000 0.8980 0.8983 0.8985 0.8987 0.8989
3504.000000 0.8991 0.8993 0.8996 0.8998 0.9000
3509.000000 0.9002 0.9004 0.9006 0.9009 0.9011
3514.000000 0.9013 0.9015 0.9017 0.9018 0.9020
3519.000000 0.9021 0.9021 0.9021 0.9023 0.9023
3524.000000 0.9024 0.9025 0.9025 0.9025 0.9027
3529.000000 0.9027 0.9028 0.9028 0.9030 0.9030
3534.000000 0.9031 0.9032 0.9033 0.9033 0.9034
3539.000000 0.9034 0.9035 0.9036 0.9037 0.9037
3544.000000 0.9038 0.9038 0.9038 0.9037 0.9037
3549.000000 0.9036 0.9035 0.9034 0.9033 0.9032
3554.000000 0.9031 0.9030 0.9028 0.9028 0.9028
3559.000000 0.9027 0.9025 0.9025 0.9024 0.9023
3564.000000 0.9021 0.9021 0.9020 0.9018 0.9018
3569.000000 0.9017 0.9017 0.9016 0.9015 0.9014
3574.000000 0.9013 0.9012 0.9011 0.9010 0.9009
3579.000000 0.9008 0.9007 0.9005 0.9004 0.9001
3584.000000 0.8999 0.8996 0.8994 0.8991 0.8989
3589.000000 0.8986 0.8984 0.8981 0.8978 0.8977
3594.000000 0.8975 0.8971 0.8970 0.8967 0.8965
3599.000000 0.8962 0.8960 0.8957 0.8955 0.8952
3604.000000 0.8950 0.8947 0.8945 0.8942 0.8940
3609.000000 0.8937 0.8935 0.8932 0.8930 0.8927
3614.000000 0.8925 0.8921 0.8918 0.8916 0.8913
3619.000000 0.8910 0.8908 0.8905 0.8902 0.8899
3624.000000 0.8897 0.8894 0.8891 0.8888 0.8886
3629.000000 0.8883 0.8880 0.8877 0.8875 0.8871
3634.000000 0.8868 0.8866 0.8863 0.8860 0.8858
3639.000000 0.8855 0.8852 0.8849 0.8847 0.8844
3644.000000 0.8841 0.8838 0.8835 0.8831 0.8828
3649.000000 0.8825 0.8821 0.8818 0.8816 0.8812
3654.000000 0.8809 0.8806 0.8803 0.8799 0.8796
3659.000000 0.8793 0.8790 0.8786 0.8783 0.8780
3664.000000 0.8777 0.8774 0.8771 0.8767 0.8764
3669.000000 0.8761 0.8758 0.8754 0.8751 0.8748
3674.000000 0.8745 0.8742 0.8756 0.8735 0.8732
3679.000000 0.8728 0.8725 0.8721 0.8718 0.8716
3684.000000 0.8713 0.8709 0.8706 0.8702 0.8699
3689.000000 0.8696 0.8693 0.8689 0.8686 0.8683
3694.000000 0.8680 0.8675 0.8673 0.8670 0.8667
3699.000000 0.8663 0.8660 0.8657 0.8654 0.8650
3704.000000 0.8647 0.8644 0.8641 0.8638 0.8636
3709.000000 0.8633 0.8631 0.8628 0.8625 0.8621
3714.000000 0.8620 0.8617 0.8615 0.8612 0.8610
3719.000000 0.8607 0.8605 0.8602 0.8600 0.8597
3724.000000 0.8595 0.8592 0.8590 0.8587 0.8585
3729.000000 0.8582 0.8580 0.8578 0.8575 0.8574
3734.000000 0.8573 0.8571 0.8568 0.8567 0.8566
3739.000000 0.8564 0.8562 0.8560 0.8558 0.8556
3744.000000 0.8555 0.8553 0.8551 0.8549 0.8548
3749.000000 0.8546 0.8544 0.8542 0.8541 0.8539
3754.000000 0.8537 0.8535 0.8534 0.8532 0.8531
3759.000000 0.8530 0.8528 0.8528 0.8527 0.8525
3764.000000 0.8525 0.8524 0.8523 0.8521 0.8521
3769.000000 0.8520 0.8520 0.8518 0.8518 0.8517
3774.000000 0.8516 0.8515 0.8514 0.8513 0.8512
3779.000000 0.8511 0.8510 0.8509 0.8508 0.8507
3784.000000 0.8507 0.8506 0.8505 0.8504 0.8503
3789.000000 0.8502 0.8501 0.8500 0.8499 0.8498
3794.000000 0.8497 0.8496 0.8495 0.8494 0.8493
3799.000000 0.8492 0.8491 0.8490 0.8489 0.8487
3804.000000 0.8486 0.8485 0.8484 0.8483 0.8482
3809.000000 0.8481 0.8480 0.8478 0.8478 0.8477
3814.000000 0.8475 0.8475 0.8474 0.8471 0.8471
3819.000000 0.8470 0.8468 0.8468 0.8467 0.8466
3824.000000 0.8466
##END=
