##TITLE=ETHENE, 1-BROMO-1-CHLORO-
##JCAMP-DX=4.24
##DATA TYPE=INFRARED SPECTRUM
##CLASS=COBLENTZ
##ORIGIN=DOW CHEMICAL COMPANY
##OWNER=COBLENTZ SOCIETY
Collection (C) 2018 copyright by the U.S. Secretary of Commerce
on behalf of the United States of America. All rights reserved.
##DATE=1975/06/18
##NAMES=1-bromo-1-chloroethylene
##CAS REGISTRY NO=17759-85-2
##MOLFORM=C2 H2 Br Cl
##SOURCE REFERENCE=COBLENTZ NO. 10484
##$NIST SOURCE=COBLENTZ
##$NIST IMAGE=cob10484
##SPECTROMETER/DATA SYSTEM=BECKMAN IR-9 (GRATING)
##INSTRUMENT PARAMETERS=ORDER CHANGES AT 670, 1200, 2000 CM^-^1
##STATE=GAS (10 mmHg DILUTED TO A TOTAL PRESSURE OF 600 mmHg WITH N2)
##PATH LENGTH=10 CM CELL
##SAMPLING PROCEDURE=TRANSMISSION
##RESOLUTION=4
##DATA PROCESSING=DIGITIZED BY NIST FROM HARD COPY (FROM TWO SEGMENTS)
##XUNITS=1/CM
##YUNITS=TRANSMITTANCE
##XFACTOR=1.000000
##YFACTOR=1
##DELTAX=0.876682
##FIRSTX=390.415
##LASTX=3798.95
##FIRSTY=0.615
##MAXX=3798.95
##MINX=390.415
##MAXY=0.998
##MINY=0.05
##NPOINTS=3889
##XYDATA=(X++(Y..Y))
390.415000 0.6150 0.6120 0.6100 0.6090 0.6060
394.798409 0.6050 0.6040 0.6020 0.6000 0.5970
399.181819 0.5950 0.5930 0.5910 0.5900 0.5900
403.565228 0.5900 0.5890 0.5890 0.5890 0.5890
407.948638 0.5890 0.5890 0.5890 0.5890 0.5890
412.332047 0.5890 0.5890 0.5890 0.5890 0.5890
416.715457 0.5890 0.5890 0.5900 0.5910 0.5980
421.098866 0.6080 0.6130 0.6190 0.6210 0.6190
425.482276 0.5910 0.5600 0.5280 0.5280 0.6388
429.865685 0.6600 0.6610 0.6680 0.6760 0.6800
434.249094 0.6860 0.6900 0.6940 0.6970 0.7050
438.632504 0.7120 0.7200 0.7260 0.7320 0.7410
443.015913 0.7470 0.7540 0.7630 0.7820 0.7910
447.399323 0.7980 0.8010 0.8060 0.8160 0.8260
451.782732 0.8280 0.8340 0.8410 0.8500 0.8530
456.166142 0.8540 0.8560 0.8600 0.8650 0.8710
460.549551 0.8750 0.8800 0.8820 0.8830 0.8830
464.932961 0.8840 0.8860 0.8860 0.8870 0.8890
469.316370 0.8900 0.8900 0.8910 0.8930 0.8930
473.699779 0.8930 0.8940 0.8950 0.8950 0.8970
478.083189 0.8970 0.8970 0.8980 0.8980 0.9000
482.466598 0.9010 0.9010 0.9020 0.9040 0.9040
486.850008 0.9050 0.9060 0.9060 0.9080 0.9090
491.233417 0.9100 0.9100 0.9100 0.9120 0.9120
495.616827 0.9130 0.9130 0.9150 0.9160 0.9160
500.000236 0.9170 0.9190 0.9190 0.9200 0.9200
504.383646 0.9200 0.9200 0.9200 0.9190 0.9190
508.767055 0.9170 0.9160 0.9130 0.9080 0.9000
513.150464 0.8980 0.8940 0.8870 0.8760 0.8640
517.533874 0.8490 0.8320 0.8151 0.7931 0.7751
521.917283 0.7460 0.7390 0.7300 0.7130 0.7120
526.300693 0.7150 0.7240 0.7429 0.7470 0.7560
530.684102 0.7560 0.7300 0.7270 0.7210 0.7150
535.067512 0.7050 0.6821 0.6750 0.6730 0.6750
539.450921 0.7050 0.7300 0.7729 0.8039 0.8200
543.834331 0.8389 0.8599 0.8759 0.8870 0.8930
548.217740 0.8970 0.9020 0.9090 0.9160 0.9210
552.601149 0.9270 0.9310 0.9350 0.9380 0.9420
556.984559 0.9460 0.9500 0.9540 0.9570 0.9610
561.367968 0.9650 0.9670 0.9680 0.9680 0.9690
565.751378 0.9690 0.9690 0.9710 0.9710 0.9720
570.134787 0.9720 0.9720 0.9730 0.9730 0.9750
574.518197 0.9750 0.9750 0.9750 0.9750 0.9750
578.901606 0.9750 0.9750 0.9750 0.9760 0.9760
583.285016 0.9760 0.9780 0.9780 0.9780 0.9780
587.668425 0.9790 0.9790 0.9790 0.9790 0.9790
592.051834 0.9790 0.9790 0.9790 0.9790 0.9780
596.435244 0.9780 0.9780 0.9780 0.9780 0.9780
600.818653 0.9780 0.9780 0.9780 0.9780 0.9780
605.202063 0.9780 0.9780 0.9780 0.9780 0.9780
609.585472 0.9760 0.9760 0.9760 0.9750 0.9750
613.968882 0.9750 0.9750 0.9730 0.9720 0.9720
618.352291 0.9720 0.9720 0.9730 0.9750 0.9760
622.735701 0.9760 0.9780 0.9760 0.9760 0.9760
627.119110 0.9750 0.9750 0.9730 0.9730 0.9730
631.502520 0.9730 0.9730 0.9750 0.9750 0.9760
635.885929 0.9760 0.9780 0.9780 0.9780 0.9780
640.269338 0.9780 0.9760 0.9760 0.9750 0.9750
644.652748 0.9750 0.9750 0.9760 0.9760 0.9760
649.036157 0.9760 0.9760 0.9760 0.9780 0.9780
653.419567 0.9780 0.9760 0.9760 0.9750 0.9750
657.802976 0.9750 0.9750 0.9750 0.9750 0.9750
662.186386 0.9750 0.9750 0.9730 0.9730 0.9730
666.569795 0.9690 0.9640 0.9600 0.9600 0.9749
670.953205 0.9790 0.9790 0.9720 0.9650 0.9630
675.336614 0.9630 0.9710 0.9690 0.9680 0.9670
679.720023 0.9650 0.9640 0.9610 0.9600 0.9580
684.103433 0.9570 0.9570 0.9560 0.9540 0.9530
688.486842 0.9530 0.9520 0.9520 0.9500 0.9490
692.870252 0.9460 0.9460 0.9450 0.9450 0.9430
697.253661 0.9420 0.9420 0.9410 0.9410 0.9390
701.637071 0.9380 0.9380 0.9360 0.9350 0.9350
706.020480 0.9340 0.9340 0.9340 0.9320 0.9320
710.403890 0.9320 0.9310 0.9310 0.9310 0.9300
714.787299 0.9300 0.9280 0.9280 0.9280 0.9280
719.170708 0.9280 0.9280 0.9270 0.9260 0.9260
723.554118 0.9240 0.9240 0.9230 0.9210 0.9190
727.937527 0.9160 0.9130 0.9120 0.9060 0.9010
732.320937 0.8970 0.8930 0.8890 0.8800 0.8690
736.704346 0.8520 0.8360 0.8190 0.8040 0.7562
741.087756 0.7119 0.6410 0.6190 0.5540 0.4971
745.471165 0.4311 0.3452 0.3081 0.2542 0.2132
749.854575 0.1280 0.1060 0.0950 0.0840 0.0830
754.237984 0.0710 0.0630 0.0600 0.0580 0.0580
758.621393 0.0580 0.0600 0.0610 0.0640 0.0710
763.004803 0.0760 0.0900 0.0910 0.0761 0.0561
767.388212 0.0500 0.0500 0.1579 0.2129 0.3537
771.771622 0.4079 0.4748 0.5378 0.6207 0.6837
776.155031 0.7581 0.8120 0.8360 0.8530 0.8610
780.538441 0.8939 0.9020 0.9130 0.9160 0.9210
784.921850 0.9300 0.9340 0.9360 0.9390 0.9450
789.305260 0.9460 0.9470 0.9500 0.9520 0.9540
793.688669 0.9540 0.9560 0.9560 0.9570 0.9570
798.072078 0.9570 0.9580 0.9580 0.9580 0.9600
802.455488 0.9580 0.9580 0.9580 0.9570 0.9570
806.838897 0.9570 0.9570 0.9560 0.9540 0.9540
811.222307 0.9530 0.9520 0.9520 0.9520 0.9500
815.605716 0.9490 0.9490 0.9490 0.9470 0.9460
819.989126 0.9460 0.9460 0.9450 0.9450 0.9430
824.372535 0.9430 0.9420 0.9420 0.9420 0.9430
828.755945 0.9430 0.9430 0.9450 0.9450 0.9450
833.139354 0.9450 0.9430 0.9430 0.9420 0.9410
837.522763 0.9410 0.9390 0.9380 0.9360 0.9320
841.906173 0.9210 0.9150 0.9100 0.8980 0.8900
846.289582 0.8750 0.8610 0.8500 0.8360 0.8210
850.672992 0.8010 0.7541 0.7271 0.7101 0.6971
855.056401 0.6780 0.6450 0.6240 0.5980 0.5780
859.439811 0.5640 0.5411 0.5211 0.5081 0.4821
863.823220 0.4600 0.4560 0.4490 0.4150 0.4120
868.206630 0.3750 0.3750 0.5256 0.2389 0.1164
872.590039 0.1162 0.3201 0.4210 0.5020 0.5020
876.973448 0.4311 0.4310 0.4460 0.4470 0.4490
881.356858 0.4500 0.4530 0.4600 0.4670 0.4790
885.740267 0.4980 0.5259 0.5449 0.5649 0.5789
890.123677 0.6150 0.6470 0.6760 0.7100 0.7350
894.507086 0.7470 0.7759 0.7949 0.8269 0.8429
898.890496 0.8560 0.8760 0.8820 0.9090 0.9200
903.273905 0.9320 0.9340 0.9350 0.9380 0.9380
907.657315 0.9450 0.9580 0.9600 0.9650 0.9670
912.040724 0.9680 0.9680 0.9680 0.9680 0.9690
916.424133 0.9690 0.9690 0.9690 0.9690 0.9710
920.807543 0.9710 0.9720 0.9730 0.9730 0.9730
925.190952 0.9730 0.9750 0.9760 0.9760 0.9760
929.574362 0.9760 0.9760 0.9760 0.9780 0.9780
933.957771 0.9790 0.9790 0.9800 0.9800 0.9790
938.341181 0.9790 0.9780 0.9780 0.9780 0.9780
942.724590 0.9760 0.9760 0.9760 0.9750 0.9750
947.108000 0.9750 0.9730 0.9730 0.9730 0.9720
951.491409 0.9720 0.9720 0.9720 0.9710 0.9690
955.874818 0.9680 0.9680 0.9680 0.9680 0.9680
960.258228 0.9690 0.9720 0.9730 0.9730 0.9720
964.641637 0.9720 0.9720 0.9720 0.9720 0.9730
969.025047 0.9720 0.9720 0.9730 0.9730 0.9730
973.408456 0.9730 0.9730 0.9730 0.9730 0.9730
977.791866 0.9750 0.9750 0.9730 0.9730 0.9730
982.175275 0.9730 0.9720 0.9710 0.9690 0.9690
986.558685 0.9680 0.9670 0.9650 0.9640 0.9640
990.942094 0.9630 0.9630 0.9610 0.9600 0.9580
995.325503 0.9570 0.9570 0.9580 0.9600 0.9600
999.708913 0.9600 0.9600 0.9600 0.9600 0.9600
1004.092322 0.9600 0.9610 0.9610 0.9610 0.9630
1008.475732 0.9630 0.9630 0.9640 0.9640 0.9640
1012.859141 0.9640 0.9650 0.9650 0.9670 0.9680
1017.242551 0.9690 0.9690 0.9690 0.9710 0.9690
1021.625960 0.9690 0.9690 0.9710 0.9720 0.9720
1026.009370 0.9730 0.9750 0.9760 0.9760 0.9760
1030.392779 0.9750 0.9730 0.9710 0.9680 0.9640
1034.776188 0.9610 0.9580 0.9570 0.9560 0.9500
1039.159598 0.9470 0.9470 0.9460 0.9450 0.9410
1043.543007 0.9410 0.9380 0.9350 0.9340 0.9320
1047.926417 0.9270 0.9200 0.9170 0.9010 0.8900
1052.309826 0.8680 0.8580 0.8380 0.8191 0.7891
1056.693236 0.7539 0.7100 0.6600 0.6190 0.4351
1061.076645 0.3531 0.3490 0.3051 0.2641 0.2231
1065.460055 0.1940 0.1630 0.1310 0.1010 0.1000
1069.843464 0.1010 0.1269 0.2357 0.2390 0.2231
1074.226874 0.2020 0.2020 0.2710 0.2720 0.2001
1078.610283 0.1750 0.1451 0.1151 0.1150 0.2515
1082.993692 0.2531 0.2931 0.3320 0.3720 0.5150
1087.377102 0.5949 0.6419 0.7009 0.7269 0.7459
1091.760511 0.7780 0.7800 0.7800 0.7450 0.7090
1096.143921 0.6471 0.5951 0.5451 0.4832 0.4651
1100.527330 0.4530 0.4210 0.4200 0.4680 0.4900
1104.910740 0.4900 0.4022 0.3471 0.4058 0.4947
1109.294149 0.6460 0.6309 0.4760 0.4390 0.4260
1113.677559 0.4230 0.4240 0.4469 0.4679 0.5268
1118.060968 0.5801 0.6260 0.6630 0.7260 0.7839
1122.444377 0.8409 0.8640 0.8800 0.9049 0.9189
1126.827787 0.9350 0.9420 0.9540 0.9580 0.9640
1131.211196 0.9670 0.9710 0.9730 0.9760 0.9780
1135.594606 0.9790 0.9800 0.9800 0.9800 0.9790
1139.978015 0.9800 0.9800 0.9820 0.9820 0.9830
1144.361425 0.9830 0.9830 0.9820 0.9820 0.9820
1148.744834 0.9820 0.9820 0.9820 0.9830 0.9860
1153.128244 0.9870 0.9870 0.9870 0.9870 0.9860
1157.511653 0.9860 0.9860 0.9840 0.9830 0.9830
1161.895062 0.9830 0.9830 0.9830 0.9830 0.9830
1166.278472 0.9830 0.9830 0.9830 0.9830 0.9830
1170.661881 0.9830 0.9830 0.9830 0.9830 0.9830
1175.045291 0.9830 0.9830 0.9830 0.9830 0.9830
1179.428700 0.9830 0.9830 0.9830 0.9830 0.9830
1183.812110 0.9830 0.9830 0.9830 0.9830 0.9840
1188.195519 0.9840 0.9840 0.9840 0.9860 0.9860
1192.578929 0.9860 0.9860 0.9860 0.9860 0.9840
1196.962338 0.9840 0.9840 0.9840 0.9830 0.9830
1201.345747 0.9840 0.9860 0.9860 0.9870 0.9890
1205.729157 0.9870 0.9890 0.9900 0.9910 0.9930
1210.112566 0.9930 0.9930 0.9910 0.9910 0.9900
1214.495976 0.9900 0.9900 0.9900 0.9890 0.9870
1218.879385 0.9860 0.9860 0.9870 0.9910 0.9950
1223.262795 0.9970 0.9970 0.9950 0.9950 0.9950
1227.646204 0.9950 0.9950 0.9950 0.9950 0.9950
1232.029614 0.9950 0.9950 0.9950 0.9950 0.9950
1236.413023 0.9950 0.9940 0.9950 0.9950 0.9950
1240.796432 0.9940 0.9940 0.9930 0.9910 0.9910
1245.179842 0.9900 0.9900 0.9900 0.9910 0.9910
1249.563251 0.9930 0.9940 0.9970 0.9970 0.9950
1253.946661 0.9950 0.9940 0.9940 0.9940 0.9940
1258.330070 0.9930 0.9900 0.9890 0.9890 0.9870
1262.713480 0.9860 0.9860 0.9870 0.9890 0.9870
1267.096889 0.9860 0.9830 0.9820 0.9820 0.9820
1271.480299 0.9800 0.9790 0.9710 0.9680 0.9600
1275.863708 0.9570 0.9560 0.9490 0.9420 0.9390
1280.247117 0.9360 0.9350 0.9340 0.9320 0.9280
1284.630527 0.9240 0.9200 0.9160 0.9120 0.9080
1289.013936 0.9060 0.9060 0.9060 0.9060 0.9050
1293.397346 0.9040 0.9040 0.9260 0.9280 0.9280
1297.780755 0.9270 0.9260 0.9240 0.9200 0.9150
1302.164165 0.9260 0.9360 0.9470 0.9490 0.9570
1306.547574 0.9580 0.9650 0.9670 0.9690 0.9730
1310.930984 0.9780 0.9790 0.9800 0.9800 0.9820
1315.314393 0.9840 0.9870 0.9900 0.9910 0.9910
1319.697802 0.9930 0.9930 0.9930 0.9940 0.9940
1324.081212 0.9940 0.9940 0.9940 0.9940 0.9950
1328.464621 0.9950 0.9950 0.9950 0.9970 0.9980
1332.848031 0.9980 0.9980 0.9970 0.9970 0.9970
1337.231440 0.9950 0.9950 0.9950 0.9950 0.9950
1341.614850 0.9950 0.9950 0.9940 0.9940 0.9940
1345.998259 0.9940 0.9940 0.9940 0.9940 0.9930
1350.381669 0.9930 0.9910 0.9910 0.9910 0.9900
1354.765078 0.9890 0.9890 0.9870 0.9860 0.9860
1359.148487 0.9840 0.9840 0.9820 0.9800 0.9790
1363.531897 0.9790 0.9780 0.9790 0.9800 0.9800
1367.915306 0.9800 0.9830 0.9830 0.9830 0.9820
1372.298716 0.9800 0.9790 0.9790 0.9790 0.9780
1376.682125 0.9780 0.9760 0.9780 0.9780 0.9780
1381.065535 0.9790 0.9800 0.9820 0.9820 0.9820
1385.448944 0.9820 0.9800 0.9800 0.9790 0.9790
1389.832354 0.9800 0.9800 0.9820 0.9820 0.9830
1394.215763 0.9830 0.9830 0.9820 0.9830 0.9860
1398.599172 0.9870 0.9870 0.9870 0.9870 0.9890
1402.982582 0.9870 0.9870 0.9870 0.9870 0.9890
1407.365991 0.9890 0.9900 0.9900 0.9900 0.9910
1411.749401 0.9900 0.9900 0.9900 0.9900 0.9900
1416.132810 0.9900 0.9890 0.9890 0.9870 0.9870
1420.516220 0.9870 0.9870 0.9890 0.9900 0.9900
1424.899629 0.9900 0.9890 0.9890 0.9900 0.9900
1429.283039 0.9900 0.9900 0.9900 0.9900 0.9900
1433.666448 0.9900 0.9900 0.9900 0.9910 0.9910
1438.049857 0.9900 0.9910 0.9910 0.9910 0.9910
1442.433267 0.9930 0.9930 0.9930 0.9930 0.9930
1446.816676 0.9930 0.9930 0.9930 0.9930 0.9930
1451.200086 0.9930 0.9910 0.9900 0.9900 0.9890
1455.583495 0.9900 0.9900 0.9890 0.9870 0.9890
1459.966905 0.9890 0.9900 0.9910 0.9910 0.9890
1464.350314 0.9890 0.9870 0.9860 0.9860 0.9860
1468.733724 0.9860 0.9860 0.9860 0.9840 0.9820
1473.117133 0.9790 0.9730 0.9720 0.9710 0.9650
1477.500542 0.9570 0.9570 0.9560 0.9560 0.9570
1481.883952 0.9570 0.9580 0.9580 0.9570 0.9540
1486.267361 0.9530 0.9540 0.9560 0.9570 0.9600
1490.650771 0.9630 0.9670 0.9680 0.9670 0.9640
1495.034180 0.9630 0.9610 0.9600 0.9570 0.9540
1499.417590 0.9520 0.9490 0.9450 0.9380 0.9340
1503.800999 0.9320 0.9300 0.9260 0.9230 0.9160
1508.184409 0.9150 0.9150 0.9150 0.9160 0.9160
1512.567818 0.9160 0.9160 0.9160 0.9160 0.9160
1516.951228 0.9170 0.9170 0.9170 0.9190 0.9190
1521.334637 0.9190 0.9190 0.9200 0.9230 0.9280
1525.718046 0.9310 0.9340 0.9420 0.9500 0.9570
1530.101456 0.9580 0.9630 0.9650 0.9650 0.9610
1534.484865 0.9600 0.9580 0.9600 0.9630 0.9640
1538.868275 0.9670 0.9650 0.9640 0.9640 0.9650
1543.251684 0.9720 0.9750 0.9780 0.9780 0.9750
1547.635094 0.9730 0.9720 0.9710 0.9710 0.9710
1552.018503 0.9720 0.9760 0.9760 0.9760 0.9780
1556.401913 0.9780 0.9780 0.9760 0.9750 0.9730
1560.785322 0.9730 0.9730 0.9730 0.9730 0.9730
1565.168731 0.9720 0.9710 0.9680 0.9610 0.9580
1569.552141 0.9560 0.9530 0.9490 0.9410 0.9320
1573.935550 0.9170 0.9160 0.9130 0.9020 0.8940
1578.318960 0.8910 0.8720 0.8580 0.8500 0.8320
1582.702369 0.8159 0.7780 0.7560 0.7270 0.6940
1587.085779 0.6780 0.6460 0.6170 0.6020 0.5781
1591.469188 0.5269 0.4709 0.4319 0.3950 0.3650
1595.852598 0.3410 0.3230 0.3040 0.2860 0.2750
1600.236007 0.2420 0.2390 0.2390 0.2420 0.2640
1604.619416 0.2690 0.2790 0.2830 0.2870 0.2890
1609.002826 0.2900 0.2910 0.2909 0.2280 0.2090
1613.386235 0.1980 0.1970 0.1980 0.2569 0.2859
1617.769645 0.3310 0.3471 0.3901 0.4301 0.4690
1622.153054 0.5150 0.5830 0.6040 0.6060 0.6230
1626.536464 0.6521 0.6780 0.6971 0.7270 0.7430
1630.919873 0.7530 0.7830 0.8020 0.8320 0.8350
1635.303283 0.8390 0.8521 0.8790 0.8860 0.8930
1639.686692 0.9010 0.9060 0.9130 0.9150 0.9200
1644.070101 0.9240 0.9240 0.9260 0.9270 0.9280
1648.453511 0.9340 0.9390 0.9450 0.9450 0.9460
1652.836920 0.9460 0.9490 0.9500 0.9530 0.9560
1657.220330 0.9610 0.9650 0.9680 0.9710 0.9710
1661.603739 0.9710 0.9730 0.9730 0.9760 0.9760
1665.987149 0.9760 0.9760 0.9760 0.9760 0.9760
1670.370558 0.9760 0.9780 0.9780 0.9790 0.9790
1674.753968 0.9790 0.9790 0.9790 0.9790 0.9790
1679.137377 0.9790 0.9790 0.9790 0.9800 0.9800
1683.520786 0.9800 0.9800 0.9800 0.9800 0.9820
1687.904196 0.9820 0.9820 0.9820 0.9820 0.9820
1692.287605 0.9820 0.9820 0.9820 0.9820 0.9820
1696.671015 0.9820 0.9820 0.9820 0.9820 0.9820
1701.054424 0.9820 0.9820 0.9820 0.9820 0.9820
1705.437834 0.9820 0.9820 0.9820 0.9820 0.9820
1709.821243 0.9800 0.9800 0.9800 0.9800 0.9800
1714.204653 0.9800 0.9800 0.9790 0.9790 0.9790
1718.588062 0.9780 0.9780 0.9780 0.9780 0.9780
1722.971471 0.9780 0.9780 0.9780 0.9780 0.9760
1727.354881 0.9760 0.9750 0.9730 0.9720 0.9720
1731.738290 0.9710 0.9680 0.9630 0.9630 0.9600
1736.121700 0.9600 0.9580 0.9570 0.9560 0.9490
1740.505109 0.9470 0.9450 0.9420 0.9390 0.9360
1744.888519 0.9340 0.9320 0.9240 0.9210 0.9200
1749.271928 0.9200 0.9230 0.9260 0.9340 0.9450
1753.655338 0.9520 0.9520 0.9430 0.9340 0.9240
1758.038747 0.9230 0.9210 0.9210 0.9210 0.9230
1762.422156 0.9260 0.9350 0.9390 0.9410 0.9450
1766.805566 0.9470 0.9490 0.9520 0.9560 0.9580
1771.188975 0.9600 0.9650 0.9680 0.9690 0.9710
1775.572385 0.9720 0.9730 0.9750 0.9760 0.9780
1779.955794 0.9780 0.9790 0.9790 0.9790 0.9800
1784.339204 0.9800 0.9800 0.9800 0.9820 0.9820
1788.722613 0.9830 0.9820 0.9820 0.9820 0.9820
1793.106023 0.9820 0.9820 0.9800 0.9800 0.9800
1797.489432 0.9800 0.9800 0.9820 0.9820 0.9820
1801.872841 0.9820 0.9820 0.9820 0.9820 0.9820
1806.256251 0.9820 0.9800 0.9800 0.9800 0.9800
1810.639660 0.9800 0.9790 0.9790 0.9790 0.9790
1815.023070 0.9780 0.9780 0.9780 0.9760 0.9760
1819.406479 0.9750 0.9750 0.9750 0.9750 0.9750
1823.789889 0.9750 0.9750 0.9730 0.9730 0.9730
1828.173298 0.9730 0.9730 0.9750 0.9730 0.9730
1832.556708 0.9730 0.9730 0.9730 0.9730 0.9730
1836.940117 0.9730 0.9730 0.9730 0.9730 0.9730
1841.323526 0.9750 0.9750 0.9750 0.9750 0.9760
1845.706936 0.9760 0.9760 0.9760 0.9780 0.9780
1850.090345 0.9780 0.9790 0.9800 0.9800 0.9800
1854.473755 0.9800 0.9800 0.9820 0.9820 0.9820
1858.857164 0.9820 0.9820 0.9830 0.9830 0.9830
1863.240574 0.9830 0.9830 0.9830 0.9830 0.9830
1867.623983 0.9830 0.9840 0.9840 0.9840 0.9840
1872.007393 0.9840 0.9840 0.9840 0.9840 0.9840
1876.390802 0.9840 0.9840 0.9840 0.9840 0.9840
1880.774211 0.9860 0.9860 0.9860 0.9860 0.9860
1885.157621 0.9860 0.9860 0.9860 0.9860 0.9860
1889.541030 0.9860 0.9860 0.9860 0.9860 0.9860
1893.924440 0.9860 0.9860 0.9860 0.9860 0.9870
1898.307849 0.9870 0.9870 0.9870 0.9870 0.9870
1902.691259 0.9870 0.9870 0.9890 0.9870 0.9870
1907.074668 0.9870 0.9860 0.9860 0.9860 0.9870
1911.458078 0.9860 0.9860 0.9860 0.9860 0.9860
1915.841487 0.9860 0.9860 0.9860 0.9860 0.9860
1920.224896 0.9860 0.9860 0.9860 0.9860 0.9860
1924.608306 0.9870 0.9870 0.9870 0.9870 0.9870
1928.991715 0.9870 0.9870 0.9860 0.9860 0.9840
1933.375125 0.9840 0.9840 0.9830 0.9830 0.9830
1937.758534 0.9830 0.9830 0.9830 0.9830 0.9830
1942.141944 0.9830 0.9830 0.9830 0.9830 0.9830
1946.525353 0.9820 0.9820 0.9820 0.9820 0.9820
1950.908763 0.9820 0.9820 0.9820 0.9820 0.9820
1955.292172 0.9830 0.9830 0.9830 0.9830 0.9830
1959.675581 0.9830 0.9830 0.9830 0.9830 0.9830
1964.058991 0.9820 0.9820 0.9820 0.9820 0.9820
1968.442400 0.9820 0.9820 0.9820 0.9820 0.9820
1972.825810 0.9820 0.9820 0.9820 0.9820 0.9800
1977.209219 0.9800 0.9800 0.9800 0.9800 0.9800
1981.592629 0.9800 0.9800 0.9790 0.9790 0.9790
1985.976038 0.9790 0.9790 0.9790 0.9790 0.9790
1990.359448 0.9790 0.9790 0.9790 0.9800 0.9800
1994.742857 0.9800 0.9800 0.9800 0.9790 0.9780
1999.126267 0.9780 0.9760 0.9760 0.9760 0.9770
2003.509676 0.9780 0.9785 0.9790 0.9795 0.9800
2007.893085 0.9815 0.9830 0.9830 0.9830 0.9835
2012.276495 0.9840 0.9840 0.9840 0.9850 0.9860
2016.659904 0.9860 0.9860 0.9865 0.9870 0.9870
2021.043314 0.9870 0.9870 0.9870 0.9870 0.9870
2025.426723 0.9870 0.9870 0.9870 0.9871 0.9881
2029.810133 0.9890 0.9890 0.9890 0.9890 0.9890
2034.193542 0.9890 0.9890 0.9890 0.9890 0.9890
2038.576952 0.9890 0.9890 0.9890 0.9890 0.9890
2042.960361 0.9890 0.9890 0.9890 0.9890 0.9890
2047.343770 0.9890 0.9890 0.9890 0.9890 0.9890
2051.727180 0.9890 0.9890 0.9890 0.9890 0.9890
2056.110589 0.9890 0.9890 0.9891 0.9896 0.9900
2060.493999 0.9900 0.9900 0.9900 0.9900 0.9900
2064.877408 0.9900 0.9900 0.9900 0.9900 0.9900
2069.260818 0.9900 0.9900 0.9900 0.9900 0.9900
2073.644227 0.9901 0.9906 0.9910 0.9910 0.9910
2078.027637 0.9910 0.9910 0.9910 0.9910 0.9910
2082.411046 0.9910 0.9910 0.9910 0.9910 0.9910
2086.794455 0.9910 0.9910 0.9910 0.9910 0.9910
2091.177865 0.9910 0.9910 0.9910 0.9910 0.9910
2095.561274 0.9910 0.9910 0.9910 0.9910 0.9910
2099.944684 0.9910 0.9910 0.9910 0.9910 0.9910
2104.328093 0.9910 0.9910 0.9910 0.9910 0.9910
2108.711503 0.9910 0.9910 0.9910 0.9910 0.9910
2113.094912 0.9910 0.9910 0.9910 0.9910 0.9910
2117.478322 0.9909 0.9904 0.9900 0.9900 0.9900
2121.861731 0.9900 0.9900 0.9900 0.9900 0.9900
2126.245140 0.9900 0.9900 0.9900 0.9900 0.9900
2130.628550 0.9900 0.9900 0.9900 0.9900 0.9900
2135.011959 0.9900 0.9900 0.9900 0.9900 0.9900
2139.395369 0.9900 0.9900 0.9900 0.9900 0.9900
2143.778778 0.9898 0.9893 0.9890 0.9890 0.9890
2148.162188 0.9890 0.9890 0.9890 0.9890 0.9890
2152.545597 0.9890 0.9890 0.9890 0.9890 0.9890
2156.929007 0.9890 0.9890 0.9890 0.9890 0.9890
2161.312416 0.9890 0.9890 0.9890 0.9890 0.9892
2165.695825 0.9897 0.9900 0.9900 0.9900 0.9900
2170.079235 0.9900 0.9900 0.9900 0.9900 0.9900
2174.462644 0.9900 0.9902 0.9907 0.9910 0.9910
2178.846054 0.9910 0.9910 0.9910 0.9910 0.9910
2183.229463 0.9910 0.9910 0.9910 0.9910 0.9910
2187.612873 0.9910 0.9910 0.9910 0.9910 0.9910
2191.996282 0.9910 0.9910 0.9910 0.9910 0.9910
2196.379692 0.9910 0.9910 0.9910 0.9910 0.9910
2200.763101 0.9910 0.9910 0.9910 0.9910 0.9910
2205.146510 0.9908 0.9903 0.9900 0.9900 0.9900
2209.529920 0.9900 0.9900 0.9900 0.9900 0.9900
2213.913329 0.9900 0.9900 0.9900 0.9900 0.9900
2218.296739 0.9900 0.9898 0.9893 0.9890 0.9890
2222.680148 0.9890 0.9890 0.9890 0.9890 0.9890
2227.063558 0.9890 0.9890 0.9890 0.9890 0.9890
2231.446967 0.9890 0.9890 0.9890 0.9890 0.9890
2235.830377 0.9890 0.9890 0.9890 0.9890 0.9890
2240.213786 0.9890 0.9890 0.9890 0.9890 0.9890
2244.597195 0.9890 0.9890 0.9890 0.9890 0.9890
2248.980605 0.9890 0.9890 0.9890 0.9890 0.9890
2253.364014 0.9890 0.9890 0.9890 0.9890 0.9890
2257.747424 0.9890 0.9890 0.9890 0.9890 0.9884
2262.130833 0.9874 0.9870 0.9870 0.9870 0.9870
2266.514243 0.9870 0.9870 0.9870 0.9870 0.9870
2270.897652 0.9870 0.9870 0.9870 0.9870 0.9870
2275.281062 0.9870 0.9870 0.9870 0.9870 0.9876
2279.664471 0.9886 0.9890 0.9890 0.9890 0.9890
2284.047880 0.9890 0.9890 0.9890 0.9890 0.9890
2288.431290 0.9890 0.9890 0.9890 0.9890 0.9890
2292.814699 0.9890 0.9890 0.9890 0.9890 0.9893
2297.198109 0.9898 0.9900 0.9900 0.9900 0.9900
2301.581518 0.9900 0.9900 0.9900 0.9900 0.9900
2305.964928 0.9900 0.9903 0.9908 0.9910 0.9910
2310.348337 0.9910 0.9910 0.9910 0.9910 0.9910
2314.731747 0.9910 0.9910 0.9910 0.9917 0.9927
2319.115156 0.9923 0.9913 0.9910 0.9910 0.9910
2323.498565 0.9910 0.9910 0.9910 0.9910 0.9910
2327.881975 0.9910 0.9910 0.9917 0.9927 0.9930
2332.265384 0.9930 0.9934 0.9939 0.9940 0.9940
2336.648794 0.9940 0.9940 0.9940 0.9940 0.9940
2341.032203 0.9940 0.9940 0.9940 0.9940 0.9940
2345.415613 0.9940 0.9940 0.9940 0.9940 0.9940
2349.799022 0.9940 0.9940 0.9940 0.9940 0.9940
2354.182432 0.9940 0.9940 0.9940 0.9940 0.9936
2358.565841 0.9931 0.9930 0.9930 0.9930 0.9930
2362.949250 0.9930 0.9930 0.9930 0.9930 0.9930
2367.332660 0.9930 0.9922 0.9912 0.9910 0.9910
2371.716069 0.9906 0.9901 0.9900 0.9900 0.9888
2376.099479 0.9873 0.9870 0.9870 0.9866 0.9861
2380.482888 0.9848 0.9833 0.9830 0.9830 0.9817
2384.866298 0.9802 0.9800 0.9800 0.9796 0.9791
2389.249707 0.9790 0.9790 0.9794 0.9799 0.9800
2393.633117 0.9800 0.9800 0.9800 0.9800 0.9800
2398.016526 0.9800 0.9800 0.9809 0.9819 0.9820
2402.399935 0.9820 0.9820 0.9820 0.9824 0.9829
2406.783345 0.9830 0.9830 0.9830 0.9830 0.9830
2411.166754 0.9830 0.9830 0.9830 0.9830 0.9830
2415.550164 0.9830 0.9830 0.9825 0.9820 0.9820
2419.933573 0.9820 0.9820 0.9820 0.9820 0.9820
2424.316983 0.9820 0.9820 0.9820 0.9820 0.9820
2428.700392 0.9820 0.9825 0.9830 0.9830 0.9830
2433.083802 0.9830 0.9830 0.9830 0.9830 0.9830
2437.467211 0.9830 0.9830 0.9830 0.9830 0.9830
2441.850621 0.9830 0.9830 0.9830 0.9830 0.9830
2446.234030 0.9830 0.9830 0.9830 0.9825 0.9820
2450.617439 0.9820 0.9820 0.9820 0.9820 0.9820
2455.000849 0.9820 0.9820 0.9820 0.9810 0.9800
2459.384258 0.9800 0.9800 0.9800 0.9800 0.9800
2463.767668 0.9800 0.9810 0.9820 0.9820 0.9820
2468.151077 0.9820 0.9820 0.9820 0.9820 0.9820
2472.534487 0.9820 0.9820 0.9820 0.9820 0.9820
2476.917896 0.9820 0.9820 0.9820 0.9820 0.9820
2481.301306 0.9820 0.9810 0.9800 0.9800 0.9801
2485.684715 0.9811 0.9819 0.9809 0.9800 0.9800
2490.068124 0.9800 0.9800 0.9800 0.9795 0.9790
2494.451534 0.9790 0.9790 0.9790 0.9790 0.9790
2498.834943 0.9790 0.9790 0.9790 0.9790 0.9790
2503.218353 0.9790 0.9790 0.9790 0.9790 0.9790
2507.601762 0.9790 0.9790 0.9790 0.9790 0.9790
2511.985172 0.9790 0.9790 0.9790 0.9790 0.9790
2516.368581 0.9790 0.9790 0.9790 0.9790 0.9790
2520.751991 0.9790 0.9790 0.9790 0.9790 0.9790
2525.135400 0.9790 0.9790 0.9790 0.9790 0.9790
2529.518809 0.9790 0.9790 0.9790 0.9790 0.9790
2533.902219 0.9790 0.9790 0.9790 0.9790 0.9790
2538.285628 0.9790 0.9790 0.9790 0.9790 0.9790
2542.669038 0.9790 0.9790 0.9790 0.9790 0.9789
2547.052447 0.9784 0.9780 0.9780 0.9780 0.9780
2551.435857 0.9780 0.9780 0.9780 0.9780 0.9780
2555.819266 0.9780 0.9780 0.9780 0.9778 0.9768
2560.202676 0.9760 0.9760 0.9760 0.9760 0.9760
2564.586085 0.9760 0.9760 0.9760 0.9760 0.9760
2568.969494 0.9760 0.9760 0.9760 0.9760 0.9760
2573.352904 0.9760 0.9760 0.9760 0.9760 0.9760
2577.736313 0.9760 0.9760 0.9760 0.9760 0.9760
2582.119723 0.9760 0.9760 0.9760 0.9760 0.9760
2586.503132 0.9760 0.9760 0.9759 0.9754 0.9750
2590.886542 0.9750 0.9750 0.9750 0.9750 0.9750
2595.269951 0.9747 0.9737 0.9730 0.9730 0.9730
2599.653361 0.9730 0.9730 0.9730 0.9728 0.9723
2604.036770 0.9720 0.9720 0.9720 0.9720 0.9720
2608.420179 0.9720 0.9720 0.9720 0.9720 0.9720
2612.803589 0.9720 0.9720 0.9718 0.9713 0.9710
2617.186998 0.9710 0.9710 0.9710 0.9710 0.9710
2621.570408 0.9710 0.9710 0.9710 0.9710 0.9710
2625.953817 0.9710 0.9710 0.9710 0.9710 0.9710
2630.337227 0.9710 0.9710 0.9710 0.9710 0.9710
2634.720636 0.9710 0.9710 0.9710 0.9710 0.9710
2639.104046 0.9710 0.9710 0.9710 0.9710 0.9710
2643.487455 0.9710 0.9710 0.9710 0.9710 0.9710
2647.870864 0.9710 0.9710 0.9710 0.9710 0.9710
2652.254274 0.9710 0.9710 0.9710 0.9710 0.9710
2656.637683 0.9706 0.9696 0.9690 0.9690 0.9690
2661.021093 0.9690 0.9690 0.9690 0.9690 0.9690
2665.404502 0.9688 0.9683 0.9680 0.9680 0.9680
2669.787912 0.9680 0.9680 0.9680 0.9680 0.9680
2674.171321 0.9680 0.9680 0.9678 0.9673 0.9670
2678.554731 0.9670 0.9670 0.9670 0.9670 0.9670
2682.938140 0.9670 0.9670 0.9670 0.9670 0.9665
2687.321549 0.9655 0.9650 0.9650 0.9650 0.9650
2691.704959 0.9650 0.9650 0.9650 0.9650 0.9650
2696.088368 0.9650 0.9650 0.9650 0.9647 0.9642
2700.471778 0.9640 0.9640 0.9640 0.9640 0.9640
2704.855187 0.9640 0.9640 0.9640 0.9640 0.9640
2709.238597 0.9640 0.9640 0.9640 0.9640 0.9640
2713.622006 0.9640 0.9640 0.9640 0.9640 0.9640
2718.005416 0.9640 0.9640 0.9640 0.9640 0.9640
2722.388825 0.9640 0.9640 0.9640 0.9640 0.9640
2726.772234 0.9640 0.9640 0.9640 0.9640 0.9640
2731.155644 0.9640 0.9640 0.9640 0.9640 0.9640
2735.539053 0.9640 0.9640 0.9640 0.9640 0.9640
2739.922463 0.9640 0.9640 0.9640 0.9640 0.9640
2744.305872 0.9640 0.9640 0.9640 0.9640 0.9640
2748.689282 0.9640 0.9640 0.9640 0.9640 0.9640
2753.072691 0.9640 0.9640 0.9640 0.9640 0.9640
2757.456101 0.9640 0.9640 0.9640 0.9640 0.9640
2761.839510 0.9640 0.9640 0.9640 0.9640 0.9640
2766.222919 0.9640 0.9640 0.9640 0.9640 0.9640
2770.606329 0.9640 0.9640 0.9640 0.9640 0.9640
2774.989738 0.9640 0.9637 0.9632 0.9630 0.9630
2779.373148 0.9630 0.9630 0.9630 0.9630 0.9630
2783.756557 0.9630 0.9630 0.9630 0.9630 0.9630
2788.139967 0.9630 0.9630 0.9630 0.9630 0.9630
2792.523376 0.9630 0.9623 0.9613 0.9610 0.9610
2796.906786 0.9610 0.9610 0.9610 0.9610 0.9610
2801.290195 0.9610 0.9610 0.9610 0.9610 0.9610
2805.673604 0.9610 0.9610 0.9610 0.9610 0.9610
2810.057014 0.9610 0.9606 0.9601 0.9600 0.9600
2814.440423 0.9600 0.9600 0.9600 0.9600 0.9600
2818.823833 0.9600 0.9600 0.9600 0.9600 0.9600
2823.207242 0.9600 0.9600 0.9592 0.9582 0.9580
2827.590652 0.9580 0.9580 0.9580 0.9580 0.9580
2831.974061 0.9576 0.9571 0.9570 0.9570 0.9570
2836.357471 0.9570 0.9570 0.9570 0.9566 0.9561
2840.740880 0.9560 0.9560 0.9560 0.9560 0.9560
2845.124289 0.9560 0.9551 0.9541 0.9540 0.9540
2849.507699 0.9540 0.9540 0.9536 0.9531 0.9530
2853.891108 0.9530 0.9530 0.9530 0.9530 0.9530
2858.274518 0.9530 0.9530 0.9530 0.9530 0.9530
2862.657927 0.9530 0.9530 0.9530 0.9530 0.9530
2867.041337 0.9530 0.9530 0.9530 0.9530 0.9530
2871.424746 0.9530 0.9530 0.9530 0.9530 0.9530
2875.808156 0.9530 0.9530 0.9530 0.9530 0.9530
2880.191565 0.9530 0.9530 0.9530 0.9530 0.9530
2884.574975 0.9530 0.9530 0.9530 0.9530 0.9530
2888.958384 0.9530 0.9530 0.9530 0.9530 0.9530
2893.341793 0.9530 0.9530 0.9525 0.9520 0.9520
2897.725203 0.9520 0.9520 0.9520 0.9520 0.9520
2902.108612 0.9520 0.9520 0.9520 0.9520 0.9520
2906.492022 0.9520 0.9510 0.9500 0.9500 0.9500
2910.875431 0.9495 0.9490 0.9490 0.9490 0.9480
2915.258841 0.9470 0.9470 0.9470 0.9470 0.9470
2919.642250 0.9470 0.9470 0.9465 0.9460 0.9455
2924.025660 0.9450 0.9440 0.9430 0.9430 0.9430
2928.409069 0.9430 0.9430 0.9430 0.9430 0.9430
2932.792478 0.9430 0.9440 0.9450 0.9450 0.9450
2937.175888 0.9450 0.9450 0.9450 0.9450 0.9450
2941.559297 0.9450 0.9450 0.9450 0.9455 0.9460
2945.942707 0.9460 0.9460 0.9460 0.9460 0.9460
2950.326116 0.9460 0.9460 0.9460 0.9460 0.9460
2954.709526 0.9460 0.9460 0.9460 0.9460 0.9460
2959.092935 0.9460 0.9460 0.9460 0.9460 0.9460
2963.476345 0.9460 0.9460 0.9460 0.9459 0.9454
2967.859754 0.9450 0.9450 0.9450 0.9450 0.9450
2972.243163 0.9450 0.9450 0.9450 0.9450 0.9450
2976.626573 0.9450 0.9450 0.9450 0.9450 0.9450
2981.009982 0.9450 0.9450 0.9450 0.9450 0.9450
2985.393392 0.9450 0.9450 0.9451 0.9456 0.9460
2989.776801 0.9460 0.9460 0.9460 0.9460 0.9460
2994.160211 0.9460 0.9460 0.9460 0.9460 0.9460
2998.543620 0.9460 0.9460 0.9460 0.9461 0.9466
3002.927030 0.9470 0.9470 0.9470 0.9470 0.9470
3007.310439 0.9470 0.9469 0.9464 0.9460 0.9460
3011.693848 0.9460 0.9460 0.9460 0.9460 0.9459
3016.077258 0.9454 0.9450 0.9450 0.9450 0.9450
3020.460667 0.9450 0.9450 0.9450 0.9450 0.9448
3024.844077 0.9438 0.9430 0.9430 0.9430 0.9430
3029.227486 0.9430 0.9430 0.9429 0.9424 0.9420
3033.610896 0.9420 0.9420 0.9420 0.9420 0.9420
3037.994305 0.9420 0.9420 0.9420 0.9420 0.9420
3042.377715 0.9420 0.9420 0.9420 0.9420 0.9420
3046.761124 0.9420 0.9420 0.9420 0.9420 0.9420
3051.144533 0.9420 0.9420 0.9420 0.9420 0.9420
3055.527943 0.9420 0.9420 0.9420 0.9420 0.9420
3059.911352 0.9420 0.9420 0.9420 0.9420 0.9420
3064.294762 0.9420 0.9420 0.9420 0.9420 0.9420
3068.678171 0.9420 0.9420 0.9420 0.9420 0.9420
3073.061581 0.9420 0.9420 0.9420 0.9420 0.9420
3077.444990 0.9420 0.9420 0.9420 0.9418 0.9413
3081.828400 0.9410 0.9410 0.9405 0.9389 0.9380
3086.211809 0.9380 0.9380 0.9380 0.9376 0.9366
3090.595218 0.9360 0.9360 0.9358 0.9353 0.9350
3094.978628 0.9350 0.9350 0.9350 0.9350 0.9350
3099.362037 0.9348 0.9343 0.9340 0.9340 0.9340
3103.745447 0.9340 0.9336 0.9326 0.9320 0.9320
3108.128856 0.9320 0.9320 0.9320 0.9320 0.9320
3112.512266 0.9320 0.9320 0.9320 0.9320 0.9320
3116.895675 0.9318 0.9313 0.9310 0.9310 0.9310
3121.279085 0.9310 0.9310 0.9310 0.9310 0.9310
3125.662494 0.9310 0.9310 0.9310 0.9310 0.9308
3130.045903 0.9303 0.9300 0.9300 0.9300 0.9300
3134.429313 0.9295 0.9285 0.9280 0.9280 0.9280
3138.812722 0.9280 0.9280 0.9280 0.9277 0.9272
3143.196132 0.9270 0.9270 0.9270 0.9270 0.9270
3147.579541 0.9270 0.9270 0.9270 0.9270 0.9270
3151.962951 0.9270 0.9270 0.9273 0.9278 0.9280
3156.346360 0.9280 0.9285 0.9295 0.9300 0.9300
3160.729770 0.9300 0.9300 0.9300 0.9300 0.9300
3165.113179 0.9300 0.9300 0.9300 0.9295 0.9285
3169.496588 0.9280 0.9280 0.9280 0.9280 0.9277
3173.879998 0.9272 0.9270 0.9270 0.9267 0.9262
3178.263407 0.9254 0.9244 0.9240 0.9240 0.9237
3182.646817 0.9232 0.9224 0.9214 0.9207 0.9202
3187.030226 0.9200 0.9200 0.9197 0.9192 0.9184
3191.413636 0.9174 0.9167 0.9162 0.9157 0.9152
3195.797045 0.9144 0.9134 0.9127 0.9122 0.9120
3200.180455 0.9120 0.9114 0.9104 0.9097 0.9092
3204.563864 0.9090 0.9090 0.9087 0.9082 0.9073
3208.947273 0.9063 0.9057 0.9052 0.9047 0.9042
3213.330683 0.9033 0.9023 0.9017 0.9012 0.9007
3217.714092 0.9002 0.9000 0.9000 0.9000 0.9000
3222.097502 0.9003 0.9008 0.9013 0.9018 0.9020
3226.480911 0.9020 0.9027 0.9037 0.9043 0.9048
3230.864321 0.9050 0.9050 0.9050 0.9050 0.9050
3235.247730 0.9050 0.9050 0.9050 0.9046 0.9041
3239.631140 0.9033 0.9023 0.9020 0.9020 0.9020
3244.014549 0.9020 0.9020 0.9020 0.9020 0.9020
3248.397958 0.9027 0.9037 0.9040 0.9040 0.9040
3252.781368 0.9040 0.9040 0.9040 0.9044 0.9049
3257.164777 0.9050 0.9050 0.9050 0.9050 0.9050
3261.548187 0.9050 0.9050 0.9050 0.9050 0.9050
3265.931596 0.9050 0.9050 0.9046 0.9041 0.9040
3270.315006 0.9040 0.9040 0.9040 0.9032 0.9022
3274.698415 0.9020 0.9020 0.9020 0.9020 0.9016
3279.081825 0.9011 0.9010 0.9010 0.9006 0.9001
3283.465234 0.9000 0.9000 0.8992 0.8982 0.8980
3287.848643 0.8980 0.8980 0.8980 0.8976 0.8971
3292.232053 0.8970 0.8970 0.8962 0.8952 0.8946
3296.615462 0.8941 0.8940 0.8940 0.8936 0.8931
3300.998872 0.8930 0.8930 0.8921 0.8911 0.8910
3305.382281 0.8910 0.8910 0.8910 0.8906 0.8901
3309.765691 0.8900 0.8900 0.8900 0.8900 0.8896
3314.149100 0.8891 0.8881 0.8871 0.8866 0.8861
3318.532510 0.8851 0.8841 0.8836 0.8831 0.8826
3322.915919 0.8821 0.8811 0.8801 0.8796 0.8791
3327.299329 0.8786 0.8781 0.8771 0.8761 0.8755
3331.682738 0.8750 0.8741 0.8731 0.8730 0.8730
3336.066147 0.8725 0.8720 0.8715 0.8710 0.8701
3340.449557 0.8691 0.8685 0.8680 0.8675 0.8670
3344.832966 0.8661 0.8651 0.8645 0.8640 0.8635
3349.216376 0.8630 0.8620 0.8610 0.8605 0.8600
3353.599785 0.8590 0.8580 0.8575 0.8570 0.8555
3357.983195 0.8540 0.8535 0.8530 0.8515 0.8500
3362.366604 0.8485 0.8470 0.8465 0.8460 0.8445
3366.750014 0.8430 0.8425 0.8420 0.8405 0.8390
3371.133423 0.8375 0.8360 0.8355 0.8350 0.8335
3375.516832 0.8320 0.8315 0.8310 0.8295 0.8280
3379.900242 0.8270 0.8260 0.8245 0.8230 0.8220
3384.283651 0.8210 0.8205 0.8200 0.8195 0.8190
3388.667061 0.8180 0.8170 0.8165 0.8159 0.8144
3393.050470 0.8130 0.8125 0.8120 0.8110 0.8100
3397.433880 0.8095 0.8090 0.8085 0.8080 0.8080
3401.817289 0.8080 0.8080 0.8079 0.8069 0.8060
3406.200699 0.8060 0.8060 0.8055 0.8050 0.8045
3410.584108 0.8040 0.8040 0.8040 0.8040 0.8039
3414.967517 0.8029 0.8020 0.8020 0.8020 0.8020
3419.350927 0.8021 0.8031 0.8040 0.8040 0.8041
3423.734336 0.8046 0.8050 0.8050 0.8052 0.8067
3428.117746 0.8081 0.8086 0.8090 0.8090 0.8092
3432.501155 0.8107 0.8121 0.8126 0.8132 0.8142
3436.884565 0.8151 0.8156 0.8161 0.8166 0.8172
3441.267974 0.8182 0.8191 0.8196 0.8201 0.8206
3445.651384 0.8212 0.8222 0.8233 0.8253 0.8271
3450.034793 0.8276 0.8282 0.8292 0.8301 0.8306
3454.418202 0.8311 0.8316 0.8320 0.8320 0.8322
3458.801612 0.8332 0.8341 0.8346 0.8351 0.8356
3463.185021 0.8360 0.8360 0.8362 0.8372 0.8381
3467.568431 0.8386 0.8392 0.8402 0.8411 0.8416
3471.951840 0.8421 0.8426 0.8432 0.8442 0.8451
3476.335250 0.8456 0.8464 0.8479 0.8491 0.8496
3480.718659 0.8504 0.8519 0.8531 0.8536 0.8544
3485.102069 0.8559 0.8571 0.8576 0.8583 0.8593
3489.485478 0.8604 0.8619 0.8631 0.8636 0.8641
3493.868887 0.8646 0.8650 0.8650 0.8654 0.8669
3498.252297 0.8681 0.8686 0.8694 0.8709 0.8721
3502.635706 0.8726 0.8733 0.8743 0.8752 0.8757
3507.019116 0.8760 0.8760 0.8763 0.8773 0.8780
3511.402525 0.8780 0.8782 0.8787 0.8790 0.8790
3515.785935 0.8792 0.8797 0.8803 0.8813 0.8820
3520.169344 0.8820 0.8822 0.8827 0.8832 0.8837
3524.552754 0.8840 0.8840 0.8840 0.8840 0.8840
3528.936163 0.8840 0.8843 0.8854 0.8862 0.8867
3533.319572 0.8870 0.8870 0.8874 0.8884 0.8892
3537.702982 0.8897 0.8900 0.8900 0.8902 0.8907
3542.086391 0.8910 0.8910 0.8910 0.8910 0.8910
3546.469801 0.8910 0.8910 0.8910 0.8910 0.8910
3550.853210 0.8910 0.8910 0.8914 0.8924 0.8930
3555.236620 0.8930 0.8930 0.8930 0.8930 0.8930
3559.620029 0.8930 0.8930 0.8930 0.8930 0.8930
3564.003439 0.8930 0.8932 0.8937 0.8940 0.8940
3568.386848 0.8940 0.8940 0.8940 0.8940 0.8940
3572.770257 0.8940 0.8940 0.8940 0.8940 0.8940
3577.153667 0.8940 0.8940 0.8940 0.8940 0.8940
3581.537076 0.8940 0.8940 0.8940 0.8940 0.8940
3585.920486 0.8940 0.8940 0.8940 0.8940 0.8940
3590.303895 0.8940 0.8940 0.8940 0.8940 0.8940
3594.687305 0.8940 0.8940 0.8940 0.8940 0.8940
3599.070714 0.8940 0.8940 0.8940 0.8940 0.8940
3603.454124 0.8940 0.8940 0.8940 0.8940 0.8940
3607.837533 0.8940 0.8940 0.8940 0.8940 0.8940
3612.220942 0.8940 0.8940 0.8940 0.8940 0.8940
3616.604352 0.8940 0.8943 0.8948 0.8950 0.8950
3620.987761 0.8950 0.8950 0.8950 0.8950 0.8950
3625.371171 0.8950 0.8950 0.8950 0.8956 0.8966
3629.754580 0.8970 0.8970 0.8970 0.8970 0.8970
3634.137990 0.8970 0.8970 0.8970 0.8970 0.8970
3638.521399 0.8970 0.8970 0.8970 0.8970 0.8970
3642.904809 0.8970 0.8970 0.8970 0.8970 0.8970
3647.288218 0.8970 0.8970 0.8970 0.8970 0.8964
3651.671627 0.8954 0.8950 0.8950 0.8950 0.8950
3656.055037 0.8950 0.8950 0.8950 0.8950 0.8947
3660.438446 0.8942 0.8940 0.8940 0.8940 0.8940
3664.821856 0.8940 0.8940 0.8940 0.8940 0.8940
3669.205265 0.8940 0.8940 0.8940 0.8940 0.8940
3673.588675 0.8940 0.8940 0.8940 0.8940 0.8940
3677.972084 0.8940 0.8940 0.8940 0.8940 0.8940
3682.355494 0.8940 0.8940 0.8940 0.8940 0.8940
3686.738903 0.8940 0.8940 0.8940 0.8940 0.8940
3691.122312 0.8943 0.8949 0.8950 0.8950 0.8950
3695.505722 0.8950 0.8950 0.8950 0.8950 0.8950
3699.889131 0.8950 0.8950 0.8950 0.8950 0.8950
3704.272541 0.8950 0.8950 0.8950 0.8946 0.8941
3708.655950 0.8940 0.8940 0.8940 0.8940 0.8936
3713.039360 0.8931 0.8930 0.8930 0.8930 0.8930
3717.422769 0.8922 0.8912 0.8906 0.8901 0.8900
3721.806179 0.8900 0.8900 0.8900 0.8900 0.8900
3726.189588 0.8900 0.8900 0.8900 0.8900 0.8900
3730.572997 0.8900 0.8900 0.8900 0.8900 0.8900
3734.956407 0.8900 0.8900 0.8900 0.8900 0.8900
3739.339816 0.8900 0.8900 0.8900 0.8900 0.8900
3743.723226 0.8900 0.8900 0.8900 0.8900 0.8900
3748.106635 0.8900 0.8900 0.8900 0.8900 0.8900
3752.490045 0.8900 0.8900 0.8900 0.8900 0.8900
3756.873454 0.8900 0.8900 0.8900 0.8900 0.8900
3761.256864 0.8900 0.8900 0.8900 0.8900 0.8900
3765.640273 0.8900 0.8900 0.8900 0.8900 0.8900
3770.023683 0.8900 0.8900 0.8900 0.8900 0.8900
3774.407092 0.8900 0.8900 0.8900 0.8900 0.8900
3778.790501 0.8900 0.8900 0.8900 0.8900 0.8900
3783.173911 0.8900 0.8900 0.8900 0.8900 0.8900
3787.557320 0.8900 0.8900 0.8895 0.8890 0.8890
3791.940730 0.8890 0.8890 0.8890 0.8881 0.8871
3796.324139 0.8870 0.8870 0.8870 0.8870
##END=
