##TITLE=Methylamine, 1-(trimethylsilyl)-,
##JCAMP-DX=4.24
##DATA TYPE=INFRARED SPECTRUM
##CLASS=COBLENTZ III
##ORIGIN=DOW CORNING CORP.
##OWNER=Copyright (C) 1987 by the Coblentz Society
Collection (C) 2018 copyright by the U.S. Secretary of Commerce
on behalf of the United States of America. All rights reserved.
##DATE=1966/10/11
##NAMES=(trimethylsilyl)methylamine
(trimethylsilyl)methanamine
##CAS REGISTRY NO=18166-02-4
##MOLFORM=C4 H13 N Si
##SOURCE REFERENCE=COBLENTZ NO. 5556
##$NIST SOURCE=COBLENTZ
##$NIST IMAGE=cob5556
##SPECTROMETER/DATA SYSTEM=PERKIN-ELMER 521 (GRATING)
$$ ABSORPTION AROUND 850 ALSO IN 2,2,4-TRIMETHYLPENTANE
##INSTRUMENT PARAMETERS=FILTERS AT 3150, 2500, 2000, 1150, 700, 410. GRATING CHANGES: 2000, 630
##STATE=SOLUTION (10% CCl4 FOR 3800-900, 2% CS2 FOR 900-640, AND 10% CCl4 FOR 650-250)
$$ MORE THAN 99% PURE
##PATH LENGTH=0.012 CM, 0.010 CM, AND 0.011 CM
$$ SPECTRAL FEATURES AT 903, 647 CM^-^1 ARE ARTIFACTS CAUSED BY A CHANGE IN RECORDING PARAMETER
##RESOLUTION=2
##XUNITS=1/CM
##YUNITS=TRANSMITTANCE
##XFACTOR=1.0
##YFACTOR=1
##FIRSTX=262
##LASTX=3808
##FIRSTY=0.65
##MAXX=3808
##MINX=262
##MAXY=0.8947
##MINY=0.0035
##NPOINTS=3547
##XYDATA=(X++(Y..Y))
262.000000 0.6500 0.6508 0.6515 0.6525 0.6536
267.000000 0.6547 0.6558 0.6572 0.6586 0.6600
272.000000 0.6614 0.6628 0.6638 0.6647 0.6656
277.000000 0.6656 0.6655 0.6654 0.6653 0.6651
282.000000 0.6653 0.6658 0.6663 0.6668 0.6685
287.000000 0.6715 0.6745 0.6782 0.6834 0.6887
292.000000 0.6939 0.6968 0.6995 0.7022 0.7049
297.000000 0.7052 0.7053 0.7054 0.7056 0.7057
302.000000 0.7058 0.7101 0.7059 0.7059 0.7059
307.000000 0.7059 0.7059 0.7058 0.7058 0.7058
312.000000 0.7058 0.7058 0.7058 0.7057 0.7057
317.000000 0.7057 0.7057 0.7057 0.7056 0.7056
322.000000 0.7047 0.7036 0.7014 0.6957 0.6901
327.000000 0.6797 0.6659 0.6520 0.6382 0.6243
332.000000 0.6105 0.5967 0.5828 0.5690 0.5551
337.000000 0.5413 0.5274 0.5188 0.5186 0.5183
342.000000 0.5216 0.5381 0.5564 0.5747 0.5929
347.000000 0.6112 0.6295 0.6477 0.6660 0.6837
352.000000 0.6967 0.7087 0.7154 0.7222 0.7289
357.000000 0.7357 0.7424 0.7492 0.7559 0.7627
362.000000 0.7695 0.7766 0.7838 0.7909 0.7986
367.000000 0.8074 0.8162 0.8247 0.8289 0.8330
372.000000 0.8372 0.8414 0.8438 0.8459 0.8481
377.000000 0.8502 0.8524 0.8545 0.8565 0.8576
382.000000 0.8588 0.8599 0.8610 0.8621 0.8632
387.000000 0.8633 0.8634 0.8634 0.8634 0.8634
392.000000 0.8661 0.8635 0.8635 0.8635 0.8636
397.000000 0.8635 0.8634 0.8632 0.8630 0.8627
402.000000 0.8617 0.8608 0.8598 0.8588 0.8569
407.000000 0.8546 0.8523 0.8500 0.8475 0.8442
412.000000 0.8409 0.8376 0.8342 0.8300 0.8249
417.000000 0.8216 0.8203 0.8205 0.8177 0.8215
422.000000 0.8239 0.8262 0.8286 0.8313 0.8340
427.000000 0.8400 0.8476 0.8535 0.8594 0.8613
432.000000 0.8625 0.8630 0.8632 0.8633 0.8635
437.000000 0.8636 0.8638 0.8639 0.8640 0.8641
442.000000 0.8641 0.8642 0.8643 0.8644 0.8644
447.000000 0.8644 0.8644 0.8644 0.8645 0.8643
452.000000 0.8641 0.8640 0.8638 0.8636 0.8641
457.000000 0.8650 0.8669 0.8683 0.8695 0.8707
462.000000 0.8720 0.8732 0.8745 0.8757 0.8762
467.000000 0.8767 0.8772 0.8772 0.8770 0.8767
472.000000 0.8765 0.8762 0.8760 0.8757 0.8757
477.000000 0.8757 0.8757 0.8757 0.8758 0.8762
482.000000 0.8771 0.8781 0.8790 0.8800 0.8809
487.000000 0.8819 0.8828 0.8838 0.8848 0.8857
492.000000 0.8867 0.8867 0.8864 0.8860 0.8857
497.000000 0.8854 0.8850 0.8844 0.8836 0.8828
502.000000 0.8820 0.8812 0.8804 0.8796 0.8788
507.000000 0.8779 0.8775 0.8771 0.8767 0.8763
512.000000 0.8759 0.8755 0.8751 0.8748 0.8744
517.000000 0.8740 0.8736 0.8732 0.8728 0.8724
522.000000 0.8720 0.8716 0.8715 0.8714 0.8714
527.000000 0.8713 0.8713 0.8712 0.8712 0.8712
532.000000 0.8711 0.8711 0.8710 0.8710 0.8709
537.000000 0.8709 0.8709 0.8708 0.8708 0.8707
542.000000 0.8707 0.8707 0.8707 0.8706 0.8706
547.000000 0.8706 0.8706 0.8705 0.8705 0.8705
552.000000 0.8705 0.8704 0.8704 0.8704 0.8695
557.000000 0.8687 0.8678 0.8670 0.8661 0.8652
562.000000 0.8644 0.8626 0.8604 0.8582 0.8560
567.000000 0.8538 0.8516 0.8494 0.8473 0.8454
572.000000 0.8434 0.8414 0.8395 0.8375 0.8356
577.000000 0.8336 0.8317 0.8297 0.8277 0.8251
582.000000 0.8248 0.8257 0.8265 0.8274 0.8279
587.000000 0.8282 0.8285 0.8289 0.8291 0.8292
592.000000 0.8294 0.8295 0.8297 0.8298 0.8293
597.000000 0.8286 0.8280 0.8274 0.8268 0.8260
602.000000 0.8238 0.8215 0.8193 0.8171 0.8138
607.000000 0.8075 0.8024 0.8000 0.8000 0.8018
612.000000 0.8059 0.8095 0.8108 0.8114 0.8121
617.000000 0.8127 0.8133 0.8139 0.8145 0.8162
622.000000 0.8181 0.8190 0.8186 0.8181 0.8177
627.000000 0.8166 0.8156 0.8146 0.8132 0.8113
632.000000 0.8094 0.8075 0.8056 0.8036 0.8012
637.000000 0.7989 0.7966 0.7943 0.7920 0.7896
642.000000 0.7873 0.7848 0.7820 0.7793 0.7774
647.000000 0.7766 0.7916 0.8106 0.8296 0.8486
652.000000 0.8594 0.8546 0.8490 0.8445 0.8401
657.000000 0.8327 0.8237 0.8148 0.8058 0.7968
662.000000 0.7878 0.7788 0.7699 0.7532 0.7512
667.000000 0.7514 0.7520 0.7531 0.7554 0.7599
672.000000 0.7687 0.7774 0.7882 0.8006 0.8101
677.000000 0.8196 0.8254 0.8292 0.8294 0.8281
682.000000 0.8292 0.8276 0.8203 0.8124 0.8067
687.000000 0.8009 0.7952 0.7822 0.7626 0.7430
692.000000 0.7233 0.7037 0.6873 0.6862 0.6851
697.000000 0.6854 0.6869 0.6896 0.7090 0.7410
702.000000 0.7731 0.8001 0.8148 0.8208 0.8268
707.000000 0.8290 0.8312 0.8333 0.8349 0.8358
712.000000 0.8367 0.8376 0.8386 0.8395 0.8383
717.000000 0.8381 0.8376 0.8371 0.8366 0.8361
722.000000 0.8355 0.8349 0.8337 0.8325 0.8313
727.000000 0.8302 0.8290 0.8264 0.8237 0.8210
732.000000 0.8171 0.8127 0.8084 0.7986 0.7875
737.000000 0.7771 0.7671 0.7571 0.7471 0.7370
742.000000 0.7269 0.7167 0.6897 0.6608 0.6318
747.000000 0.6029 0.5739 0.5450 0.5160 0.4979
752.000000 0.4994 0.4990 0.5081 0.5212 0.5343
757.000000 0.5473 0.5604 0.5699 0.5786 0.5818
762.000000 0.5815 0.5810 0.5798 0.5736 0.5658
767.000000 0.5545 0.5342 0.5191 0.5175 0.5202
772.000000 0.5215 0.5356 0.5476 0.5576 0.5798
777.000000 0.6006 0.6201 0.6533 0.6786 0.7091
782.000000 0.7283 0.7406 0.7468 0.7511 0.7540
787.000000 0.7564 0.7571 0.7575 0.7583 0.7583
792.000000 0.7569 0.7556 0.7543 0.7518 0.7479
797.000000 0.7428 0.7377 0.7331 0.7285 0.7240
802.000000 0.7184 0.7123 0.7063 0.7002 0.6928
807.000000 0.6837 0.6746 0.6655 0.6416 0.6176
812.000000 0.5937 0.5697 0.5458 0.5218 0.4979
817.000000 0.4740 0.4532 0.4512 0.4512 0.4539
822.000000 0.4593 0.4605 0.4614 0.4609 0.4605
827.000000 0.4598 0.4482 0.4303 0.4123 0.3943
832.000000 0.3764 0.3584 0.3404 0.3225 0.3045
837.000000 0.2865 0.2685 0.2506 0.2374 0.2350
842.000000 0.2394 0.2357 0.2467 0.2613 0.2758
847.000000 0.2802 0.2803 0.2799 0.2826 0.2778
852.000000 0.2669 0.2518 0.2367 0.2216 0.2065
857.000000 0.1914 0.1763 0.1716 0.1705 0.1701
862.000000 0.1904 0.2210 0.2516 0.2822 0.3128
867.000000 0.3434 0.3740 0.4046 0.4352 0.4536
872.000000 0.4949 0.5407 0.5736 0.6545 0.6741
877.000000 0.6912 0.7019 0.7125 0.7232 0.7317
882.000000 0.7388 0.7459 0.7530 0.7602 0.7698
887.000000 0.7794 0.7890 0.8011 0.8135 0.8404
892.000000 0.8449 0.8466 0.8487 0.8513 0.8539
897.000000 0.8612 0.8599 0.7863 0.7082 0.6302
902.000000 0.5521 0.4922 0.4990 0.5050 0.5102
907.000000 0.5154 0.5205 0.5231 0.5238 0.5247
912.000000 0.5247 0.5232 0.5215 0.5193 0.5171
917.000000 0.5117 0.4975 0.4763 0.4551 0.4339
922.000000 0.4202 0.4212 0.4437 0.4761 0.5085
927.000000 0.5408 0.5732 0.6056 0.6373 0.6524
932.000000 0.6621 0.6744 0.6868 0.6948 0.7004
937.000000 0.7051 0.7099 0.7146 0.7188 0.7226
942.000000 0.7264 0.7302 0.7329 0.7355 0.7380
947.000000 0.7406 0.7419 0.7431 0.7442 0.7454
952.000000 0.7464 0.7469 0.7473 0.7478 0.7482
957.000000 0.7487 0.7487 0.7486 0.7510 0.7486
962.000000 0.7486 0.7485 0.7485 0.7481 0.7474
967.000000 0.7467 0.7460 0.7439 0.7417 0.7394
972.000000 0.7372 0.7350 0.7328 0.7307 0.7289
977.000000 0.7271 0.7253 0.7234 0.7216 0.7206
982.000000 0.7206 0.7205 0.7197 0.7188 0.7180
987.000000 0.7172 0.7164 0.7156 0.7148 0.7138
992.000000 0.7128 0.7118 0.7108 0.7098 0.7088
997.000000 0.7078 0.7036 0.7004 0.6972 0.6944
1002.000000 0.6917 0.6890 0.6862 0.6835 0.6808
1007.000000 0.6794 0.6779 0.6765 0.6750 0.6736
1012.000000 0.6722 0.6715 0.6709 0.6704 0.6698
1017.000000 0.6664 0.6623 0.6579 0.6536 0.6492
1022.000000 0.6448 0.6404 0.6359 0.6315 0.6271
1027.000000 0.6185 0.6098 0.6011 0.5919 0.5826
1032.000000 0.5772 0.5737 0.5721 0.5729 0.5751
1037.000000 0.5783 0.5824 0.5872 0.5920 0.5962
1042.000000 0.5999 0.6015 0.6033 0.6011 0.6006
1047.000000 0.6000 0.5994 0.5987 0.5976 0.5963
1052.000000 0.5945 0.5928 0.5910 0.5892 0.5872
1057.000000 0.5863 0.5855 0.5846 0.5838 0.5830
1062.000000 0.5822 0.5812 0.5802 0.5792 0.5782
1067.000000 0.5769 0.5749 0.5729 0.5707 0.5671
1072.000000 0.5635 0.5599 0.5543 0.5452 0.5374
1077.000000 0.5297 0.5219 0.5140 0.5061 0.4963
1082.000000 0.4877 0.4863 0.4862 0.4863 0.4869
1087.000000 0.4828 0.4933 0.5127 0.5603 0.5668
1092.000000 0.5733 0.5806 0.5901 0.5997 0.6103
1097.000000 0.6204 0.6297 0.6376 0.6448 0.6520
1102.000000 0.6592 0.6662 0.6727 0.6791 0.6845
1107.000000 0.6899 0.6953 0.6991 0.7019 0.7048
1112.000000 0.7076 0.7104 0.7123 0.7133 0.7143
1117.000000 0.7153 0.7163 0.7173 0.7185 0.7198
1122.000000 0.7210 0.7222 0.7235 0.7247 0.7260
1127.000000 0.7279 0.7299 0.7318 0.7338 0.7357
1132.000000 0.7376 0.7396 0.7417 0.7438 0.7460
1137.000000 0.7481 0.7503 0.7524 0.7546 0.7568
1142.000000 0.7591 0.7613 0.7613 0.7608 0.7634
1147.000000 0.7596 0.7590 0.7585 0.7581 0.7576
1152.000000 0.7571 0.7567 0.7562 0.7558 0.7555
1157.000000 0.7529 0.7473 0.7435 0.7428 0.7422
1162.000000 0.7415 0.7408 0.7401 0.7395 0.7388
1167.000000 0.7381 0.7374 0.7368 0.7372 0.7376
1172.000000 0.7380 0.7423 0.7452 0.7461 0.7469
1177.000000 0.7473 0.7478 0.7478 0.7475 0.7473
1182.000000 0.7462 0.7447 0.7426 0.7403 0.7378
1187.000000 0.7352 0.7326 0.7300 0.7274 0.7252
1192.000000 0.7234 0.7216 0.7198 0.7189 0.7182
1197.000000 0.7174 0.7166 0.7159 0.7151 0.7141
1202.000000 0.7110 0.7058 0.7008 0.6958 0.6900
1207.000000 0.6835 0.6768 0.6690 0.6612 0.6252
1212.000000 0.5747 0.5370 0.5327 0.5327 0.5406
1217.000000 0.5520 0.5635 0.5750 0.5825 0.5828
1222.000000 0.5826 0.5824 0.5819 0.5810 0.5791
1227.000000 0.5754 0.5699 0.5623 0.5544 0.5428
1232.000000 0.5187 0.4912 0.4637 0.4362 0.4088
1237.000000 0.3813 0.3538 0.2567 0.1787 0.1006
1242.000000 0.0311 0.0132 0.0060 0.0051 0.0048
1247.000000 0.0035 0.0054 0.0116 0.0313 0.0510
1252.000000 0.0707 0.0904 0.1101 0.1298 0.1473
1257.000000 0.1535 0.1576 0.1603 0.1631 0.1673
1262.000000 0.2014 0.2402 0.2790 0.3178 0.3566
1267.000000 0.3954 0.4341 0.4465 0.4521 0.4555
1272.000000 0.4539 0.4512 0.4495 0.4478 0.4486
1277.000000 0.4500 0.4609 0.4790 0.4971 0.5152
1282.000000 0.5333 0.5514 0.5695 0.5876 0.6057
1287.000000 0.6238 0.6419 0.6600 0.6727 0.6905
1292.000000 0.6983 0.7040 0.7079 0.7093 0.7106
1297.000000 0.7118 0.7116 0.7119 0.7120 0.7111
1302.000000 0.7102 0.7092 0.7074 0.7056 0.7037
1307.000000 0.7019 0.7001 0.6983 0.6965 0.6943
1312.000000 0.6921 0.6898 0.6876 0.6844 0.6809
1317.000000 0.6774 0.6739 0.6706 0.6706 0.6702
1322.000000 0.6719 0.6756 0.6852 0.6944 0.7042
1327.000000 0.7141 0.7238 0.7315 0.7380 0.7427
1332.000000 0.7463 0.7468 0.7470 0.7467 0.7464
1337.000000 0.7460 0.7457 0.7454 0.7450 0.7445
1342.000000 0.7440 0.7436 0.7431 0.7426 0.7421
1347.000000 0.7414 0.7402 0.7391 0.7379 0.7367
1352.000000 0.7355 0.7345 0.7334 0.7344 0.7323
1357.000000 0.7325 0.7327 0.7329 0.7334 0.7343
1362.000000 0.7352 0.7360 0.7369 0.7378 0.7386
1367.000000 0.7394 0.7402 0.7410 0.7415 0.7415
1372.000000 0.7414 0.7413 0.7409 0.7387 0.7364
1377.000000 0.7341 0.7318 0.7295 0.7272 0.7249
1382.000000 0.7224 0.7196 0.7169 0.7141 0.7114
1387.000000 0.7077 0.7033 0.6988 0.6923 0.6836
1392.000000 0.6764 0.6695 0.6625 0.6534 0.6436
1397.000000 0.6330 0.6216 0.6101 0.5985 0.5777
1402.000000 0.5557 0.5318 0.5041 0.4808 0.4617
1407.000000 0.4472 0.4327 0.4192 0.4076 0.3986
1412.000000 0.3958 0.3939 0.3926 0.3926 0.3952
1417.000000 0.3998 0.4103 0.4249 0.4455 0.4648
1422.000000 0.4788 0.4854 0.4880 0.4890 0.4899
1427.000000 0.4907 0.4913 0.4937 0.5013 0.5084
1432.000000 0.5157 0.5238 0.5324 0.5414 0.5504
1437.000000 0.5590 0.5663 0.5735 0.5807 0.5874
1442.000000 0.5941 0.5997 0.6037 0.6076 0.6116
1447.000000 0.6147 0.6171 0.6194 0.6217 0.6241
1452.000000 0.6271 0.6302 0.6334 0.6365 0.6403
1457.000000 0.6453 0.6503 0.6568 0.6679 0.6785
1462.000000 0.6830 0.6876 0.6921 0.6967 0.7013
1467.000000 0.7045 0.7068 0.7091 0.7114 0.7137
1472.000000 0.7160 0.7176 0.7192 0.7199 0.7199
1477.000000 0.7200 0.7185 0.7199 0.7191 0.7183
1482.000000 0.7175 0.7167 0.7159 0.7147 0.7134
1487.000000 0.7122 0.7110 0.7093 0.7073 0.7053
1492.000000 0.7033 0.7013 0.6983 0.6950 0.6917
1497.000000 0.6884 0.6852 0.6764 0.6592 0.6594
1502.000000 0.6598 0.6602 0.6616 0.6599 0.6649
1507.000000 0.6672 0.6701 0.6736 0.6779 0.6823
1512.000000 0.6857 0.6888 0.6920 0.6951 0.6983
1517.000000 0.7014 0.7045 0.7077 0.7083 0.7086
1522.000000 0.7087 0.7088 0.7090 0.7091 0.7093
1527.000000 0.7094 0.7094 0.7094 0.7093 0.7092
1532.000000 0.7091 0.7090 0.7088 0.7087 0.7142
1537.000000 0.7084 0.7083 0.7081 0.7080 0.7078
1542.000000 0.7077 0.7073 0.7063 0.7051 0.7039
1547.000000 0.7028 0.7016 0.7004 0.6992 0.6981
1552.000000 0.6969 0.6958 0.6947 0.6936 0.6925
1557.000000 0.6914 0.6903 0.6892 0.6881 0.6870
1562.000000 0.6858 0.6842 0.6827 0.6812 0.6796
1567.000000 0.6780 0.6759 0.6739 0.6718 0.6697
1572.000000 0.6676 0.6658 0.6641 0.6624 0.6606
1577.000000 0.6584 0.6548 0.6518 0.6489 0.6443
1582.000000 0.6422 0.6401 0.6380 0.6359 0.6337
1587.000000 0.6304 0.6270 0.6235 0.6196 0.6157
1592.000000 0.6118 0.6087 0.6055 0.6023 0.5991
1597.000000 0.5959 0.5927 0.5897 0.5866 0.5836
1602.000000 0.5806 0.5775 0.5744 0.5713 0.5682
1607.000000 0.5651 0.5620 0.5587 0.5547 0.5507
1612.000000 0.5469 0.5433 0.5399 0.5395 0.5391
1617.000000 0.5389 0.5411 0.5392 0.5396 0.5407
1622.000000 0.5429 0.5452 0.5475 0.5509 0.5544
1627.000000 0.5578 0.5633 0.5694 0.5774 0.5855
1632.000000 0.5937 0.6024 0.6110 0.6197 0.6299
1637.000000 0.6403 0.6507 0.6586 0.6643 0.6701
1642.000000 0.6758 0.6815 0.6869 0.6922 0.6974
1647.000000 0.7027 0.7079 0.7132 0.7179 0.7221
1652.000000 0.7263 0.7305 0.7347 0.7389 0.7430
1657.000000 0.7470 0.7508 0.7540 0.7572 0.7591
1662.000000 0.7608 0.7624 0.7636 0.7648 0.7660
1667.000000 0.7672 0.7679 0.7686 0.7693 0.7700
1672.000000 0.7707 0.7713 0.7718 0.7724 0.7730
1677.000000 0.7731 0.7733 0.7734 0.7738 0.7744
1682.000000 0.7751 0.7761 0.7778 0.7794 0.7812
1687.000000 0.7837 0.7862 0.7887 0.7914 0.7941
1692.000000 0.7968 0.7997 0.8026 0.8054 0.8083
1697.000000 0.8114 0.8153 0.8192 0.8231 0.8270
1702.000000 0.8306 0.8342 0.8377 0.8413 0.8448
1707.000000 0.8480 0.8510 0.8540 0.8570 0.8597
1712.000000 0.8612 0.8627 0.8642 0.8657 0.8669
1717.000000 0.8674 0.8679 0.8684 0.8689 0.8694
1722.000000 0.8699 0.8703 0.8704 0.8705 0.8707
1727.000000 0.8708 0.8709 0.8710 0.8711 0.8712
1732.000000 0.8712 0.8712 0.8712 0.8712 0.8712
1737.000000 0.8711 0.8711 0.8711 0.8711 0.8710
1742.000000 0.8709 0.8708 0.8706 0.8705 0.8704
1747.000000 0.8703 0.8701 0.8700 0.8699 0.8698
1752.000000 0.8696 0.8695 0.8693 0.8692 0.8691
1757.000000 0.8689 0.8688 0.8686 0.8685 0.8683
1762.000000 0.8682 0.8680 0.8679 0.8679 0.8679
1767.000000 0.8678 0.8678 0.8678 0.8678 0.8711
1772.000000 0.8678 0.8678 0.8678 0.8678 0.8678
1777.000000 0.8678 0.8678 0.8678 0.8678 0.8678
1782.000000 0.8678 0.8678 0.8678 0.8678 0.8677
1787.000000 0.8677 0.8677 0.8677 0.8677 0.8677
1792.000000 0.8677 0.8677 0.8677 0.8677 0.8677
1797.000000 0.8676 0.8676 0.8676 0.8676 0.8675
1802.000000 0.8674 0.8673 0.8672 0.8671 0.8670
1807.000000 0.8669 0.8667 0.8663 0.8653 0.8644
1812.000000 0.8634 0.8624 0.8614 0.8603 0.8593
1817.000000 0.8583 0.8573 0.8562 0.8547 0.8530
1822.000000 0.8513 0.8496 0.8479 0.8450 0.8420
1827.000000 0.8406 0.8396 0.8398 0.8404 0.8400
1832.000000 0.8406 0.8414 0.8421 0.8427 0.8437
1837.000000 0.8455 0.8475 0.8498 0.8520 0.8542
1842.000000 0.8541 0.8539 0.8537 0.8536 0.8534
1847.000000 0.8531 0.8529 0.8530 0.8532 0.8533
1852.000000 0.8535 0.8536 0.8537 0.8539 0.8542
1857.000000 0.8544 0.8547 0.8549 0.8552 0.8554
1862.000000 0.8557 0.8561 0.8564 0.8568 0.8572
1867.000000 0.8575 0.8579 0.8593 0.8607 0.8617
1872.000000 0.8627 0.8637 0.8647 0.8653 0.8658
1877.000000 0.8663 0.8668 0.8651 0.8641 0.8630
1882.000000 0.8620 0.8609 0.8598 0.8587 0.8577
1887.000000 0.8569 0.8565 0.8560 0.8555 0.8550
1892.000000 0.8546 0.8541 0.8537 0.8533 0.8529
1897.000000 0.8524 0.8520 0.8514 0.8509 0.8504
1902.000000 0.8499 0.8494 0.8489 0.8478 0.8460
1907.000000 0.8443 0.8426 0.8408 0.8391 0.8374
1912.000000 0.8359 0.8358 0.8356 0.8354 0.8354
1917.000000 0.8358 0.8362 0.8366 0.8370 0.8374
1922.000000 0.8377 0.8380 0.8383 0.8386 0.8387
1927.000000 0.8388 0.8389 0.8386 0.8374 0.8362
1932.000000 0.8350 0.8334 0.8318 0.8302 0.8286
1937.000000 0.8277 0.8268 0.8260 0.8259 0.8261
1942.000000 0.8275 0.8293 0.8314 0.8341 0.8368
1947.000000 0.8391 0.8412 0.8432 0.8447 0.8457
1952.000000 0.8468 0.8478 0.8485 0.8492 0.8500
1957.000000 0.8507 0.8515 0.8520 0.8526 0.8543
1962.000000 0.8577 0.8606 0.8623 0.8633 0.8636
1967.000000 0.8639 0.8641 0.8644 0.8646 0.8648
1972.000000 0.8650 0.8652 0.8653 0.8656 0.8658
1977.000000 0.8680 0.8662 0.8662 0.8663 0.8664
1982.000000 0.8665 0.8666 0.8666 0.8667 0.8667
1987.000000 0.8666 0.8665 0.8664 0.8663 0.8662
1992.000000 0.8659 0.8654 0.8649 0.8645 0.8640
1997.000000 0.8634 0.8628 0.8621 0.8622 0.8641
2002.000000 0.8661 0.8679 0.8697 0.8712 0.8727
2007.000000 0.8731 0.8736 0.8737 0.8738 0.8737
2012.000000 0.8736 0.8734 0.8732 0.8728 0.8725
2017.000000 0.8721 0.8718 0.8715 0.8712 0.8725
2022.000000 0.8739 0.8750 0.8761 0.8772 0.8783
2027.000000 0.8793 0.8803 0.8803 0.8804 0.8804
2032.000000 0.8805 0.8805 0.8806 0.8806 0.8807
2037.000000 0.8807 0.8808 0.8808 0.8808 0.8808
2042.000000 0.8808 0.8808 0.8808 0.8808 0.8809
2047.000000 0.8807 0.8806 0.8804 0.8802 0.8800
2052.000000 0.8798 0.8796 0.8794 0.8792 0.8790
2057.000000 0.8788 0.8786 0.8784 0.8782 0.8778
2062.000000 0.8774 0.8769 0.8765 0.8760 0.8756
2067.000000 0.8751 0.8747 0.8742 0.8737 0.8732
2072.000000 0.8728 0.8723 0.8718 0.8713 0.8709
2077.000000 0.8704 0.8699 0.8694 0.8690 0.8684
2082.000000 0.8679 0.8674 0.8670 0.8666 0.8662
2087.000000 0.8662 0.8663 0.8663 0.8663 0.8663
2092.000000 0.8663 0.8664 0.8666 0.8668 0.8670
2097.000000 0.8672 0.8674 0.8676 0.8678 0.8680
2102.000000 0.8682 0.8683 0.8685 0.8685 0.8686
2107.000000 0.8687 0.8688 0.8689 0.8690 0.8690
2112.000000 0.8691 0.8693 0.8695 0.8697 0.8699
2117.000000 0.8701 0.8704 0.8706 0.8708 0.8710
2122.000000 0.8713 0.8715 0.8717 0.8719 0.8722
2127.000000 0.8724 0.8727 0.8729 0.8731 0.8733
2132.000000 0.8736 0.8738 0.8741 0.8743 0.8745
2137.000000 0.8747 0.8750 0.8752 0.8754 0.8755
2142.000000 0.8757 0.8759 0.8761 0.8763 0.8765
2147.000000 0.8767 0.8769 0.8771 0.8773 0.8775
2152.000000 0.8777 0.8779 0.8781 0.8782 0.8784
2157.000000 0.8786 0.8788 0.8789 0.8791 0.8792
2162.000000 0.8794 0.8795 0.8797 0.8798 0.8800
2167.000000 0.8802 0.8804 0.8805 0.8807 0.8808
2172.000000 0.8810 0.8811 0.8813 0.8814 0.8816
2177.000000 0.8818 0.8821 0.8823 0.8826 0.8828
2182.000000 0.8831 0.8833 0.8835 0.8837 0.8840
2187.000000 0.8842 0.8845 0.8847 0.8850 0.8852
2192.000000 0.8855 0.8855 0.8855 0.8854 0.8854
2197.000000 0.8853 0.8853 0.8852 0.8852 0.8851
2202.000000 0.8850 0.8849 0.8849 0.8848 0.8848
2207.000000 0.8847 0.8846 0.8845 0.8845 0.8844
2212.000000 0.8844 0.8843 0.8842 0.8840 0.8839
2217.000000 0.8837 0.8836 0.8834 0.8833 0.8831
2222.000000 0.8830 0.8828 0.8827 0.8825 0.8824
2227.000000 0.8823 0.8822 0.8821 0.8821 0.8821
2232.000000 0.8821 0.8820 0.8820 0.8819 0.8819
2237.000000 0.8818 0.8818 0.8817 0.8817 0.8816
2242.000000 0.8816 0.8816 0.8816 0.8815 0.8815
2247.000000 0.8814 0.8814 0.8814 0.8814 0.8814
2252.000000 0.8814 0.8814 0.8815 0.8815 0.8815
2257.000000 0.8815 0.8815 0.8815 0.8815 0.8815
2262.000000 0.8815 0.8815 0.8816 0.8815 0.8815
2267.000000 0.8814 0.8813 0.8812 0.8812 0.8811
2272.000000 0.8810 0.8809 0.8808 0.8807 0.8807
2277.000000 0.8807 0.8807 0.8808 0.8810 0.8811
2282.000000 0.8812 0.8813 0.8814 0.8815 0.8816
2287.000000 0.8817 0.8819 0.8824 0.8829 0.8831
2292.000000 0.8833 0.8832 0.8832 0.8831 0.8831
2297.000000 0.8830 0.8829 0.8828 0.8828 0.8827
2302.000000 0.8827 0.8826 0.8825 0.8824 0.8823
2307.000000 0.8822 0.8822 0.8821 0.8820 0.8819
2312.000000 0.8819 0.8818 0.8817 0.8816 0.8816
2317.000000 0.8815 0.8814 0.8813 0.8812 0.8811
2322.000000 0.8810 0.8809 0.8808 0.8807 0.8806
2327.000000 0.8805 0.8805 0.8804 0.8803 0.8802
2332.000000 0.8801 0.8800 0.8799 0.8798 0.8797
2337.000000 0.8796 0.8795 0.8794 0.8793 0.8792
2342.000000 0.8792 0.8791 0.8790 0.8789 0.8788
2347.000000 0.8787 0.8786 0.8785 0.8784 0.8783
2352.000000 0.8782 0.8781 0.8780 0.8779 0.8778
2357.000000 0.8777 0.8776 0.8775 0.8774 0.8773
2362.000000 0.8772 0.8771 0.8770 0.8769 0.8768
2367.000000 0.8767 0.8766 0.8765 0.8765 0.8764
2372.000000 0.8763 0.8762 0.8761 0.8760 0.8759
2377.000000 0.8758 0.8757 0.8755 0.8754 0.8753
2382.000000 0.8752 0.8751 0.8750 0.8749 0.8748
2387.000000 0.8747 0.8746 0.8744 0.8743 0.8742
2392.000000 0.8741 0.8740 0.8739 0.8738 0.8737
2397.000000 0.8736 0.8735 0.8733 0.8732 0.8730
2402.000000 0.8728 0.8726 0.8725 0.8723 0.8722
2407.000000 0.8720 0.8718 0.8716 0.8715 0.8713
2412.000000 0.8711 0.8709 0.8708 0.8706 0.8705
2417.000000 0.8703 0.8701 0.8699 0.8697 0.8694
2422.000000 0.8692 0.8690 0.8688 0.8686 0.8684
2427.000000 0.8681 0.8679 0.8677 0.8675 0.8672
2432.000000 0.8670 0.8668 0.8666 0.8664 0.8662
2437.000000 0.8659 0.8657 0.8655 0.8653 0.8651
2442.000000 0.8649 0.8645 0.8641 0.8637 0.8634
2447.000000 0.8630 0.8627 0.8623 0.8619 0.8615
2452.000000 0.8612 0.8608 0.8604 0.8598 0.8593
2457.000000 0.8585 0.8578 0.8570 0.8563 0.8555
2462.000000 0.8548 0.8540 0.8533 0.8525 0.8518
2467.000000 0.8510 0.8503 0.8495 0.8488 0.8480
2472.000000 0.8473 0.8464 0.8456 0.8447 0.8438
2477.000000 0.8429 0.8421 0.8412 0.8403 0.8394
2482.000000 0.8386 0.8375 0.8364 0.8356 0.8349
2487.000000 0.8351 0.8354 0.8360 0.8367 0.8373
2492.000000 0.8380 0.8386 0.8392 0.8398 0.8404
2497.000000 0.8405 0.8406 0.8406 0.8406 0.8402
2502.000000 0.8399 0.8395 0.8391 0.8386 0.8382
2507.000000 0.8374 0.8366 0.8357 0.8348 0.8339
2512.000000 0.8330 0.8318 0.8307 0.8294 0.8282
2517.000000 0.8269 0.8257 0.8244 0.8232 0.8221
2522.000000 0.8211 0.8200 0.8189 0.8178 0.8168
2527.000000 0.8157 0.8147 0.8136 0.8126 0.8123
2532.000000 0.8120 0.8118 0.8116 0.8114 0.8113
2537.000000 0.8115 0.8117 0.8125 0.8134 0.8142
2542.000000 0.8151 0.8157 0.8163 0.8163 0.8163
2547.000000 0.8163 0.8163 0.8163 0.8163 0.8162
2552.000000 0.8161 0.8159 0.8158 0.8154 0.8151
2557.000000 0.8145 0.8139 0.8132 0.8126 0.8120
2562.000000 0.8114 0.8104 0.8095 0.8085 0.8075
2567.000000 0.8064 0.8053 0.8038 0.8024 0.8005
2572.000000 0.7987 0.7964 0.7942 0.7920 0.7899
2577.000000 0.7879 0.7860 0.7840 0.7821 0.7803
2582.000000 0.7785 0.7781 0.7777 0.7779 0.7781
2587.000000 0.7801 0.7821 0.7846 0.7872 0.7892
2592.000000 0.7912 0.7928 0.7945 0.7950 0.7956
2597.000000 0.7957 0.7959 0.7959 0.7960 0.7960
2602.000000 0.7961 0.7960 0.7960 0.7953 0.7946
2607.000000 0.7938 0.7930 0.7921 0.7913 0.7905
2612.000000 0.7897 0.7888 0.7880 0.7872 0.7864
2617.000000 0.7855 0.7847 0.7840 0.7833 0.7826
2622.000000 0.7819 0.7818 0.7818 0.7818 0.7818
2627.000000 0.7818 0.7818 0.7818 0.7819 0.7821
2632.000000 0.7824 0.7826 0.7828 0.7830 0.7833
2637.000000 0.7835 0.7837 0.7838 0.7840 0.7840
2642.000000 0.7841 0.7841 0.7842 0.7840 0.7839
2647.000000 0.7837 0.7835 0.7833 0.7831 0.7829
2652.000000 0.7827 0.7825 0.7824 0.7822 0.7820
2657.000000 0.7817 0.7815 0.7812 0.7809 0.7806
2662.000000 0.7803 0.7800 0.7797 0.7794 0.7791
2667.000000 0.7788 0.7785 0.7782 0.7779 0.7775
2672.000000 0.7772 0.7768 0.7765 0.7761 0.7757
2677.000000 0.7753 0.7750 0.7746 0.7742 0.7738
2682.000000 0.7735 0.7731 0.7728 0.7724 0.7720
2687.000000 0.7721 0.7722 0.7723 0.7725 0.7727
2692.000000 0.7729 0.7730 0.7732 0.7733 0.7735
2697.000000 0.7734 0.7733 0.7731 0.7730 0.7728
2702.000000 0.7726 0.7724 0.7722 0.7720 0.7719
2707.000000 0.7717 0.7715 0.7702 0.7690 0.7675
2712.000000 0.7660 0.7641 0.7623 0.7601 0.7580
2717.000000 0.7558 0.7536 0.7506 0.7476 0.7441
2722.000000 0.7407 0.7372 0.7338 0.7303 0.7269
2727.000000 0.7235 0.7201 0.7166 0.7132 0.7098
2732.000000 0.7064 0.7019 0.6974 0.6929 0.6884
2737.000000 0.6802 0.6720 0.6642 0.6565 0.6515
2742.000000 0.6465 0.6412 0.6360 0.6357 0.6354
2747.000000 0.6350 0.6347 0.6344 0.6341 0.6337
2752.000000 0.6334 0.6331 0.6328 0.6325 0.6322
2757.000000 0.6319 0.6316 0.6313 0.6310 0.6297
2762.000000 0.6284 0.6266 0.6249 0.6227 0.6205
2767.000000 0.6155 0.6106 0.6050 0.5994 0.5933
2772.000000 0.5873 0.5820 0.5767 0.5715 0.5664
2777.000000 0.5608 0.5552 0.5488 0.5424 0.5359
2782.000000 0.5295 0.5229 0.5164 0.5050 0.4937
2787.000000 0.4824 0.4712 0.4620 0.4529 0.4263
2792.000000 0.3998 0.3791 0.3585 0.3378 0.3172
2797.000000 0.2965 0.2758 0.2551 0.2345 0.2138
2802.000000 0.1932 0.1838 0.1745 0.1734 0.1723
2807.000000 0.1721 0.1719 0.1722 0.1733 0.1734
2812.000000 0.1743 0.1787 0.1831 0.1957 0.2084
2817.000000 0.2210 0.2336 0.2462 0.2589 0.2715
2822.000000 0.2842 0.2968 0.3095 0.3221 0.3348
2827.000000 0.3474 0.3601 0.3727 0.3854 0.3980
2832.000000 0.4107 0.4163 0.4219 0.4221 0.4224
2837.000000 0.4225 0.4256 0.4226 0.4226 0.4220
2842.000000 0.4215 0.4195 0.4175 0.4125 0.4076
2847.000000 0.4027 0.3978 0.3928 0.3879 0.3829
2852.000000 0.3780 0.3731 0.3682 0.3632 0.3583
2857.000000 0.3533 0.3484 0.3435 0.3386 0.3336
2862.000000 0.3287 0.3238 0.3189 0.3166 0.3143
2867.000000 0.3143 0.3143 0.3143 0.3143 0.3144
2872.000000 0.3146 0.3148 0.3151 0.3150 0.3149
2877.000000 0.3147 0.3146 0.3111 0.3076 0.2978
2882.000000 0.2880 0.2781 0.2683 0.2584 0.2486
2887.000000 0.2387 0.2289 0.2191 0.2093 0.1994
2892.000000 0.1896 0.1797 0.1699 0.1601 0.1503
2897.000000 0.1430 0.1357 0.1352 0.1348 0.1350
2902.000000 0.1352 0.1385 0.1419 0.1526 0.1371
2907.000000 0.1740 0.1847 0.1954 0.2061 0.2168
2912.000000 0.2275 0.2382 0.2489 0.2596 0.2703
2917.000000 0.2810 0.2917 0.3024 0.3132 0.3239
2922.000000 0.3346 0.3453 0.3560 0.3575 0.3591
2927.000000 0.3592 0.3593 0.3591 0.3589 0.3585
2932.000000 0.3603 0.3576 0.3571 0.3565 0.3560
2937.000000 0.3446 0.3333 0.3150 0.2967 0.2783
2942.000000 0.2600 0.2417 0.2234 0.2050 0.1867
2947.000000 0.1684 0.1501 0.1317 0.1134 0.0951
2952.000000 0.0768 0.0585 0.0402 0.0324 0.0247
2957.000000 0.0221 0.0195 0.0192 0.0190 0.0193
2962.000000 0.0197 0.0202 0.0186 0.0234 0.0260
2967.000000 0.0508 0.0757 0.1005 0.1253 0.1501
2972.000000 0.1749 0.1997 0.2246 0.2494 0.2742
2977.000000 0.2990 0.3239 0.3433 0.3628 0.3781
2982.000000 0.3934 0.3976 0.4019 0.4075 0.4132
2987.000000 0.4221 0.4310 0.4389 0.4469 0.4525
2992.000000 0.4581 0.4642 0.4704 0.4797 0.4891
2997.000000 0.4924 0.4957 0.4990 0.5023 0.5056
3002.000000 0.5089 0.5122 0.5156 0.5190 0.5224
3007.000000 0.5249 0.5275 0.5297 0.5319 0.5341
3012.000000 0.5364 0.5386 0.5408 0.5430 0.5452
3017.000000 0.5471 0.5491 0.5507 0.5523 0.5538
3022.000000 0.5554 0.5570 0.5586 0.5602 0.5618
3027.000000 0.5634 0.5650 0.5666 0.5682 0.5696
3032.000000 0.5710 0.5720 0.5730 0.5739 0.5749
3037.000000 0.5759 0.5769 0.5779 0.5789 0.5798
3042.000000 0.5808 0.5818 0.5828 0.5838 0.5848
3047.000000 0.5857 0.5867 0.5877 0.5887 0.5896
3052.000000 0.5906 0.5915 0.5925 0.5935 0.5945
3057.000000 0.5954 0.5964 0.5976 0.5989 0.6002
3062.000000 0.6016 0.6029 0.6042 0.6055 0.6068
3067.000000 0.6081 0.6095 0.6108 0.6121 0.6134
3072.000000 0.6147 0.6159 0.6172 0.6184 0.6197
3077.000000 0.6210 0.6223 0.6235 0.6248 0.6260
3082.000000 0.6273 0.6286 0.6299 0.6311 0.6323
3087.000000 0.6334 0.6346 0.6357 0.6369 0.6381
3092.000000 0.6393 0.6404 0.6416 0.6427 0.6439
3097.000000 0.6451 0.6463 0.6474 0.6486 0.6498
3102.000000 0.6511 0.6524 0.6537 0.6550 0.6564
3107.000000 0.6577 0.6591 0.6604 0.6618 0.6632
3112.000000 0.6646 0.6660 0.6675 0.6689 0.6704
3117.000000 0.6719 0.6734 0.6748 0.6763 0.6777
3122.000000 0.6792 0.6806 0.6821 0.6828 0.6835
3127.000000 0.6841 0.6848 0.6854 0.6860 0.6866
3132.000000 0.6872 0.6878 0.6884 0.6890 0.6897
3137.000000 0.6903 0.6909 0.6915 0.6921 0.6926
3142.000000 0.6931 0.6935 0.6939 0.6943 0.6947
3147.000000 0.6951 0.6955 0.6959 0.6963 0.6967
3152.000000 0.6972 0.6976 0.6980 0.6982 0.6985
3157.000000 0.6986 0.6988 0.6989 0.6990 0.6991
3162.000000 0.6993 0.6995 0.6997 0.7001 0.7005
3167.000000 0.7009 0.7014 0.7018 0.7022 0.7026
3172.000000 0.7031 0.7035 0.7039 0.7043 0.7048
3177.000000 0.7053 0.7058 0.7064 0.7071 0.7077
3182.000000 0.7084 0.7090 0.7096 0.7105 0.7115
3187.000000 0.7127 0.7140 0.7155 0.7171 0.7183
3192.000000 0.7196 0.7208 0.7220 0.7233 0.7246
3197.000000 0.7258 0.7271 0.7284 0.7297 0.7309
3202.000000 0.7322 0.7335 0.7349 0.7365 0.7382
3207.000000 0.7398 0.7415 0.7431 0.7448 0.7464
3212.000000 0.7481 0.7497 0.7513 0.7525 0.7538
3217.000000 0.7550 0.7562 0.7574 0.7586 0.7598
3222.000000 0.7610 0.7622 0.7634 0.7647 0.7660
3227.000000 0.7673 0.7686 0.7699 0.7712 0.7725
3232.000000 0.7739 0.7753 0.7768 0.7779 0.7791
3237.000000 0.7799 0.7808 0.7816 0.7824 0.7832
3242.000000 0.7840 0.7848 0.7856 0.7864 0.7873
3247.000000 0.7876 0.7880 0.7883 0.7887 0.7890
3252.000000 0.7894 0.7897 0.7901 0.7902 0.7903
3257.000000 0.7904 0.7906 0.7907 0.7909 0.7910
3262.000000 0.7912 0.7911 0.7911 0.7909 0.7908
3267.000000 0.7907 0.7906 0.7904 0.7903 0.7901
3272.000000 0.7899 0.7895 0.7892 0.7888 0.7885
3277.000000 0.7881 0.7878 0.7873 0.7868 0.7862
3282.000000 0.7857 0.7852 0.7847 0.7841 0.7836
3287.000000 0.7830 0.7825 0.7819 0.7814 0.7808
3292.000000 0.7803 0.7799 0.7795 0.7791 0.7788
3297.000000 0.7785 0.7782 0.7778 0.7775 0.7772
3302.000000 0.7770 0.7769 0.7769 0.7768 0.7768
3307.000000 0.7767 0.7767 0.7766 0.7765 0.7764
3312.000000 0.7764 0.7763 0.7762 0.7761 0.7760
3317.000000 0.7758 0.7757 0.7756 0.7755 0.7754
3322.000000 0.7753 0.7752 0.7752 0.7751 0.7751
3327.000000 0.7752 0.7754 0.7762 0.7770 0.7778
3332.000000 0.7786 0.7794 0.7803 0.7814 0.7825
3337.000000 0.7836 0.7847 0.7858 0.7869 0.7881
3342.000000 0.7893 0.7904 0.7916 0.7922 0.7929
3347.000000 0.7931 0.7934 0.7936 0.7972 0.7940
3352.000000 0.7941 0.7940 0.7939 0.7938 0.7937
3357.000000 0.7935 0.7933 0.7927 0.7921 0.7914
3362.000000 0.7908 0.7902 0.7896 0.7888 0.7881
3367.000000 0.7870 0.7859 0.7848 0.7838 0.7827
3372.000000 0.7816 0.7797 0.7779 0.7760 0.7741
3377.000000 0.7714 0.7688 0.7654 0.7621 0.7537
3382.000000 0.7453 0.7423 0.7394 0.7366 0.7338
3387.000000 0.7327 0.7316 0.7316 0.7317 0.7320
3392.000000 0.7305 0.7328 0.7333 0.7352 0.7371
3397.000000 0.7391 0.7412 0.7451 0.7490 0.7540
3402.000000 0.7591 0.7668 0.7745 0.7861 0.7977
3407.000000 0.8046 0.8115 0.8141 0.8167 0.8187
3412.000000 0.8207 0.8224 0.8241 0.8258 0.8276
3417.000000 0.8293 0.8310 0.8320 0.8331 0.8338
3422.000000 0.8346 0.8353 0.8361 0.8368 0.8375
3427.000000 0.8381 0.8388 0.8394 0.8401 0.8407
3432.000000 0.8413 0.8419 0.8426 0.8432 0.8439
3437.000000 0.8443 0.8447 0.8451 0.8456 0.8460
3442.000000 0.8464 0.8468 0.8473 0.8477 0.8481
3447.000000 0.8485 0.8490 0.8494 0.8498 0.8502
3452.000000 0.8507 0.8511 0.8515 0.8519 0.8524
3457.000000 0.8528 0.8533 0.8539 0.8546 0.8552
3462.000000 0.8559 0.8565 0.8572 0.8578 0.8585
3467.000000 0.8591 0.8598 0.8604 0.8611 0.8616
3472.000000 0.8622 0.8627 0.8632 0.8637 0.8642
3477.000000 0.8647 0.8652 0.8657 0.8662 0.8666
3482.000000 0.8670 0.8674 0.8678 0.8681 0.8685
3487.000000 0.8689 0.8694 0.8698 0.8703 0.8707
3492.000000 0.8706 0.8716 0.8721 0.8726 0.8731
3497.000000 0.8735 0.8740 0.8744 0.8749 0.8753
3502.000000 0.8758 0.8761 0.8765 0.8767 0.8770
3507.000000 0.8772 0.8774 0.8776 0.8778 0.8780
3512.000000 0.8782 0.8784 0.8787 0.8789 0.8791
3517.000000 0.8793 0.8796 0.8798 0.8800 0.8802
3522.000000 0.8804 0.8805 0.8806 0.8806 0.8807
3527.000000 0.8808 0.8809 0.8810 0.8811 0.8811
3532.000000 0.8812 0.8813 0.8814 0.8815 0.8816
3537.000000 0.8816 0.8816 0.8816 0.8816 0.8816
3542.000000 0.8816 0.8815 0.8815 0.8815 0.8815
3547.000000 0.8814 0.8814 0.8813 0.8813 0.8812
3552.000000 0.8811 0.8810 0.8809 0.8808 0.8807
3557.000000 0.8806 0.8806 0.8805 0.8804 0.8803
3562.000000 0.8802 0.8801 0.8800 0.8799 0.8798
3567.000000 0.8797 0.8796 0.8795 0.8794 0.8793
3572.000000 0.8792 0.8791 0.8791 0.8790 0.8789
3577.000000 0.8788 0.8788 0.8788 0.8788 0.8788
3582.000000 0.8788 0.8788 0.8788 0.8788 0.8789
3587.000000 0.8789 0.8789 0.8799 0.8810 0.8825
3592.000000 0.8841 0.8852 0.8864 0.8873 0.8883
3597.000000 0.8888 0.8893 0.8894 0.8896 0.8897
3602.000000 0.8899 0.8900 0.8902 0.8902 0.8903
3607.000000 0.8902 0.8901 0.8900 0.8899 0.8897
3612.000000 0.8896 0.8895 0.8894 0.8885 0.8877
3617.000000 0.8865 0.8854 0.8843 0.8832 0.8824
3622.000000 0.8817 0.8812 0.8807 0.8802 0.8798
3627.000000 0.8793 0.8788 0.8784 0.8780 0.8777
3632.000000 0.8775 0.8772 0.8769 0.8766 0.8764
3637.000000 0.8761 0.8759 0.8757 0.8756 0.8755
3642.000000 0.8754 0.8753 0.8752 0.8751 0.8750
3647.000000 0.8749 0.8748 0.8747 0.8746 0.8745
3652.000000 0.8744 0.8742 0.8741 0.8739 0.8737
3657.000000 0.8735 0.8733 0.8731 0.8729 0.8727
3662.000000 0.8726 0.8724 0.8722 0.8720 0.8718
3667.000000 0.8713 0.8709 0.8695 0.8681 0.8667
3672.000000 0.8654 0.8626 0.8599 0.8564 0.8530
3677.000000 0.8494 0.8458 0.8420 0.8382 0.8354
3682.000000 0.8326 0.8320 0.8314 0.8314 0.8314
3687.000000 0.8314 0.8314 0.8317 0.8321 0.8371
3692.000000 0.8421 0.8471 0.8521 0.8559 0.8597
3697.000000 0.8640 0.8683 0.8686 0.8690 0.8693
3702.000000 0.8697 0.8700 0.8704 0.8707 0.8711
3707.000000 0.8712 0.8714 0.8715 0.8717 0.8718
3712.000000 0.8719 0.8720 0.8721 0.8722 0.8724
3717.000000 0.8724 0.8725 0.8725 0.8725 0.8724
3722.000000 0.8724 0.8724 0.8724 0.8724 0.8724
3727.000000 0.8723 0.8723 0.8723 0.8723 0.8721
3732.000000 0.8720 0.8718 0.8716 0.8714 0.8712
3737.000000 0.8710 0.8708 0.8706 0.8704 0.8702
3742.000000 0.8700 0.8699 0.8698 0.8698 0.8698
3747.000000 0.8699 0.8700 0.8708 0.8717 0.8725
3752.000000 0.8734 0.8743 0.8753 0.8763 0.8774
3757.000000 0.8785 0.8796 0.8804 0.8813 0.8821
3762.000000 0.8830 0.8838 0.8846 0.8854 0.8863
3767.000000 0.8871 0.8879 0.8884 0.8890 0.8895
3772.000000 0.8900 0.8905 0.8910 0.8915 0.8920
3777.000000 0.8924 0.8929 0.8930 0.8932 0.8933
3782.000000 0.8934 0.8935 0.8937 0.8938 0.8940
3787.000000 0.8941 0.8942 0.8943 0.8945 0.8945
3792.000000 0.8945 0.8945 0.8945 0.8945 0.8946
3797.000000 0.8946 0.8946 0.8946 0.8946 0.8946
3802.000000 0.8946 0.8946 0.8947 0.8947 0.8947
3807.000000 0.8947 0.8947
##END=
