##TITLE=METHANE, DIBROMOFLUORO-
##JCAMP-DX=4.24
##DATA TYPE=INFRARED SPECTRUM
##CLASS=COBLENTZ
##ORIGIN=DOW CHEMICAL COMPANY
##OWNER=COBLENTZ SOCIETY
Collection (C) 2018 copyright by the U.S. Secretary of Commerce
on behalf of the United States of America. All rights reserved.
##DATE=1968/11/29
##NAMES=dibromo(fluoro)methane
##CAS REGISTRY NO=1868-53-7
##MOLFORM=C H Br2 F
##SOURCE REFERENCE=COBLENTZ NO. 10479
##$NIST SOURCE=COBLENTZ
##$NIST IMAGE=cob10479
##SPECTROMETER/DATA SYSTEM=PERKIN-ELMER 225
##STATE=GAS (100 mmHg DILUTED TO ATMOSPHERIC PRESSURE WITH N2)
##PATH LENGTH=5 CM CsI CELL
##SAMPLING PROCEDURE=TRANSMISSION
##RESOLUTION=4
##DATA PROCESSING=DIGITIZED BY NIST FROM HARD COPY (FROM TWO SEGMENTS)
##XUNITS=1/CM
##YUNITS=TRANSMITTANCE
##XFACTOR=1.000000
##YFACTOR=1
##DELTAX=0.866873
##FIRSTX=350.341
##LASTX=3799.63
##FIRSTY=0.736
##MAXX=3799.63
##MINX=350.341
##MAXY=1
##MINY=0.006
##NPOINTS=3980
##XYDATA=(X++(Y..Y))
350.341000 0.7360 0.7360 0.7360 0.7360 0.7340
354.675367 0.7340 0.7310 0.7290 0.7270 0.7250
359.009734 0.7230 0.7220 0.7230 0.7260 0.7270
363.344100 0.7300 0.7310 0.7330 0.7330 0.7340
367.678467 0.7360 0.7380 0.7400 0.7410 0.7410
372.012834 0.7420 0.7420 0.7440 0.7440 0.7450
376.347201 0.7450 0.7460 0.7460 0.7480 0.7480
380.681567 0.7490 0.7490 0.7510 0.7510 0.7510
385.015934 0.7510 0.7510 0.7510 0.7510 0.7510
389.350301 0.7490 0.7490 0.7480 0.7460 0.7450
393.684668 0.7440 0.7420 0.7410 0.7400 0.7380
398.019034 0.7370 0.7360 0.7340 0.7330 0.7330
402.353401 0.7340 0.7340 0.7360 0.7370 0.7380
406.687768 0.7380 0.7380 0.7400 0.7400 0.7400
411.022135 0.7410 0.7410 0.7420 0.7420 0.7420
415.356501 0.7420 0.7420 0.7420 0.7420 0.7420
419.690868 0.7420 0.7420 0.7410 0.7410 0.7410
424.025235 0.7410 0.7400 0.7400 0.7400 0.7380
428.359602 0.7380 0.7380 0.7380 0.7400 0.7400
432.693968 0.7420 0.7440 0.7450 0.7450 0.7460
437.028335 0.7460 0.7460 0.7460 0.7460 0.7460
441.362702 0.7460 0.7450 0.7440 0.7440 0.7410
445.697069 0.7410 0.7400 0.7340 0.7330 0.7300
450.031435 0.7290 0.7300 0.7370 0.7410 0.7460
454.365802 0.7510 0.7550 0.7570 0.7610 0.7630
458.700169 0.7670 0.7740 0.7760 0.7780 0.7790
463.034536 0.7800 0.7820 0.7830 0.7860 0.7870
467.368902 0.7890 0.7900 0.7910 0.7910 0.7930
471.703269 0.7930 0.7950 0.7970 0.7980 0.7980
476.037636 0.7980 0.7980 0.7980 0.7980 0.7980
480.372003 0.7970 0.7970 0.7950 0.7950 0.7950
484.706369 0.7940 0.7940 0.7940 0.7940 0.7940
489.040736 0.7950 0.7950 0.7970 0.7970 0.7970
493.375103 0.7970 0.7950 0.7950 0.7940 0.7940
497.709470 0.7940 0.7940 0.7930 0.7930 0.7930
502.043836 0.7930 0.7930 0.7930 0.7910 0.7910
506.378203 0.7900 0.7890 0.7870 0.7870 0.7860
510.712570 0.7860 0.7850 0.7830 0.7820 0.7820
515.046937 0.7800 0.7790 0.7790 0.7790 0.7780
519.381303 0.7780 0.7760 0.7760 0.7750 0.7740
523.715670 0.7710 0.7700 0.7680 0.7650 0.7610
528.050037 0.7590 0.7550 0.7420 0.7400 0.7340
532.384404 0.7290 0.7230 0.7190 0.7170 0.7100
536.718770 0.7020 0.6930 0.6920 0.6920 0.6920
541.053137 0.6930 0.6950 0.6960 0.6960 0.6960
545.387504 0.6960 0.6950 0.6930 0.6910 0.6870
549.721871 0.6820 0.6820 0.6970 0.7180 0.7190
554.056237 0.7190 0.7140 0.7120 0.7110 0.7120
558.390604 0.7150 0.7190 0.7260 0.7360 0.7450
562.724971 0.7600 0.7750 0.7820 0.7870 0.7890
567.059338 0.7910 0.7930 0.7930 0.7930 0.7910
571.393704 0.7910 0.7890 0.7890 0.7870 0.7860
575.728071 0.7850 0.7830 0.7820 0.7790 0.7760
580.062438 0.7740 0.7720 0.7710 0.7710 0.7700
584.396805 0.7700 0.7680 0.7680 0.7670 0.7670
588.731171 0.7650 0.7630 0.7610 0.7570 0.7460
593.065538 0.7420 0.7410 0.7360 0.7270 0.7220
597.399905 0.7120 0.7080 0.7000 0.6880 0.6721
601.734272 0.6550 0.6380 0.6210 0.6060 0.5900
606.068638 0.5591 0.5271 0.5031 0.4871 0.4631
610.403005 0.4350 0.4020 0.3680 0.3340 0.3020
614.737372 0.2730 0.2500 0.2320 0.2121 0.2050
619.071739 0.1860 0.1800 0.1800 0.1970 0.2040
623.406105 0.2050 0.2060 0.2080 0.2080 0.2060
627.740472 0.1260 0.1260 0.1360 0.1889 0.2000
632.074839 0.2120 0.2379 0.2629 0.2869 0.3029
636.409206 0.3120 0.3230 0.3330 0.3360 0.3480
640.743573 0.3550 0.3570 0.3600 0.3630 0.3680
645.077939 0.3760 0.3860 0.3970 0.4100 0.4230
649.412306 0.4360 0.4470 0.4590 0.4690 0.4989
653.746673 0.5000 0.5030 0.5040 0.5080 0.5110
658.081040 0.5409 0.5829 0.6059 0.6319 0.6997
662.415406 0.7270 0.7650 0.7890 0.7970 0.8020
666.749773 0.8040 0.8050 0.8040 0.8020 0.7940
671.084140 0.7780 0.7630 0.7510 0.7290 0.7250
675.418507 0.7250 0.7340 0.7360 0.7330 0.7290
679.752873 0.7220 0.7060 0.6870 0.6680 0.6470
684.087240 0.6280 0.6090 0.5940 0.5790 0.5680
688.421607 0.5610 0.5480 0.5300 0.5020 0.4591
692.755974 0.4231 0.3871 0.3122 0.2422 0.1793
697.090340 0.1230 0.1000 0.0760 0.0350 0.0120
701.424707 0.0100 0.0100 0.0100 0.0100 0.0100
705.759074 0.0100 0.0090 0.0090 0.0090 0.0090
710.093441 0.0090 0.0090 0.0090 0.0090 0.0090
714.427807 0.0090 0.0090 0.0090 0.0090 0.0090
718.762174 0.0090 0.0090 0.0090 0.0100 0.2491
723.096541 0.3040 0.3310 0.3780 0.4250 0.4779
727.430908 0.5169 0.5330 0.5400 0.5420 0.5440
731.765274 0.5490 0.5570 0.5640 0.5700 0.5700
736.099641 0.5461 0.5440 0.5440 0.5490 0.5639
740.434008 0.5930 0.6210 0.6360 0.6730 0.6850
744.768375 0.6870 0.6840 0.6820 0.6760 0.6650
749.102741 0.6530 0.6390 0.6120 0.5910 0.5750
753.437108 0.5560 0.5420 0.5171 0.4971 0.4801
757.771475 0.4540 0.4290 0.3680 0.2971 0.2840
762.105842 0.2660 0.2480 0.2121 0.1682 0.1232
766.440208 0.1080 0.0920 0.0800 0.0690 0.0610
770.774575 0.0610 0.0620 0.0630 0.0650 0.0730
775.108942 0.0760 0.1150 0.1220 0.1720 0.2200
779.443309 0.2619 0.3029 0.3399 0.3749 0.4059
783.777675 0.4360 0.4660 0.4920 0.5370 0.5750
788.112042 0.6099 0.6399 0.6659 0.6889 0.7079
792.446409 0.7250 0.7380 0.7490 0.7590 0.7650
796.780776 0.7720 0.7780 0.7820 0.7860 0.7900
801.115142 0.7940 0.7980 0.7980 0.8000 0.8000
805.449509 0.8000 0.8000 0.7980 0.7980 0.7970
809.783876 0.7950 0.7940 0.7940 0.7930 0.7910
814.118243 0.7900 0.7900 0.7890 0.7890 0.7870
818.452609 0.7890 0.7890 0.7910 0.7930 0.7970
822.786976 0.8010 0.8050 0.8060 0.8100 0.8140
827.121343 0.8200 0.8250 0.8320 0.8400 0.8440
831.455710 0.8480 0.8500 0.8510 0.8510 0.8510
835.790076 0.8510 0.8530 0.8530 0.8530 0.8530
840.124443 0.8530 0.8530 0.8530 0.8530 0.8530
844.458810 0.8530 0.8530 0.8530 0.8530 0.8530
848.793177 0.8530 0.8530 0.8530 0.8530 0.8530
853.127543 0.8530 0.8510 0.8510 0.8510 0.8510
857.461910 0.8500 0.8500 0.8500 0.8500 0.8480
861.796277 0.8480 0.8470 0.8460 0.8440 0.8430
866.130644 0.8430 0.8420 0.8420 0.8400 0.8380
870.465010 0.8360 0.8360 0.8350 0.8340 0.8340
874.799377 0.8340 0.8340 0.8340 0.8350 0.8350
879.133744 0.8360 0.8380 0.8390 0.8390 0.8400
883.468111 0.8420 0.8440 0.8440 0.8440 0.8440
887.802477 0.8440 0.8440 0.8440 0.8440 0.8440
892.136844 0.8440 0.8440 0.8440 0.8430 0.8430
896.471211 0.8420 0.8400 0.8400 0.8380 0.8360
900.805578 0.8350 0.8340 0.8320 0.8310 0.8290
905.139944 0.8290 0.8280 0.8280 0.8280 0.8270
909.474311 0.8240 0.8200 0.8140 0.8100 0.8080
913.808678 0.8060 0.8050 0.8040 0.8020 0.8020
918.143045 0.8010 0.8010 0.8010 0.8010 0.8000
922.477412 0.7980 0.7980 0.7980 0.8000 0.8020
926.811778 0.8050 0.8090 0.8120 0.8160 0.8210
931.146145 0.8230 0.8280 0.8310 0.8320 0.8340
935.480512 0.8350 0.8360 0.8360 0.8360 0.8380
939.814879 0.8380 0.8380 0.8380 0.8380 0.8380
944.149245 0.8380 0.8380 0.8380 0.8390 0.8400
948.483612 0.8400 0.8420 0.8430 0.8440 0.8440
952.817979 0.8440 0.8460 0.8460 0.8470 0.8470
957.152346 0.8470 0.8470 0.8470 0.8460 0.8460
961.486712 0.8440 0.8440 0.8430 0.8430 0.8430
965.821079 0.8420 0.8400 0.8400 0.8390 0.8380
970.155446 0.8380 0.8360 0.8310 0.8270 0.8250
974.489813 0.8240 0.8240 0.8250 0.8250 0.8250
978.824179 0.8250 0.8240 0.8240 0.8230 0.8210
983.158546 0.8200 0.8170 0.8140 0.8100 0.8080
987.492913 0.8080 0.8060 0.8060 0.8060 0.8050
991.827280 0.8020 0.8000 0.7950 0.7900 0.7870
996.161646 0.7820 0.7790 0.7750 0.7740 0.7740
1000.496013 0.7740 0.7750 0.7750 0.7760 0.7780
1004.830380 0.7780 0.7790 0.7800 0.7800 0.7800
1009.164747 0.7800 0.7820 0.7820 0.7830 0.7860
1013.499113 0.7930 0.8000 0.8050 0.8090 0.8100
1017.833480 0.8100 0.8130 0.8130 0.8100 0.8090
1022.167847 0.8060 0.8010 0.7980 0.7970 0.7930
1026.502214 0.7870 0.7790 0.7720 0.7640 0.7560
1030.836580 0.7460 0.7360 0.7250 0.7121 0.6991
1035.170947 0.6840 0.6680 0.6500 0.6290 0.6090
1039.505314 0.5850 0.5601 0.5311 0.5021 0.4691
1043.839681 0.4340 0.4060 0.3760 0.3450 0.3110
1048.174047 0.2771 0.2421 0.2051 0.1681 0.1331
1052.508414 0.1150 0.0960 0.0610 0.0250 0.0170
1056.842781 0.0130 0.0100 0.0090 0.0080 0.0060
1061.177148 0.0060 0.0080 0.0080 0.0080 0.0080
1065.511514 0.0080 0.0080 0.0080 0.0080 0.0080
1069.845881 0.0080 0.0080 0.0080 0.0080 0.0080
1074.180248 0.0080 0.0080 0.0080 0.0080 0.0080
1078.514615 0.0060 0.0060 0.0060 0.0080 0.0080
1082.848981 0.0080 0.0090 0.0100 0.0120 0.0130
1087.183348 0.0170 0.0210 0.0280 0.0360 0.1019
1091.517715 0.1379 0.1779 0.2189 0.2618 0.3068
1095.852082 0.3551 0.4050 0.4570 0.5100 0.5640
1100.186448 0.6199 0.6809 0.7169 0.7559 0.7590
1104.520815 0.7820 0.8020 0.8090 0.8130 0.8140
1108.855182 0.8140 0.8140 0.8130 0.8130 0.8130
1113.189549 0.8120 0.8120 0.8120 0.8120 0.8120
1117.523915 0.8100 0.8100 0.8100 0.8080 0.8080
1121.858282 0.8050 0.8040 0.8020 0.8010 0.8010
1126.192649 0.7980 0.7970 0.7970 0.7950 0.7930
1130.527016 0.7900 0.7870 0.7850 0.7830 0.7800
1134.861382 0.7790 0.7760 0.7710 0.7640 0.7610
1139.195749 0.7560 0.7490 0.7410 0.7330 0.7230
1143.530116 0.7070 0.7030 0.6930 0.6810 0.6591
1147.864483 0.6430 0.6320 0.6190 0.6020 0.5760
1152.198849 0.5700 0.5560 0.5181 0.4632 0.3873
1156.533216 0.2909 0.2309 0.1710 0.0970 0.0241
1160.867583 0.0200 0.0130 0.0100 0.0090 0.0080
1165.201950 0.0060 0.0060 0.0080 0.0090 0.0170
1169.536316 0.0200 0.0310 0.0340 0.0240 0.0170
1173.870683 0.0100 0.0080 0.0080 0.0090 0.0140
1178.205050 0.0210 0.0439 0.2344 0.3516 0.4476
1182.539417 0.5290 0.6050 0.6840 0.7379 0.7610
1186.873783 0.7750 0.7760 0.7760 0.7760 0.7750
1191.208150 0.7740 0.7720 0.7710 0.7700 0.7670
1195.542517 0.7640 0.7630 0.7610 0.7590 0.7550
1199.876884 0.7510 0.7440 0.7360 0.7270 0.7170
1204.211251 0.7060 0.6920 0.6780 0.6621 0.6441
1208.545617 0.6270 0.6060 0.5850 0.5610 0.5370
1212.879984 0.5101 0.4821 0.4531 0.4201 0.3951
1217.214351 0.3940 0.3740 0.3710 0.3740 0.4049
1221.548718 0.4379 0.4719 0.4949 0.4970 0.5000
1225.883084 0.5020 0.5040 0.5120 0.5230 0.5260
1230.217451 0.5340 0.5590 0.5301 0.5021 0.5339
1234.551818 0.5380 0.5400 0.5400 0.5380 0.5310
1238.886185 0.5310 0.5370 0.5450 0.5600 0.5869
1243.220551 0.6040 0.6160 0.6250 0.6400 0.6620
1247.554918 0.6700 0.6730 0.6740 0.6740 0.6740
1251.889285 0.6760 0.6880 0.7070 0.7210 0.7330
1256.223652 0.7410 0.7480 0.7530 0.7570 0.7610
1260.558018 0.7650 0.7700 0.7750 0.7790 0.7800
1264.892385 0.7800 0.7820 0.7800 0.7750 0.7700
1269.226752 0.7610 0.7550 0.7490 0.7410 0.7300
1273.561119 0.7170 0.7020 0.6841 0.6631 0.6431
1277.895485 0.6210 0.5980 0.5750 0.5510 0.5260
1282.229852 0.5030 0.4781 0.4541 0.4311 0.4091
1286.564219 0.3870 0.3860 0.3630 0.3600 0.3630
1290.898586 0.3740 0.3860 0.3890 0.3890 0.3113
1295.232952 0.2461 0.3150 0.3830 0.4090 0.3900
1299.567319 0.3790 0.3750 0.3940 0.4309 0.4529
1303.901686 0.4690 0.4840 0.4960 0.5110 0.5270
1308.236053 0.5530 0.5759 0.5939 0.6119 0.6279
1312.570419 0.6460 0.6610 0.6770 0.6910 0.7060
1316.904786 0.7180 0.7300 0.7410 0.7520 0.7590
1321.239153 0.7640 0.7650 0.7650 0.7650 0.7640
1325.573520 0.7600 0.7560 0.7530 0.7510 0.7510
1329.907886 0.7510 0.7520 0.7520 0.7530 0.7550
1334.242253 0.7560 0.7590 0.7600 0.7610 0.7630
1338.576620 0.7650 0.7700 0.7750 0.7800 0.8010
1342.910987 0.8080 0.8100 0.8130 0.8130 0.8140
1347.245353 0.8140 0.8140 0.8140 0.8130 0.8120
1351.579720 0.8100 0.8090 0.8080 0.8060 0.8050
1355.914087 0.8020 0.8010 0.7980 0.7950 0.7910
1360.248454 0.7870 0.7850 0.7800 0.7760 0.7740
1364.582820 0.7710 0.7700 0.7680 0.7650 0.7650
1368.917187 0.7640 0.7650 0.7670 0.7700 0.7740
1373.251554 0.7790 0.7820 0.7820 0.7820 0.7740
1377.585921 0.7630 0.7570 0.7510 0.7450 0.7420
1381.920287 0.7420 0.7440 0.7480 0.7490 0.7520
1386.254654 0.7520 0.7520 0.7510 0.7331 0.7330
1390.589021 0.7550 0.7740 0.7780 0.7850 0.7860
1394.923388 0.7870 0.7870 0.7890 0.7890 0.7890
1399.257754 0.7870 0.7860 0.7860 0.7850 0.7850
1403.592121 0.7830 0.7830 0.7820 0.7790 0.7750
1407.926488 0.7740 0.7720 0.7710 0.7710 0.7710
1412.260855 0.7700 0.7700 0.7680 0.7680 0.7670
1416.595221 0.7670 0.7670 0.7650 0.7650 0.7640
1420.929588 0.7630 0.7630 0.7590 0.7560 0.7570
1425.263955 0.7600 0.7640 0.7670 0.7700 0.7740
1429.598322 0.7780 0.7830 0.7860 0.7870 0.7870
1433.932688 0.7870 0.7870 0.7870 0.7870 0.7870
1438.267055 0.7860 0.7860 0.7870 0.7870 0.7900
1442.601422 0.7940 0.7940 0.7950 0.7950 0.7950
1446.935789 0.7970 0.7970 0.7970 0.7970 0.7950
1451.270155 0.7950 0.7940 0.7930 0.7930 0.7910
1455.604522 0.7900 0.7890 0.7890 0.7890 0.7890
1459.938889 0.7890 0.7900 0.7910 0.7910 0.7930
1464.273256 0.7930 0.7930 0.7930 0.7900 0.7870
1468.607622 0.7780 0.7700 0.7700 0.7710 0.7980
1472.941989 0.8010 0.8040 0.8050 0.8080 0.8090
1477.276356 0.8100 0.8120 0.8130 0.8140 0.8160
1481.610723 0.8170 0.8190 0.8200 0.8210 0.8230
1485.945090 0.8240 0.8280 0.8320 0.8350 0.8390
1490.279456 0.8430 0.8460 0.8480 0.8500 0.8510
1494.613823 0.8510 0.8530 0.8530 0.8540 0.8540
1498.948190 0.8550 0.8550 0.8570 0.8570 0.8580
1503.282557 0.8580 0.8580 0.8580 0.8580 0.8580
1507.616923 0.8580 0.8580 0.8580 0.8580 0.8580
1511.951290 0.8580 0.8580 0.8580 0.8580 0.8580
1516.285657 0.8580 0.8580 0.8580 0.8570 0.8570
1520.620024 0.8550 0.8550 0.8550 0.8550 0.8550
1524.954390 0.8550 0.8550 0.8570 0.8580 0.8580
1529.288757 0.8580 0.8580 0.8580 0.8580 0.8580
1533.623124 0.8590 0.8590 0.8610 0.8610 0.8610
1537.957491 0.8610 0.8610 0.8610 0.8610 0.8610
1542.291857 0.8610 0.8620 0.8620 0.8620 0.8620
1546.626224 0.8620 0.8620 0.8620 0.8620 0.8620
1550.960591 0.8630 0.8630 0.8630 0.8650 0.8660
1555.294958 0.8660 0.8660 0.8660 0.8660 0.8680
1559.629324 0.8680 0.8680 0.8680 0.8680 0.8680
1563.963691 0.8680 0.8660 0.8660 0.8660 0.8650
1568.298058 0.8650 0.8630 0.8630 0.8630 0.8630
1572.632425 0.8630 0.8630 0.8630 0.8630 0.8630
1576.966791 0.8630 0.8630 0.8630 0.8650 0.8650
1581.301158 0.8680 0.8690 0.8690 0.8690 0.8700
1585.635525 0.8700 0.8700 0.8700 0.8700 0.8700
1589.969892 0.8700 0.8700 0.8700 0.8700 0.8700
1594.304258 0.8700 0.8690 0.8690 0.8690 0.8690
1598.638625 0.8680 0.8680 0.8680 0.8680 0.8680
1602.972992 0.8680 0.8680 0.8680 0.8680 0.8680
1607.307359 0.8680 0.8680 0.8680 0.8680 0.8660
1611.641725 0.8650 0.8650 0.8630 0.8630 0.8620
1615.976092 0.8610 0.8590 0.8580 0.8570 0.8570
1620.310459 0.8540 0.8530 0.8500 0.8480 0.8460
1624.644826 0.8440 0.8430 0.8430 0.8420 0.8420
1628.979192 0.8430 0.8440 0.8460 0.8470 0.8510
1633.313559 0.8530 0.8540 0.8540 0.8550 0.8570
1637.647926 0.8570 0.8570 0.8570 0.8590 0.8610
1641.982293 0.8620 0.8630 0.8630 0.8650 0.8650
1646.316659 0.8680 0.8690 0.8690 0.8700 0.8700
1650.651026 0.8720 0.8720 0.8720 0.8720 0.8730
1654.985393 0.8730 0.8730 0.8730 0.8730 0.8730
1659.319760 0.8730 0.8720 0.8720 0.8730 0.8740
1663.654126 0.8740 0.8760 0.8760 0.8760 0.8760
1667.988493 0.8760 0.8760 0.8760 0.8760 0.8760
1672.322860 0.8740 0.8740 0.8730 0.8730 0.8720
1676.657227 0.8720 0.8700 0.8700 0.8700 0.8690
1680.991593 0.8690 0.8690 0.8690 0.8690 0.8690
1685.325960 0.8690 0.8690 0.8690 0.8690 0.8700
1689.660327 0.8700 0.8700 0.8700 0.8700 0.8700
1693.994694 0.8700 0.8700 0.8700 0.8700 0.8700
1698.329060 0.8700 0.8700 0.8700 0.8700 0.8700
1702.663427 0.8700 0.8700 0.8700 0.8700 0.8700
1706.997794 0.8700 0.8700 0.8690 0.8690 0.8690
1711.332161 0.8690 0.8680 0.8680 0.8680 0.8680
1715.666527 0.8680 0.8680 0.8680 0.8680 0.8680
1720.000894 0.8680 0.8680 0.8680 0.8680 0.8680
1724.335261 0.8680 0.8680 0.8680 0.8680 0.8680
1728.669628 0.8680 0.8680 0.8680 0.8680 0.8680
1733.003994 0.8680 0.8680 0.8680 0.8660 0.8660
1737.338361 0.8660 0.8660 0.8650 0.8650 0.8650
1741.672728 0.8650 0.8650 0.8650 0.8660 0.8660
1746.007095 0.8660 0.8680 0.8680 0.8680 0.8680
1750.341461 0.8680 0.8680 0.8690 0.8690 0.8690
1754.675828 0.8690 0.8690 0.8690 0.8700 0.8700
1759.010195 0.8720 0.8720 0.8730 0.8730 0.8740
1763.344562 0.8740 0.8760 0.8760 0.8760 0.8740
1767.678929 0.8740 0.8760 0.8770 0.8760 0.8760
1772.013295 0.8760 0.8770 0.8770 0.8770 0.8770
1776.347662 0.8770 0.8770 0.8770 0.8770 0.8770
1780.682029 0.8760 0.8760 0.8760 0.8760 0.8760
1785.016396 0.8760 0.8760 0.8760 0.8780 0.8780
1789.350762 0.8780 0.8800 0.8800 0.8780 0.8780
1793.685129 0.8780 0.8770 0.8770 0.8770 0.8770
1798.019496 0.8760 0.8760 0.8760 0.8760 0.8760
1802.353863 0.8770 0.8770 0.8800 0.8800 0.8810
1806.688229 0.8800 0.8800 0.8800 0.8780 0.8780
1811.022596 0.8780 0.8780 0.8780 0.8800 0.8800
1815.356963 0.8810 0.8810 0.8810 0.8810 0.8820
1819.691330 0.8840 0.8840 0.8810 0.8800 0.8800
1824.025696 0.8780 0.8780 0.8780 0.8800 0.8800
1828.360063 0.8800 0.8810 0.8820 0.8820 0.8820
1832.694430 0.8840 0.8840 0.8840 0.8800 0.8800
1837.028797 0.8800 0.8800 0.8810 0.8810 0.8820
1841.363163 0.8820 0.8810 0.8820 0.8820 0.8820
1845.697530 0.8820 0.8820 0.8820 0.8820 0.8820
1850.031897 0.8820 0.8820 0.8820 0.8820 0.8820
1854.366264 0.8820 0.8820 0.8810 0.8810 0.8810
1858.700630 0.8810 0.8800 0.8800 0.8800 0.8800
1863.034997 0.8800 0.8800 0.8800 0.8800 0.8800
1867.369364 0.8800 0.8800 0.8800 0.8800 0.8800
1871.703731 0.8810 0.8810 0.8810 0.8810 0.8810
1876.038097 0.8810 0.8810 0.8810 0.8810 0.8810
1880.372464 0.8810 0.8810 0.8820 0.8810 0.8800
1884.706831 0.8800 0.8800 0.8800 0.8810 0.8810
1889.041198 0.8810 0.8810 0.8820 0.8820 0.8820
1893.375564 0.8840 0.8840 0.8840 0.8840 0.8810
1897.709931 0.8810 0.8800 0.8800 0.8820 0.8820
1902.044298 0.8840 0.8840 0.8840 0.8820 0.8810
1906.378665 0.8810 0.8800 0.8800 0.8780 0.8780
1910.713031 0.8780 0.8800 0.8810 0.8820 0.8820
1915.047398 0.8840 0.8840 0.8840 0.8840 0.8820
1919.381765 0.8820 0.8820 0.8810 0.8810 0.8800
1923.716132 0.8770 0.8770 0.8760 0.8760 0.8760
1928.050498 0.8760 0.8770 0.8770 0.8780 0.8780
1932.384865 0.8800 0.8800 0.8800 0.8780 0.8780
1936.719232 0.8800 0.8810 0.8820 0.8820 0.8820
1941.053599 0.8820 0.8820 0.8840 0.8840 0.8840
1945.387965 0.8820 0.8810 0.8800 0.8800 0.8800
1949.722332 0.8800 0.8810 0.8810 0.8810 0.8810
1954.056699 0.8810 0.8810 0.8810 0.8810 0.8820
1958.391066 0.8820 0.8820 0.8840 0.8840 0.8840
1962.725432 0.8840 0.8840 0.8840 0.8850 0.8850
1967.059799 0.8850 0.8850 0.8850 0.8850 0.8870
1971.394166 0.8870 0.8870 0.8880 0.8880 0.8880
1975.728533 0.8880 0.8880 0.8880 0.8880 0.8870
1980.062899 0.8870 0.8850 0.8850 0.8850 0.8850
1984.397266 0.8850 0.8850 0.8850 0.8840 0.8840
1988.731633 0.8840 0.8840 0.8840 0.8840 0.8840
1993.066000 0.8850 0.8850 0.8850 0.8870 0.8870
1997.400366 0.8870 0.8880 0.8880 0.8880 0.8885
2001.734733 0.8890 0.8900 0.8910 0.8910 0.8910
2006.069100 0.8915 0.8920 0.8920 0.8920 0.8920
2010.403467 0.8920 0.8925 0.8930 0.8930 0.8930
2014.737833 0.8930 0.8930 0.8930 0.8930 0.8940
2019.072200 0.8950 0.8950 0.8950 0.8950 0.8950
2023.406567 0.8960 0.8970 0.8970 0.8970 0.8970
2027.740934 0.8970 0.8970 0.8970 0.8970 0.8970
2032.075300 0.8970 0.8970 0.8980 0.8990 0.8990
2036.409667 0.8990 0.8990 0.8990 0.8990 0.8990
2040.744034 0.8990 0.8990 0.8995 0.9000 0.9000
2045.078401 0.9000 0.9000 0.9000 0.9000 0.9000
2049.412768 0.9000 0.9000 0.9010 0.9020 0.9020
2053.747134 0.9020 0.9020 0.9020 0.9020 0.9020
2058.081501 0.9020 0.9020 0.9020 0.9020 0.9020
2062.415868 0.9020 0.9020 0.9020 0.9020 0.9020
2066.750235 0.9020 0.9020 0.9020 0.9020 0.9020
2071.084601 0.9020 0.9020 0.9020 0.9010 0.9000
2075.418968 0.9000 0.9000 0.9000 0.9000 0.8995
2079.753335 0.8990 0.8990 0.8990 0.8975 0.8961
2084.087702 0.8955 0.8950 0.8940 0.8930 0.8930
2088.422068 0.8930 0.8925 0.8920 0.8915 0.8910
2092.756435 0.8910 0.8910 0.8900 0.8890 0.8890
2097.090802 0.8890 0.8880 0.8870 0.8856 0.8841
2101.425169 0.8826 0.8811 0.8810 0.8810 0.8776
2105.759535 0.8741 0.8721 0.8701 0.8637 0.8572
2110.093902 0.8507 0.8442 0.8382 0.8322 0.8257
2114.428269 0.8192 0.8123 0.8053 0.7978 0.7903
2118.762636 0.7823 0.7744 0.7648 0.7553 0.7458
2123.097002 0.7363 0.7244 0.7124 0.6999 0.6874
2127.431369 0.6802 0.6733 0.6730 0.6730 0.6807
2131.765736 0.6887 0.6938 0.6988 0.7028 0.7068
2136.100103 0.7070 0.7070 0.6854 0.6627 0.6620
2140.434469 0.6620 0.6712 0.6807 0.6887 0.6967
2144.768836 0.7128 0.7293 0.7391 0.7486 0.7844
2149.103203 0.8213 0.8402 0.8581 0.8671 0.8756
2153.437570 0.8836 0.8916 0.8992 0.9067 0.9109
2157.771936 0.9148 0.9169 0.9189 0.9200 0.9210
2162.106303 0.9210 0.9210 0.9210 0.9210 0.9215
2166.440670 0.9220 0.9225 0.9230 0.9230 0.9230
2170.775037 0.9239 0.9249 0.9250 0.9250 0.9250
2175.109403 0.9250 0.9240 0.9230 0.9230 0.9230
2179.443770 0.9230 0.9230 0.9225 0.9220 0.9215
2183.778137 0.9210 0.9210 0.9210 0.9201 0.9191
2188.112504 0.9199 0.9209 0.9215 0.9220 0.9225
2192.446870 0.9230 0.9230 0.9230 0.9240 0.9249
2196.781237 0.9250 0.9250 0.9250 0.9250 0.9241
2201.115604 0.9231 0.9230 0.9230 0.9225 0.9220
2205.449971 0.9220 0.9220 0.9225 0.9230 0.9230
2209.784337 0.9230 0.9230 0.9230 0.9239 0.9249
2214.118704 0.9250 0.9250 0.9250 0.9250 0.9250
2218.453071 0.9250 0.9241 0.9231 0.9230 0.9230
2222.787438 0.9225 0.9220 0.9220 0.9220 0.9215
2227.121804 0.9210 0.9210 0.9210 0.9201 0.9191
2231.456171 0.9190 0.9190 0.9171 0.9151 0.9131
2235.790538 0.9111 0.9096 0.9081 0.9071 0.9061
2240.124905 0.9060 0.9060 0.9051 0.9041 0.9040
2244.459271 0.9040 0.9040 0.9040 0.9040 0.9040
2248.793638 0.9049 0.9059 0.9065 0.9070 0.9075
2253.128005 0.9080 0.9089 0.9099 0.9105 0.9110
2257.462372 0.9138 0.9168 0.9179 0.9189 0.9199
2261.796738 0.9209 0.9215 0.9220 0.9220 0.9220
2266.131105 0.9225 0.9230 0.9239 0.9249 0.9255
2270.465472 0.9260 0.9260 0.9260 0.9260 0.9260
2274.799839 0.9265 0.9270 0.9270 0.9270 0.9279
2279.134205 0.9289 0.9290 0.9290 0.9290 0.9290
2283.468572 0.9295 0.9300 0.9300 0.9300 0.9305
2287.802939 0.9310 0.9319 0.9329 0.9330 0.9330
2292.137306 0.9330 0.9330 0.9330 0.9330 0.9330
2296.471672 0.9330 0.9321 0.9311 0.9310 0.9310
2300.806039 0.9310 0.9310 0.9319 0.9329 0.9330
2305.140406 0.9330 0.9330 0.9330 0.9316 0.9301
2309.474773 0.9300 0.9300 0.9300 0.9300 0.9300
2313.809140 0.9300 0.9300 0.9300 0.9305 0.9310
2318.143506 0.9310 0.9310 0.9324 0.9339 0.9349
2322.477873 0.9359 0.9383 0.9408 0.9424 0.9439
2326.812240 0.9445 0.9450 0.9450 0.9450 0.9450
2331.146607 0.9450 0.9455 0.9460 0.9460 0.9460
2335.480973 0.9469 0.9479 0.9480 0.9480 0.9480
2339.815340 0.9480 0.9480 0.9480 0.9485 0.9490
2344.149707 0.9490 0.9490 0.9499 0.9509 0.9519
2348.484074 0.9529 0.9544 0.9559 0.9565 0.9570
2352.818440 0.9570 0.9570 0.9570 0.9570 0.9565
2357.152807 0.9560 0.9555 0.9550 0.9550 0.9550
2361.487174 0.9541 0.9531 0.9530 0.9530 0.9525
2365.821541 0.9520 0.9520 0.9520 0.9520 0.9520
2370.155907 0.9515 0.9510 0.9510 0.9510 0.9496
2374.490274 0.9481 0.9480 0.9480 0.9471 0.9461
2378.824641 0.9460 0.9460 0.9456 0.9450 0.9445
2383.159008 0.9440 0.9440 0.9440 0.9431 0.9421
2387.493374 0.9415 0.9410 0.9410 0.9410 0.9406
2391.827741 0.9401 0.9391 0.9381 0.9380 0.9380
2396.162108 0.9380 0.9380 0.9376 0.9370 0.9370
2400.496475 0.9370 0.9370 0.9370 0.9365 0.9360
2404.830841 0.9360 0.9360 0.9351 0.9341 0.9340
2409.165208 0.9340 0.9340 0.9340 0.9340 0.9340
2413.499575 0.9340 0.9340 0.9349 0.9359 0.9360
2417.833942 0.9360 0.9364 0.9369 0.9370 0.9370
2422.168308 0.9374 0.9379 0.9380 0.9380 0.9380
2426.502675 0.9380 0.9380 0.9380 0.9380 0.9380
2430.837042 0.9380 0.9380 0.9380 0.9380 0.9380
2435.171409 0.9380 0.9380 0.9380 0.9389 0.9399
2439.505775 0.9400 0.9400 0.9400 0.9400 0.9400
2443.840142 0.9400 0.9400 0.9400 0.9400 0.9400
2448.174509 0.9400 0.9400 0.9400 0.9400 0.9387
2452.508876 0.9372 0.9352 0.9332 0.9303 0.9273
2456.843242 0.9252 0.9232 0.9208 0.9183 0.9154
2461.177609 0.9124 0.9102 0.9082 0.9071 0.9061
2465.511976 0.9051 0.9041 0.9040 0.9040 0.9067
2469.846343 0.9097 0.9100 0.9100 0.9109 0.9119
2474.180709 0.9129 0.9139 0.9188 0.9243 0.9289
2478.515076 0.9334 0.9371 0.9406 0.9427 0.9447
2482.849443 0.9463 0.9478 0.9484 0.9489 0.9490
2487.183810 0.9490 0.9490 0.9490 0.9490 0.9490
2491.518176 0.9499 0.9509 0.9510 0.9510 0.9510
2495.852543 0.9510 0.9510 0.9510 0.9510 0.9510
2500.186910 0.9510 0.9510 0.9510 0.9510 0.9510
2504.521277 0.9510 0.9510 0.9510 0.9514 0.9519
2508.855643 0.9520 0.9520 0.9520 0.9520 0.9520
2513.190010 0.9520 0.9524 0.9529 0.9530 0.9530
2517.524377 0.9530 0.9530 0.9530 0.9530 0.9539
2521.858744 0.9549 0.9554 0.9559 0.9560 0.9560
2526.193110 0.9560 0.9560 0.9564 0.9569 0.9570
2530.527477 0.9570 0.9570 0.9570 0.9579 0.9589
2534.861844 0.9590 0.9590 0.9581 0.9571 0.9570
2539.196211 0.9570 0.9566 0.9561 0.9560 0.9560
2543.530577 0.9556 0.9551 0.9550 0.9550 0.9541
2547.864944 0.9531 0.9530 0.9530 0.9521 0.9511
2552.199311 0.9510 0.9510 0.9501 0.9491 0.9477
2556.533678 0.9462 0.9456 0.9451 0.9450 0.9450
2560.868044 0.9446 0.9441 0.9431 0.9421 0.9411
2565.202411 0.9401 0.9387 0.9372 0.9357 0.9342
2569.536778 0.9327 0.9312 0.9301 0.9291 0.9277
2573.871145 0.9262 0.9260 0.9260 0.9256 0.9251
2578.205511 0.9250 0.9250 0.9250 0.9250 0.9259
2582.539878 0.9269 0.9287 0.9307 0.9340 0.9375
2586.874245 0.9397 0.9417 0.9446 0.9476 0.9493
2591.208612 0.9508 0.9527 0.9547 0.9559 0.9569
2595.542979 0.9583 0.9598 0.9604 0.9609 0.9627
2599.877345 0.9647 0.9663 0.9678 0.9688 0.9698
2604.211712 0.9700 0.9700 0.9700 0.9700 0.9700
2608.546079 0.9700 0.9700 0.9700 0.9700 0.9700
2612.880446 0.9700 0.9700 0.9700 0.9700 0.9700
2617.214812 0.9700 0.9700 0.9700 0.9700 0.9700
2621.549179 0.9700 0.9700 0.9700 0.9700 0.9700
2625.883546 0.9700 0.9700 0.9700 0.9700 0.9700
2630.217913 0.9700 0.9700 0.9700 0.9700 0.9700
2634.552279 0.9700 0.9700 0.9700 0.9700 0.9700
2638.886646 0.9700 0.9700 0.9700 0.9700 0.9700
2643.221013 0.9700 0.9692 0.9682 0.9680 0.9680
2647.555380 0.9680 0.9680 0.9688 0.9698 0.9700
2651.889746 0.9700 0.9700 0.9700 0.9704 0.9709
2656.224113 0.9710 0.9710 0.9710 0.9710 0.9710
2660.558480 0.9710 0.9714 0.9719 0.9720 0.9720
2664.892847 0.9720 0.9720 0.9720 0.9720 0.9720
2669.227213 0.9720 0.9720 0.9720 0.9728 0.9738
2673.561580 0.9740 0.9740 0.9740 0.9740 0.9740
2677.895947 0.9740 0.9740 0.9740 0.9740 0.9740
2682.230314 0.9740 0.9740 0.9740 0.9740 0.9740
2686.564680 0.9740 0.9740 0.9740 0.9732 0.9722
2690.899047 0.9720 0.9720 0.9720 0.9720 0.9720
2695.233414 0.9720 0.9720 0.9720 0.9720 0.9720
2699.567781 0.9720 0.9720 0.9720 0.9720 0.9720
2703.902147 0.9720 0.9720 0.9720 0.9720 0.9720
2708.236514 0.9720 0.9720 0.9728 0.9738 0.9740
2712.570881 0.9740 0.9740 0.9740 0.9740 0.9740
2716.905248 0.9732 0.9722 0.9720 0.9720 0.9720
2721.239614 0.9720 0.9720 0.9720 0.9716 0.9711
2725.573981 0.9710 0.9710 0.9710 0.9710 0.9710
2729.908348 0.9710 0.9706 0.9701 0.9700 0.9700
2734.242715 0.9692 0.9682 0.9680 0.9680 0.9680
2738.577081 0.9680 0.9680 0.9680 0.9688 0.9698
2742.911448 0.9704 0.9709 0.9710 0.9710 0.9714
2747.245815 0.9719 0.9720 0.9720 0.9728 0.9738
2751.580182 0.9740 0.9740 0.9740 0.9740 0.9740
2755.914548 0.9740 0.9740 0.9740 0.9740 0.9740
2760.248915 0.9732 0.9722 0.9720 0.9720 0.9720
2764.583282 0.9720 0.9720 0.9720 0.9720 0.9720
2768.917649 0.9728 0.9738 0.9740 0.9740 0.9740
2773.252015 0.9740 0.9740 0.9740 0.9740 0.9740
2777.586382 0.9740 0.9740 0.9740 0.9740 0.9740
2781.920749 0.9740 0.9740 0.9740 0.9732 0.9722
2786.255116 0.9720 0.9720 0.9720 0.9720 0.9720
2790.589482 0.9720 0.9716 0.9711 0.9706 0.9701
2794.923849 0.9700 0.9700 0.9692 0.9682 0.9676
2799.258216 0.9671 0.9670 0.9670 0.9662 0.9652
2803.592583 0.9650 0.9650 0.9650 0.9650 0.9650
2807.926949 0.9650 0.9650 0.9650 0.9650 0.9650
2812.261316 0.9650 0.9650 0.9650 0.9650 0.9650
2816.595683 0.9650 0.9658 0.9668 0.9670 0.9670
2820.930050 0.9670 0.9670 0.9670 0.9670 0.9658
2825.264416 0.9643 0.9636 0.9631 0.9622 0.9612
2829.598783 0.9606 0.9601 0.9600 0.9600 0.9596
2833.933150 0.9591 0.9590 0.9590 0.9578 0.9563
2838.267517 0.9556 0.9551 0.9534 0.9514 0.9498
2842.601883 0.9483 0.9464 0.9444 0.9428 0.9413
2846.936250 0.9398 0.9383 0.9372 0.9362 0.9348
2851.270617 0.9333 0.9314 0.9294 0.9274 0.9254
2855.604984 0.9226 0.9196 0.9174 0.9154 0.9134
2859.939350 0.9114 0.9094 0.9074 0.9058 0.9043
2864.273717 0.9024 0.9004 0.8988 0.8973 0.8962
2868.608084 0.8952 0.8938 0.8923 0.8916 0.8911
2872.942451 0.8910 0.8910 0.8914 0.8919 0.8920
2877.276818 0.8920 0.8924 0.8929 0.8938 0.8948
2881.611184 0.8950 0.8950 0.8950 0.8950 0.8942
2885.945551 0.8932 0.8930 0.8930 0.8926 0.8921
2890.279918 0.8904 0.8884 0.8876 0.8871 0.8862
2894.614285 0.8852 0.8846 0.8841 0.8832 0.8822
2898.948651 0.8816 0.8811 0.8794 0.8774 0.8754
2903.283018 0.8734 0.8699 0.8659 0.8638 0.8623
2907.617385 0.8604 0.8584 0.8561 0.8536 0.8507
2911.951752 0.8477 0.8443 0.8408 0.8377 0.8347
2916.286118 0.8317 0.8287 0.8261 0.8235 0.8214
2920.620485 0.8194 0.8171 0.8146 0.8132 0.8122
2924.954852 0.8105 0.8085 0.8068 0.8053 0.8038
2929.289219 0.8023 0.8012 0.8002 0.7992 0.7982
2933.623585 0.7976 0.7971 0.7974 0.7979 0.8007
2937.957952 0.8042 0.8062 0.8077 0.8111 0.8151
2942.292319 0.8187 0.8222 0.8238 0.8248 0.8292
2946.626686 0.8347 0.8406 0.8466 0.8507 0.8542
2950.961052 0.8573 0.8603 0.8625 0.8645 0.8677
2955.295419 0.8712 0.8743 0.8773 0.8788 0.8798
2959.629786 0.8792 0.8782 0.8780 0.8780 0.8761
2963.964153 0.8736 0.8669 0.8589 0.8513 0.8438
2968.298519 0.8371 0.8306 0.8241 0.8175 0.8114
2972.632886 0.8054 0.7975 0.7890 0.7793 0.7694
2976.967253 0.7655 0.7635 0.7459 0.7234 0.6972
2981.301620 0.6697 0.6630 0.6630 0.6758 0.6928
2985.635986 0.7090 0.7250 0.7305 0.7325 0.7330
2989.970353 0.7330 0.7204 0.7039 0.7011 0.7026
2994.304720 0.7231 0.7496 0.7556 0.7551 0.7309
2998.639087 0.6989 0.6910 0.6910 0.6989 0.7094
3002.973453 0.7296 0.7530 0.7763 0.7995 0.8119
3007.307820 0.8208 0.8336 0.8476 0.8548 0.8598
3011.642187 0.8614 0.8619 0.8635 0.8655 0.8697
3015.976554 0.8747 0.8782 0.8812 0.8842 0.8872
3020.310920 0.8906 0.8941 0.8980 0.9020 0.9060
3024.645287 0.9100 0.9140 0.9180 0.9201 0.9216
3028.979654 0.9231 0.9246 0.9284 0.9329 0.9362
3033.314021 0.9392 0.9441 0.9496 0.9525 0.9545
3037.648387 0.9554 0.9559 0.9571 0.9586 0.9605
3041.982754 0.9625 0.9645 0.9665 0.9685 0.9705
3046.317121 0.9710 0.9710 0.9714 0.9719 0.9731
3050.651488 0.9746 0.9750 0.9750 0.9754 0.9759
3054.985854 0.9760 0.9760 0.9756 0.9751 0.9750
3059.320221 0.9750 0.9746 0.9741 0.9740 0.9740
3063.654588 0.9740 0.9740 0.9740 0.9740 0.9740
3067.988955 0.9740 0.9740 0.9740 0.9740 0.9740
3072.323321 0.9740 0.9740 0.9740 0.9740 0.9740
3076.657688 0.9740 0.9740 0.9740 0.9740 0.9740
3080.992055 0.9740 0.9740 0.9740 0.9740 0.9740
3085.326422 0.9740 0.9740 0.9740 0.9740 0.9740
3089.660788 0.9740 0.9740 0.9744 0.9749 0.9750
3093.995155 0.9750 0.9750 0.9750 0.9750 0.9750
3098.329522 0.9750 0.9750 0.9754 0.9759 0.9760
3102.663889 0.9760 0.9760 0.9760 0.9767 0.9777
3106.998255 0.9780 0.9780 0.9780 0.9780 0.9784
3111.332622 0.9789 0.9790 0.9790 0.9790 0.9790
3115.666989 0.9790 0.9790 0.9790 0.9790 0.9790
3120.001356 0.9790 0.9790 0.9790 0.9790 0.9790
3124.335722 0.9790 0.9790 0.9790 0.9790 0.9790
3128.670089 0.9790 0.9790 0.9790 0.9790 0.9790
3133.004456 0.9790 0.9790 0.9790 0.9790 0.9790
3137.338823 0.9790 0.9786 0.9781 0.9780 0.9780
3141.673189 0.9780 0.9780 0.9780 0.9780 0.9773
3146.007556 0.9763 0.9760 0.9760 0.9756 0.9751
3150.341923 0.9746 0.9741 0.9740 0.9740 0.9740
3154.676290 0.9740 0.9740 0.9740 0.9740 0.9740
3159.010657 0.9740 0.9740 0.9740 0.9740 0.9740
3163.345023 0.9740 0.9740 0.9740 0.9740 0.9740
3167.679390 0.9740 0.9740 0.9740 0.9740 0.9740
3172.013757 0.9740 0.9744 0.9749 0.9750 0.9750
3176.348124 0.9750 0.9750 0.9750 0.9750 0.9754
3180.682490 0.9759 0.9760 0.9760 0.9760 0.9760
3185.016857 0.9760 0.9760 0.9760 0.9760 0.9760
3189.351224 0.9760 0.9760 0.9760 0.9760 0.9760
3193.685591 0.9767 0.9777 0.9780 0.9780 0.9780
3198.019957 0.9780 0.9780 0.9780 0.9787 0.9797
3202.354324 0.9800 0.9800 0.9800 0.9800 0.9800
3206.688691 0.9800 0.9807 0.9817 0.9820 0.9820
3211.023058 0.9820 0.9820 0.9820 0.9820 0.9820
3215.357424 0.9820 0.9820 0.9820 0.9820 0.9820
3219.691791 0.9820 0.9820 0.9820 0.9820 0.9813
3224.026158 0.9803 0.9800 0.9800 0.9800 0.9800
3228.360525 0.9800 0.9800 0.9797 0.9791 0.9790
3232.694891 0.9790 0.9786 0.9781 0.9780 0.9780
3237.029258 0.9780 0.9780 0.9773 0.9763 0.9760
3241.363625 0.9760 0.9760 0.9760 0.9767 0.9777
3245.697992 0.9780 0.9780 0.9780 0.9780 0.9780
3250.032358 0.9780 0.9784 0.9789 0.9790 0.9790
3254.366725 0.9790 0.9790 0.9793 0.9798 0.9800
3258.701092 0.9800 0.9800 0.9800 0.9807 0.9817
3263.035459 0.9820 0.9820 0.9820 0.9820 0.9820
3267.369825 0.9820 0.9820 0.9820 0.9820 0.9820
3271.704192 0.9823 0.9828 0.9830 0.9830 0.9830
3276.038559 0.9830 0.9830 0.9830 0.9830 0.9830
3280.372926 0.9830 0.9830 0.9830 0.9830 0.9830
3284.707292 0.9830 0.9830 0.9830 0.9830 0.9830
3289.041659 0.9830 0.9830 0.9830 0.9830 0.9830
3293.376026 0.9830 0.9830 0.9830 0.9830 0.9830
3297.710393 0.9830 0.9830 0.9830 0.9830 0.9830
3302.044759 0.9830 0.9830 0.9830 0.9830 0.9830
3306.379126 0.9830 0.9830 0.9830 0.9830 0.9827
3310.713493 0.9822 0.9820 0.9820 0.9820 0.9820
3315.047860 0.9820 0.9820 0.9820 0.9820 0.9820
3319.382226 0.9820 0.9813 0.9803 0.9800 0.9800
3323.716593 0.9800 0.9800 0.9800 0.9800 0.9800
3328.050960 0.9800 0.9800 0.9800 0.9800 0.9800
3332.385327 0.9800 0.9800 0.9800 0.9800 0.9800
3336.719693 0.9800 0.9800 0.9800 0.9800 0.9800
3341.054060 0.9800 0.9800 0.9800 0.9800 0.9800
3345.388427 0.9800 0.9800 0.9800 0.9800 0.9800
3349.722794 0.9800 0.9800 0.9800 0.9800 0.9797
3354.057160 0.9792 0.9790 0.9790 0.9790 0.9790
3358.391527 0.9787 0.9782 0.9780 0.9780 0.9780
3362.725894 0.9780 0.9780 0.9780 0.9773 0.9763
3367.060261 0.9760 0.9760 0.9760 0.9760 0.9760
3371.394627 0.9760 0.9757 0.9752 0.9750 0.9750
3375.728994 0.9747 0.9742 0.9733 0.9723 0.9720
3380.063361 0.9720 0.9717 0.9712 0.9710 0.9710
3384.397728 0.9707 0.9702 0.9700 0.9700 0.9693
3388.732094 0.9683 0.9680 0.9680 0.9680 0.9680
3393.066461 0.9677 0.9672 0.9670 0.9670 0.9670
3397.400828 0.9670 0.9670 0.9670 0.9670 0.9670
3401.735195 0.9670 0.9670 0.9670 0.9670 0.9670
3406.069561 0.9670 0.9670 0.9670 0.9670 0.9670
3410.403928 0.9670 0.9670 0.9670 0.9670 0.9670
3414.738295 0.9670 0.9670 0.9670 0.9670 0.9670
3419.072662 0.9670 0.9670 0.9670 0.9670 0.9670
3423.407028 0.9670 0.9670 0.9670 0.9670 0.9670
3427.741395 0.9670 0.9670 0.9670 0.9670 0.9670
3432.075762 0.9670 0.9670 0.9670 0.9670 0.9670
3436.410129 0.9673 0.9678 0.9680 0.9680 0.9680
3440.744496 0.9680 0.9687 0.9697 0.9703 0.9708
3445.078862 0.9713 0.9718 0.9720 0.9720 0.9726
3449.413229 0.9736 0.9740 0.9740 0.9740 0.9740
3453.747596 0.9740 0.9740 0.9743 0.9748 0.9750
3458.081963 0.9750 0.9750 0.9750 0.9750 0.9750
3462.416329 0.9753 0.9758 0.9760 0.9760 0.9760
3466.750696 0.9760 0.9760 0.9760 0.9760 0.9760
3471.085063 0.9760 0.9760 0.9760 0.9760 0.9760
3475.419430 0.9760 0.9760 0.9760 0.9760 0.9760
3479.753796 0.9760 0.9760 0.9760 0.9760 0.9760
3484.088163 0.9760 0.9760 0.9760 0.9760 0.9760
3488.422530 0.9760 0.9760 0.9766 0.9776 0.9780
3492.756897 0.9780 0.9780 0.9780 0.9780 0.9780
3497.091263 0.9780 0.9780 0.9780 0.9780 0.9780
3501.425630 0.9780 0.9780 0.9780 0.9780 0.9780
3505.759997 0.9780 0.9780 0.9780 0.9780 0.9780
3510.094364 0.9780 0.9783 0.9788 0.9790 0.9790
3514.428730 0.9790 0.9790 0.9790 0.9790 0.9790
3518.763097 0.9790 0.9790 0.9790 0.9793 0.9798
3523.097464 0.9800 0.9800 0.9800 0.9800 0.9800
3527.431831 0.9800 0.9800 0.9800 0.9800 0.9800
3531.766197 0.9800 0.9800 0.9800 0.9800 0.9800
3536.100564 0.9800 0.9800 0.9800 0.9800 0.9800
3540.434931 0.9800 0.9800 0.9800 0.9800 0.9800
3544.769298 0.9800 0.9800 0.9800 0.9800 0.9800
3549.103664 0.9806 0.9816 0.9820 0.9820 0.9820
3553.438031 0.9820 0.9820 0.9820 0.9820 0.9820
3557.772398 0.9823 0.9828 0.9830 0.9830 0.9830
3562.106765 0.9830 0.9836 0.9846 0.9850 0.9850
3566.441131 0.9853 0.9858 0.9860 0.9860 0.9863
3570.775498 0.9868 0.9870 0.9870 0.9876 0.9886
3575.109865 0.9893 0.9898 0.9900 0.9900 0.9900
3579.444232 0.9900 0.9903 0.9908 0.9910 0.9910
3583.778598 0.9910 0.9910 0.9916 0.9926 0.9930
3588.112965 0.9930 0.9930 0.9930 0.9933 0.9938
3592.447332 0.9940 0.9940 0.9937 0.9932 0.9930
3596.781699 0.9930 0.9930 0.9930 0.9930 0.9930
3601.116065 0.9930 0.9930 0.9930 0.9930 0.9930
3605.450432 0.9930 0.9930 0.9930 0.9933 0.9938
3609.784799 0.9940 0.9940 0.9940 0.9940 0.9940
3614.119166 0.9940 0.9943 0.9948 0.9956 0.9966
3618.453532 0.9970 0.9970 0.9970 0.9970 0.9970
3622.787899 0.9970 0.9970 0.9970 0.9970 0.9970
3627.122266 0.9964 0.9954 0.9950 0.9950 0.9947
3631.456633 0.9942 0.9940 0.9940 0.9931 0.9916
3635.790999 0.9910 0.9910 0.9907 0.9902 0.9897
3640.125366 0.9892 0.9881 0.9866 0.9851 0.9836
3644.459733 0.9830 0.9830 0.9827 0.9822 0.9820
3648.794100 0.9820 0.9820 0.9820 0.9823 0.9828
3653.128466 0.9830 0.9830 0.9839 0.9854 0.9869
3657.462833 0.9884 0.9890 0.9890 0.9890 0.9890
3661.797200 0.9893 0.9898 0.9900 0.9900 0.9903
3666.131567 0.9908 0.9910 0.9910 0.9910 0.9910
3670.465933 0.9916 0.9926 0.9930 0.9930 0.9933
3674.800300 0.9938 0.9940 0.9940 0.9943 0.9948
3679.134667 0.9950 0.9950 0.9950 0.9950 0.9950
3683.469034 0.9950 0.9950 0.9950 0.9950 0.9950
3687.803400 0.9950 0.9950 0.9950 0.9950 0.9956
3692.137767 0.9966 0.9970 0.9970 0.9970 0.9970
3696.472134 0.9970 0.9970 0.9970 0.9970 0.9970
3700.806501 0.9970 0.9970 0.9970 0.9970 0.9970
3705.140867 0.9970 0.9970 0.9970 0.9970 0.9970
3709.475234 0.9970 0.9970 0.9970 0.9970 0.9970
3713.809601 0.9970 0.9970 0.9970 0.9970 0.9970
3718.143968 0.9970 0.9970 0.9970 0.9970 0.9970
3722.478335 0.9970 0.9970 0.9970 0.9970 0.9970
3726.812701 0.9970 0.9970 0.9970 0.9970 0.9970
3731.147068 0.9970 0.9970 0.9970 0.9970 0.9970
3735.481435 0.9970 0.9970 0.9970 0.9970 0.9970
3739.815802 0.9970 0.9970 0.9970 0.9970 0.9970
3744.150168 0.9970 0.9970 0.9970 0.9970 0.9970
3748.484535 0.9970 0.9970 0.9970 0.9970 0.9970
3752.818902 0.9970 0.9973 0.9978 0.9980 0.9980
3757.153269 0.9986 0.9996 1.0000 1.0000 1.0000
3761.487635 1.0000 1.0000 1.0000 1.0000 1.0000
3765.822002 1.0000 1.0000 1.0000 1.0000 1.0000
3770.156369 1.0000 1.0000 1.0000 1.0000 1.0000
3774.490736 1.0000 1.0000 1.0000 1.0000 1.0000
3778.825102 1.0000 1.0000 1.0000 1.0000 1.0000
3783.159469 1.0000 1.0000 0.9994 0.9984 0.9980
3787.493836 0.9980 0.9980 0.9980 0.9980 0.9980
3791.828203 0.9980 0.9980 0.9980 0.9980 0.9980
3796.162569 0.9980 0.9980 0.9980 0.9980 0.9980
##END=
