##TITLE=2-Methyl-1-butanethiol
##JCAMP-DX=4.24
##DATA TYPE=INFRARED SPECTRUM
##ORIGIN=NIST Mass Spectrometry Data Center
##OWNER=NIST Standard Reference Data Program
Collection (C) 2018 copyright by the U.S. Secretary of Commerce
on behalf of the United States of America. All rights reserved.
##CAS REGISTRY NO=1878-18-8
##MOLFORM=C 5 H 12 S
##$NIST SOURCE=MSDC-IR
##SPECTROMETER/DATA SYSTEM=HP-GC/MS/IRD
##STATE=gas
##XUNITS=1/CM
##YUNITS=ABSORBANCE
##XFACTOR=1.0
##YFACTOR=0.000002800
##DELTAX=4.0
##FIRSTX=550.0
##LASTX=3846.0
##FIRSTY=0.000050
##MAXX=3846
##MINX=550
##MAXY=0.028
##MINY=0
##NPOINTS=825
##XYDATA=(X++(Y..Y))
550.0 18 30 49 25 32 55 62 46 53 57
590.0 51 33 2 2 24 41 30 27 34 45
630.0 48 49 89 89 70 62 75 109 109 105
670.0 119 120 115 123 145 161 176 207 213 236
710.0 267 295 322 319 289 247 219 208 218 221
750.0 233 243 261 299 334 366 373 361 352 320
790.0 275 241 206 178 149 142 140 119 114 130
830.0 130 115 103 88 84 97 95 89 100 108
870.0 108 110 110 118 132 142 152 166 182 203
910.0 219 221 217 221 221 231 229 220 220 222
950.0 230 247 273 294 325 352 364 362 357 343
990.0 322 310 301 298 293 280 285 278 255 234
1030.0 205 169 134 130 115 76 74 96 109 110
1070.0 117 121 140 182 217 230 240 239 232 225
1110.0 206 195 196 187 179 179 192 216 241 260
1150.0 267 263 271 259 221 197 176 165 185 214
1190.0 236 260 292 330 347 352 364 356 344 362
1230.0 396 444 515 603 661 694 718 720 710 694
1270.0 672 645 626 613 600 581 564 541 507 477
1310.0 445 405 374 371 383 398 422 435 431 441
1350.0 447 452 494 561 665 815 976 1070 1126 1173
1390.0 1137 993 791 606 474 401 387 432 512 607
1430.0 711 818 944 1074 1202 1347 1470 1571 1621 1573
1470.0 1436 1244 1045 854 670 511 381 300 251 203
1510.0 168 152 139 130 127 120 116 114 104 97
1550.0 99 94 88 83 92 90 81 82 81 81
1590.0 87 91 95 84 70 65 65 65 67 76
1630.0 77 71 68 69 66 67 72 72 68 64
1670.0 63 56 59 55 50 62 62 54 51 53
1710.0 47 38 44 51 36 23 25 30 33 30
1750.0 24 20 24 28 26 21 23 33 35 24
1790.0 24 26 23 21 23 22 24 31 28 26
1830.0 24 24 27 25 25 30 25 24 25 31
1870.0 32 23 19 28 31 33 30 23 21 14
1910.0 14 16 25 26 16 14 12 9 16 25
1950.0 25 17 6 0 6 11 7 8 7 6
1990.0 7 4 7 10 14 18 11 6 9 11
2030.0 9 2 7 13 10 15 20 14 6 13
2070.0 17 15 11 7 8 8 13 17 18 17
2110.0 17 12 12 19 16 20 20 20 22 19
2150.0 19 19 21 25 23 21 21 17 13 9
2190.0 8 11 12 9 5 1 7 15 14 13
2230.0 16 13 12 13 14 11 8 13 14 13
2270.0 10 10 13 16 19 19 20 26 22 22
2310.0 29 28 16 4 9 10 7 15 21 25
2350.0 25 23 25 25 31 30 24 28 31 31
2390.0 35 36 29 26 33 37 37 37 43 50
2430.0 41 32 37 43 45 43 35 28 32 28
2470.0 21 27 36 34 29 31 37 41 39 34
2510.0 30 33 39 37 35 40 39 46 56 61
2550.0 61 55 59 69 90 103 118 146 168 197
2590.0 213 216 219 206 196 174 145 130 119 117
2630.0 123 123 112 108 107 104 104 105 106 107
2670.0 111 127 140 133 121 128 140 147 150 144
2710.0 142 148 154 166 176 190 210 217 214 217
2750.0 221 220 217 204 200 213 222 233 243 251
2790.0 265 283 299 328 356 367 387 431 485 543
2830.0 609 687 782 914 1092 1315 1587 1890 2237 2634
2870.0 3074 3468 3735 3908 4003 4019 3984 3923 3882 3989
2910.0 4272 4696 5200 5738 6281 6704 6920 6992 6990 7001
2950.0 7166 7595 8322 9216 9915 10000 9425 8447 7098 5488
2990.0 3926 2674 1846 1334 1026 831 702 612 551 516
3030.0 487 449 433 424 412 410 400 380 361 350
3070.0 349 334 321 309 294 291 287 285 261 243
3110.0 235 230 226 208 205 197 179 186 196 196
3150.0 190 182 171 173 183 184 158 139 138 136
3190.0 132 125 116 104 86 81 81 75 66 59
3230.0 66 73 54 43 56 64 53 45 47 48
3270.0 51 38 35 36 33 33 46 61 60 55
3310.0 49 70 68 59 65 68 61 48 47 29
3350.0 23 50 63 60 51 35 24 27 32 19
3390.0 16 29 27 28 19 23 32 30 33 37
3430.0 37 30 39 33 25 28 16 10 9 8
3470.0 19 12 8 26 27 19 30 41 43 45
3510.0 32 25 32 22 21 42 36 24 31 45
3550.0 28 15 41 35 8 21 45 42 39 43
3590.0 36 24 29 45 35 18 14 2 12 22
3630.0 21 42 40 31 29 30 31 31 22 15
3670.0 34 38 33 27 25 35 32 22 24 21
3710.0 18 31 32 24 22 8 18 29 26 31
3750.0 19 16 30 32 24 31 42 32 21 25
3790.0 35 30 28 33 29 30 40 41 35 47
3830.0 48 26 30 49 60
##END=
