##TITLE=Methoxymethyl isothiocyanate
##JCAMP-DX=4.24
##DATA TYPE=INFRARED SPECTRUM
##ORIGIN=EPA-IR VAPOR PHASE LIBRARY
##OWNER=SRD/NIST
Collection (C) 2018 copyright by the U.S. Secretary of Commerce
on behalf of the United States of America. All rights reserved.
##CAS REGISTRY NO=19900-84-6
##MOLFORM=C 3 H 5 N O S
##$NIST SOURCE=MSDC-IR
##STATE=gas
##XUNITS=1/CM
##YUNITS=ABSORBANCE
##XFACTOR=1.
##YFACTOR=0.001
##DELTAX=1.92898
##FIRSTX=549.8
##LASTX=4000.7
##FIRSTY=10.147
##MAXX=4000.7
##MINX=549.759
##MAXY=0.631507
##MINY=0
##NPOINTS=1790
##XYDATA=(X++(Y..Y))
549.759 10.147 10.787 11.817 12.587 13.157 13.857 14.987 16.077 16.617 16.987
569.049 17.717 18.507 19.237 19.747 20.237 20.217 19.587 19.487 19.437 18.987
588.339 18.767 18.477 18.157 17.677 17.137 16.687 16.537 16.407 15.867 15.257
607.628 15.117 15.067 14.687 14.387 14.187 14.077 14.047 13.887 13.367 13.247
626.918 13.207 13.027 12.877 12.587 12.517 12.547 12.287 12.037 12.197 12.487
646.208 12.217 11.697 11.727 11.977 12.107 12.417 12.977 13.397 13.807 14.337
665.498 15.267 16.157 17.177 18.417 19.597 21.097 22.607 24.097 25.727 27.467
684.787 28.947 30.227 31.187 31.957 32.817 33.277 33.257 32.677 31.897 30.987
704.077 30.147 29.727 29.017 28.297 27.787 27.037 26.757 26.867 26.797 26.867
723.367 27.157 27.337 27.267 27.247 27.287 27.017 26.797 26.477 25.627 24.727
742.657 23.797 22.797 21.727 20.497 19.277 18.027 16.997 16.017 15.127 14.307
761.947 13.357 12.607 12.017 11.427 10.747 9.937 9.207 8.497 7.867 7.167
781.236 6.667 6.177 5.717 5.537 5.087 4.387 4.077 3.997 3.697 3.567
800.526 3.377 3.037 3.137 3.107 2.957 3.077 2.957 2.707 2.597 2.627
819.816 2.467 2.147 2.267 2.657 2.597 2.347 2.307 2.277 2.227 2.167
839.106 2.307 2.347 2.407 2.587 2.757 2.827 2.607 2.597 2.707 2.907
858.395 3.367 3.487 3.327 3.457 3.527 3.797 4.027 4.117 4.367 4.527
877.685 4.947 5.347 5.947 6.467 6.917 7.537 8.167 9.137 10.107 11.167
896.975 12.377 13.807 15.307 16.787 18.727 20.977 23.147 25.257 27.397 29.637
916.265 31.817 33.547 34.547 35.007 35.297 35.147 34.407 33.277 31.797 30.207
935.555 28.197 25.787 23.447 21.227 19.167 17.397 15.907 14.537 13.237 12.377
954.844 11.747 10.807 10.157 9.997 9.827 9.637 9.467 9.237 9.117 9.227
974.134 9.527 9.527 9.407 9.407 9.677 9.847 9.727 9.787 9.967 9.917
993.424 9.797 10.007 10.407 10.797 11.197 11.457 11.617 12.167 12.647 13.177
1012.714 14.057 14.857 15.767 16.887 18.117 19.517 21.047 22.637 24.227 26.337
1032.003 28.887 31.617 34.887 38.447 42.417 46.167 50.257 54.847 58.947 62.317
1051.293 65.127 67.397 68.987 70.037 70.337 70.137 69.247 67.997 66.127 63.327
1070.583 60.437 57.647 55.357 53.497 52.107 51.567 51.197 51.127 51.657 52.437
1089.873 53.467 54.717 56.827 59.437 62.107 64.807 67.157 69.597 72.727 75.637
1109.163 78.077 81.187 84.837 89.077 93.747 99.127 105.917 113.727 121.887 130.087
1128.452 138.437 146.797 152.987 157.017 158.927 158.197 156.167 153.457 150.487 146.387
1147.742 140.567 132.137 121.127 108.127 94.607 82.667 73.327 65.577 59.487 54.957
1167.032 50.857 47.347 44.207 41.737 39.957 39.197 38.777 38.887 39.937 41.247
1186.322 43.057 45.667 48.527 51.097 52.757 52.887 52.187 50.747 48.967 47.787
1205.611 46.957 45.687 43.157 39.427 35.187 30.667 27.107 24.027 21.217 19.137
1224.901 17.327 15.787 14.377 13.217 12.337 11.647 11.297 10.697 10.077 10.047
1244.191 9.947 9.467 9.067 8.827 8.487 8.357 8.377 8.237 8.157 8.027
1263.481 7.947 7.927 7.787 7.677 7.727 7.867 7.817 7.607 7.527 7.617
1282.771 7.647 7.577 7.487 7.397 7.347 7.127 6.797 6.597 6.497 6.427
1302.060 6.167 5.937 5.767 5.547 5.327 5.227 5.237 5.217 5.267 5.347
1321.350 5.497 5.657 5.777 5.987 6.217 6.547 6.997 7.437 7.997 8.707
1340.640 9.437 10.367 11.487 12.817 14.627 16.857 19.547 22.907 27.007 32.327
1359.930 39.217 48.077 59.427 72.987 87.927 102.377 113.597 119.937 121.717 121.287
1379.219 121.117 120.957 120.597 119.627 114.607 103.547 88.187 71.767 56.927 45.167
1398.509 36.597 30.227 25.407 21.507 18.387 15.967 14.087 12.807 11.877 11.087
1417.799 10.627 10.397 10.257 10.217 10.307 10.587 11.067 11.707 12.577 13.577
1437.089 14.407 14.987 15.307 15.437 15.487 15.727 16.427 17.057 17.047 16.307
1456.378 15.177 14.187 13.537 13.197 13.027 12.847 12.567 12.207 11.827 11.397
1475.668 11.057 10.877 10.547 10.027 9.437 8.717 7.987 7.317 6.767 6.217
1494.958 5.907 5.767 5.427 5.087 4.847 4.657 4.517 4.407 4.247 4.077
1514.248 3.937 3.797 3.767 3.647 3.477 3.427 3.277 3.237 3.187 3.047
1533.538 2.997 2.877 2.827 2.807 2.677 2.547 2.477 2.417 2.387 2.337
1552.827 2.327 2.297 2.277 2.287 2.327 2.297 2.207 2.177 2.167 2.147
1572.117 2.217 2.277 2.397 2.437 2.377 2.407 2.307 2.307 2.307 2.327
1591.407 2.447 2.507 2.367 2.307 2.317 2.307 2.387 2.367 2.327 2.277
1610.697 2.307 2.357 2.287 2.207 2.217 2.187 2.057 2.087 2.187 2.147
1629.986 2.107 2.107 2.137 2.157 2.167 2.177 2.057 1.977 2.007 2.027
1649.276 2.007 1.937 1.927 1.947 1.977 1.947 1.907 1.897 1.957 1.927
1668.566 1.837 1.807 1.807 1.847 1.857 1.817 1.767 1.757 1.857 1.917
1687.856 1.807 1.697 1.667 1.767 1.867 1.787 1.767 1.717 1.5973 1.5678
1707.146 1.4961 1.5115 1.5911 1.5652 1.5652 1.5102 1.4265 1.3916 1.3827 1.3845
1726.435 1.3522 1.4069 1.409 1.3658 1.3552 1.3228 1.2629 1.2643 1.3098 1.3526
1745.725 1.3243 1.2285 1.2158 1.2779 1.3108 1.2841 1.2857 1.302 1.2875 1.3143
1765.015 1.334 1.3256 1.358 1.3977 1.4938 1.5309 1.424 1.3381 1.3409 1.4157
1784.305 1.3978 1.3985 1.4448 1.4658 1.5506 1.5912 1.677 1.787 1.767 1.777
1803.594 1.757 1.767 1.867 1.997 2.137 2.257 2.357 2.437 2.427 2.517
1822.884 2.707 2.767 2.847 2.947 3.087 3.287 3.477 3.607 3.737 3.877
1842.174 3.977 4.197 4.487 4.667 4.797 5.017 5.287 5.577 5.817 6.027
1861.464 6.297 6.557 6.847 7.157 7.597 8.027 8.347 8.697 9.117 9.567
1880.754 10.027 10.547 11.077 11.527 12.047 12.667 13.247 13.857 14.547 15.237
1900.043 15.847 16.517 17.297 18.037 18.867 19.667 20.417 21.457 22.547 23.567
1919.333 24.717 25.927 27.207 28.587 30.087 31.707 33.447 35.257 37.147 39.217
1938.623 41.447 43.777 46.267 49.017 51.977 55.087 58.397 62.047 66.017 70.247
1957.913 74.787 79.697 85.057 90.977 97.267 104.227 111.727 119.717 128.477 138.007
1977.202 148.367 159.517 171.537 184.507 198.327 212.947 228.547 245.357 263.257 281.967
1996.492 301.597 322.217 343.877 366.317 389.407 413.687 438.577 463.937 489.937 515.957
2015.782 541.827 567.037 590.117 609.767 624.137 631.507 630.327 619.087 599.467 574.657
2035.072 546.937 517.937 486.667 450.957 411.407 370.797 332.207 297.757 268.127 242.957
2054.362 221.677 203.907 189.167 176.747 166.217 157.457 150.077 143.837 138.447 133.567
2073.651 129.387 125.777 122.567 119.877 117.567 115.377 113.477 111.987 110.617 109.357
2092.941 108.427 107.667 107.107 106.887 106.927 107.167 107.727 108.607 109.877 111.497
2112.231 113.297 115.367 117.397 119.277 120.827 121.807 122.207 121.777 120.487 118.567
2131.521 115.817 112.187 107.877 103.137 97.907 92.247 86.467 80.857 75.597 70.497
2150.810 65.687 61.357 57.517 54.027 50.927 48.157 45.657 43.567 41.647 39.867
2170.100 38.367 37.147 36.087 35.037 33.997 33.077 32.327 31.697 30.987 30.207
2189.390 29.527 28.907 28.217 27.467 26.707 25.957 25.177 24.447 23.747 23.017
2208.680 22.317 21.677 21.037 20.337 19.657 19.027 18.297 17.647 16.987 16.357
2227.970 15.797 15.127 14.457 13.717 13.027 12.437 11.827 11.287 10.757 10.237
2247.259 9.737 9.227 8.807 8.527 8.177 7.757 7.417 7.117 6.837 6.587
2266.549 6.327 6.057 5.807 5.547 5.267 5.067 4.897 4.707 4.587 4.467
2285.839 4.397 4.237 4.007 3.857 3.667 3.557 3.497 3.407 3.267 3.097
2305.129 3.057 2.907 2.807 2.777 2.687 2.737 2.637 2.477 2.497 2.507
2324.418 2.477 2.427 2.377 2.417 2.357 2.327 2.367 2.207 2.127 2.247
2343.708 2.317 2.277 2.177 2.127 2.227 2.267 2.147 2.047 2.017 1.997
2362.998 1.997 1.947 1.947 1.917 1.867 1.827 1.737 1.717 1.817 1.817
2382.288 1.687 1.677 1.717 1.697 1.687 1.657 1.657 1.707 1.687 1.6023
2401.578 1.6144 1.707 1.707 1.707 1.717 1.647 1.6114 1.6094 1.5956 1.5611
2420.867 1.5293 1.5006 1.4892 1.5942 1.5932 1.5179 1.5917 1.5491 1.4748 1.5151
2440.157 1.6223 1.6398 1.574 1.554 1.5208 1.479 1.4364 1.4311 1.4505 1.4629
2459.447 1.4811 1.4742 1.4872 1.5409 1.4895 1.468 1.5218 1.5313 1.5147 1.4612
2478.737 1.4784 1.5213 1.5704 1.6396 1.6228 1.6477 1.707 1.737 1.727 1.807
2498.026 1.847 1.827 1.857 1.857 1.947 1.957 1.977 2.087 2.167 2.177
2517.316 2.167 2.177 2.217 2.307 2.397 2.317 2.247 2.377 2.457 2.427
2536.606 2.517 2.587 2.517 2.477 2.507 2.537 2.577 2.697 2.737 2.737
2555.896 2.757 2.797 2.867 2.877 2.907 3.067 3.147 3.087 3.137 3.227
2575.186 3.237 3.357 3.437 3.437 3.497 3.597 3.717 3.847 3.867 3.817
2594.475 3.817 3.937 3.967 3.877 3.817 3.697 3.707 3.697 3.627 3.617
2613.765 3.557 3.397 3.307 3.257 3.067 3.007 2.977 2.917 2.847 2.677
2633.055 2.547 2.537 2.587 2.647 2.657 2.657 2.647 2.737 2.847 2.767
2652.345 2.717 2.857 2.837 2.757 2.787 2.907 2.987 3.037 3.157 3.137
2671.634 3.127 3.217 3.367 3.427 3.347 3.317 3.497 3.637 3.717 3.947
2690.924 4.007 4.107 4.337 4.477 4.537 4.647 4.787 4.917 5.067 5.267
2710.214 5.667 5.867 5.897 6.047 6.257 6.517 6.667 6.767 6.937 6.987
2729.504 6.937 7.057 7.097 7.157 7.227 7.127 7.007 6.907 6.857 6.807
2748.794 6.777 6.697 6.537 6.437 6.457 6.447 6.197 5.897 5.857 5.907
2768.083 5.827 5.827 5.957 6.037 6.077 6.147 6.217 6.247 6.357 6.437
2787.373 6.487 6.527 6.677 7.047 7.337 7.507 7.787 8.107 8.487 8.967
2806.663 9.417 9.887 10.327 10.807 11.637 12.427 13.117 13.877 14.727 15.667
2825.953 16.697 17.657 18.567 19.627 20.537 21.247 21.867 22.457 22.967 23.357
2845.242 23.787 24.017 23.927 24.077 24.067 23.727 23.787 24.027 24.357 24.957
2864.532 25.737 26.547 27.397 28.417 29.627 30.947 32.287 33.457 34.407 35.037
2883.822 35.667 36.277 36.507 36.577 36.447 36.317 36.027 35.497 34.957 34.417
2903.112 33.687 33.017 32.667 32.377 31.867 31.327 31.167 31.047 30.767 30.757
2922.401 31.247 31.797 32.177 32.857 33.697 34.197 34.827 35.357 35.607 35.867
2941.691 36.007 36.157 36.367 36.397 35.927 35.197 34.527 33.857 33.037 32.277
2960.981 31.847 31.217 30.347 29.737 29.167 28.477 27.657 26.807 25.937 25.367
2980.271 24.897 24.427 24.027 23.627 23.477 23.387 23.407 23.517 23.767 23.977
2999.561 24.117 24.387 24.577 24.477 24.157 23.607 22.677 21.747 20.867 20.047
3018.850 19.227 18.107 16.667 15.057 13.517 12.167 11.027 9.987 9.127 8.477
3038.140 7.787 7.317 7.037 6.757 6.507 6.167 5.857 5.607 5.477 5.337
3057.430 5.077 4.847 4.757 4.777 4.727 4.577 4.437 4.457 4.287 4.047
3076.720 3.917 3.817 3.757 3.787 3.677 3.447 3.377 3.377 3.257 2.997
3096.009 2.837 2.807 2.627 2.507 2.657 2.617 2.477 2.367 2.327 2.267
3115.299 2.077 1.967 2.057 1.907 1.642 1.687 1.6429 1.667 1.837 1.777
3134.589 1.5595 1.4028 1.3754 1.398 1.348 1.2826 1.3351 1.402 1.3048 1.2006
3153.879 1.1667 1.1658 1.0949 0.902 0.8383 0.8232 0.8324 0.7596 0.5634 0.67985
3173.169 0.8288 0.6453 0.5824 0.71399 0.68695 0.6382 0.7667 0.73166 0.6203 0.5775
3192.458 0.6323 0.546 0.394 0.5574 0.521 0.418 0.496 0.38 0.336 0.525
3211.748 0.544 0.431 0.335 0.445 0.441 0.331 0.537 0.512 0.394 0.443
3231.038 0.436 0.486 0.481 0.433 0.439 0.369 0.425 0.74987 0.75528 0.495
3250.328 0.421 0.474 0.352 0.359 0.378 0.351 0.334 0.334 0.414 0.319
3269.617 0.262 0.171 0.092 0.045 0.276 0.44 0.212 0.107 0.155 0.136
3288.907 0.166 0.27 0.223 0.218 0.273 0.306 0.567 0.493 0.188 0.253
3308.197 0.391 0.468 0.431 0.24 0.217 0.242 0.268 0.439 0.329 0.159
3327.487 0.186 0.258 0.304 0.229 0.283 0.372 0.408 0.332 0.268 0.421
3346.777 0.412 0.274 0.407 0.537 0.48 0.45 0.51 0.52 0.548 0.553
3366.066 0.347 0.285 0.189 0.01 0.222 0.494 0.414 0.433 0.5948 0.6039
3385.356 0.4 0.329 0.67545 0.68107 0.375 0.522 0.54 0.371 0.433 0.5571
3404.646 0.484 0.389 0.29 0.363 0.511 0.315 0.179 0.136 0.037 0.199
3423.936 0.295 0.18 0.061 0.104 0.306 0.312 0.228 0.192 0.344 0.457
3443.225 0.51 0.664683 0.504 0.3 0.381 0.6233 0.502 0.264 0.373 0.459
3462.515 0.69547 0.825 0.531 0.358 0.5629 0.548 0.5 0.6321 0.46 0.308
3481.805 0.439 0.511 0.513 0.346 0.429 0.424 0.209 0.287 0.335 0.439
3501.095 0.488 0.46 0.512 0.5854 0.538 0.553 0.6155 0.517 0.5834 0.67184
3520.385 0.6298 0.787 0.8134 0.71081 0.67845 0.7599 0.72395 0.5738 0.51 0.6127
3539.674 0.74833 0.662102 0.5914 0.5684 0.5994 0.6273 0.6276 0.46 0.31 0.313
3558.964 0.282 0.334 0.364 0.224 0.277 0.451 0.414 0.514 0.538 0.387
3578.254 0.42 0.5711 0.66058 0.70061 0.415 0.205 0.375 0.5 0.4 0.33
3597.544 0.284 0.203 0.274 0.152 0.247 0.426 0.503 0.54 0.373 0.22
3616.833 0.254 0.411 0.293 0.27 0.227 0 0.227 0.435 0.3 0.145
3636.123 0.226 0.355 0.264 0.274 0.227 0.267 0.358 0.508 0.491 0.394
3655.413 0.383 0.308 0.259 0.353 0.487 0.384 0.28 0.313 0.446 0.517
3674.703 0.5835 0.6113 0.462 0.363 0.376 0.422 0.463 0.5761 0.506 0.413
3693.993 0.5584 0.444 0.36 0.366 0.33 0.323 0.353 0.491 0.503 0.399
3713.282 0.394 0.533 0.5842 0.467 0.70277 0.8565 0.7661 0.72948 0.538 0.398
3732.572 0.295 0.327 0.542 0.5715 0.433 0.484 0.5826 0.5578 0.5975 0.557
3751.862 0.5873 0.6087 0.411 0.439 0.6099 0.51 0.392 0.422 0.492 0.66875
3771.152 0.73888 0.656 0.524 0.371 0.433 0.437 0.483 0.6177 0.69235 0.75302
3790.441 0.67888 0.503 0.404 0.5938 0.69573 0.469 0.466 0.67393 0.73299 0.71944
3809.731 0.5919 0.658389 0.67476 0.8122 0.8707 0.70717 0.7556 0.6837 0.512 0.664131
3829.021 0.8582 0.7913 0.6168 0.525 0.68953 0.8154 0.838 0.9286 1.0284 0.851
3848.311 0.7606 0.71986 0.7672 0.8217 0.70781 0.7577 0.9733 1.2171 1.2265 1.0014
3867.601 0.9348 0.9731 1.0088 0.9896 1.0664 1.2066 1.0348 1.042 0.9964 0.982
3886.890 1.1387 1.1062 1.123 1.2009 1.2971 1.3756 1.3845 1.361 1.3178 1.2102
3906.180 1.1643 1.3428 1.4303 1.2629 1.1805 1.254 1.3448 1.3748 1.4917 1.787
3925.470 1.677 1.4726 1.6457 1.5896 1.667 1.857 1.757 1.677 1.817 1.967
3944.760 2.047 2.127 2.137 2.307 2.427 2.417 2.277 2.177 2.187 2.137
3964.049 2.367 2.487 2.407 2.277 2.327 2.537 2.667 2.747 2.707 2.827
3983.339 3.007 3.007 2.977 3.027 3.057 3.017 2.877 2.877 2.957 2.957
##END=
