##TITLE=3-Butyn-2-ol
##JCAMP-DX=4.24
##DATA TYPE=INFRARED SPECTRUM
##ORIGIN=EPA-IR VAPOR PHASE LIBRARY
##OWNER=SRD/NIST
Collection (C) 2018 copyright by the U.S. Secretary of Commerce
on behalf of the United States of America. All rights reserved.
##CAS REGISTRY NO=2028-63-9
##MOLFORM=C 4 H 6 O
##$NIST SOURCE=MSDC-IR
##STATE=gas
##XUNITS=1/CM
##YUNITS=ABSORBANCE
##XFACTOR=1.
##YFACTOR=0.001
##DELTAX=1.92934
##FIRSTX=549.9
##LASTX=3999.5
##FIRSTY=22.96
##MAXX=3999.53
##MINX=549.863
##MAXY=0.16133
##MINY=0
##NPOINTS=1789
##XYDATA=(X++(Y..Y))
549.863 22.96 21.74 20.43 19.03 18.03 16.91 16.1 16.17 15.86 14.95
569.156 14.01 12.69 11.77 11.33 10.9 10.51 10.24 9.96 9.69 9.75
588.450 9.89 10.2 10.65 10.99 11.66 12.64 13.58 15 16.73 18.67
607.743 20.85 23.57 26.68 29.91 33.39 37.12 40.81 44.44 48.3 54.68
627.037 68.46 88.54 108.24 119.28 125 114.44 100.79 108.55 127.71 148.67
646.330 160.8 161.33 149.5 133.76 118.11 118.97 133.28 114.8 86.72 69.82
665.624 58.02 51.8 47.37 43.99 40.12 36.51 32.65 28.89 25.37 22.12
684.917 19.2 16.7 14.48 12.53 10.89 9.63 8.55 7.71 6.78 6.14
704.210 5.74 5.3 4.97 4.66 4.43 4.24 4.04 3.92 3.86 3.67
723.504 3.53 3.42 3.79 4.87 4.72 3.74 3.3 3.07 2.98 3.02
742.797 3.04 3 3.02 3.02 3.08 3.27 3.36 3.4 3.5 3.7
762.091 3.92 4.2 4.5 4.65 5.03 5.42 5.7 6.16 6.56 7.07
781.384 7.63 8.04 8.47 8.94 9.41 9.86 10.29 10.74 11.18 11.44
800.678 11.51 11.57 11.51 11.26 11.1 10.93 10.73 10.51 10.19 9.87
819.971 9.52 9.11 8.66 8.22 7.77 7.4 7.04 6.61 6.18 5.77
839.264 5.48 5.18 4.88 4.63 4.41 4.28 4.16 4.08 3.98 3.83
858.558 3.81 3.75 3.64 3.73 3.86 3.97 4.04 4.14 4.45 4.81
877.851 5.06 5.44 5.85 6.34 7.15 7.97 8.8 9.92 11.28 12.84
897.145 14.63 16.57 18.69 20.98 23.32 25.68 27.85 29.74 31.09 32.09
916.438 32.87 33.14 33.18 33.31 33.3 33.12 32.89 32.73 32.99 33.12
935.732 32.55 31.2 28.99 26.37 23.55 20.68 18.1 15.82 13.75 12.02
955.025 10.76 9.77 8.97 8.42 8.04 7.84 7.8 7.9 8.21 8.65
974.318 9.2 9.91 10.76 11.85 13.02 14.41 16.11 17.98 20.1 22.49
993.612 25.11 27.97 31.17 34.56 38.15 41.98 45.78 49.53 53.29 56.89
1012.905 60.17 63.11 65.59 67.61 69.37 71.09 72.79 74.55 76.53 78.46
1032.199 80.01 80.91 80.97 80.22 78.69 76.57 74.1 71.48 68.77 66.04
1051.492 63.29 60.52 57.98 55.74 53.76 52.1 50.77 49.81 49.09 48.77
1070.786 48.93 49.36 50.06 51.32 53.2 55.49 58.25 61.63 65.31 69.13
1090.079 73.22 77.39 81.53 85.41 88.44 90.31 91.05 90.61 89.39 87.97
1109.372 86.58 85.48 84.13 82.09 80.21 78.6 76.27 72.95 68.96 64.25
1128.666 58.94 53.57 48.35 43.33 38.77 34.68 31.03 27.81 25.08 22.75
1147.959 20.83 19.16 17.37 16.01 15.03 14.21 13.55 12.99 12.55 12.21
1167.253 12.08 11.85 11.79 11.8 11.58 11.53 11.58 11.73 11.84 11.83
1186.546 11.95 12.19 12.2 12.27 12.54 12.63 12.81 13.25 13.48 13.88
1205.840 14.33 14.62 15.52 16.36 16.66 17.19 18.15 19.1 20.01 21.19
1225.133 22.91 24.92 26.88 28.71 30.87 33.57 36.54 39.45 42.21 45.06
1244.426 47.72 49.75 51.21 52.44 53.19 52.87 51.54 50.48 50.29 50.52
1263.720 51.45 52.71 53.26 52.91 51.72 49.81 47.51 45.1 42.87 41.21
1283.013 40.51 39.96 38.25 35.67 33.29 31.61 30.69 30.46 30.93 31.92
1302.307 32.88 33.27 33.33 33.63 34.44 35.88 37.22 38.02 38.93 40.08
1321.600 41.5 43.28 45.26 47.26 49.05 50.74 52.37 53.93 55.45 56.85
1340.894 58.07 59.07 59.82 60.42 60.97 61.42 61.73 62.03 62.39 62.79
1360.187 63.12 63.1 62.79 62.29 61.46 60.12 58.27 56.14 54.23 52.85
1379.480 51.36 49.51 47.57 45.68 43.06 39.83 36.82 34.01 31.2 28.37
1398.774 25.76 23.23 20.98 19.06 17.37 15.89 14.64 13.68 12.98 12.52
1418.067 12.2 11.95 11.73 11.67 11.73 11.75 11.78 11.94 12.09 12.18
1437.361 12.3 12.42 12.6 12.95 13.36 13.49 13.4 13.34 13.42 13.47
1456.654 12.91 11.66 10.52 9.78 9.37 9 8.53 8.06 7.68 7.31
1475.948 6.87 6.37 5.94 5.54 5.15 4.81 4.48 4.19 3.86 3.52
1495.241 3.34 3.15 2.95 2.73 2.53 2.4508 2.3814 2.2301 2.082 2.0054
1514.534 1.9011 1.7875 1.7019 1.673 1.6731 1.6226 1.54803 1.48663 1.48759 1.56843
1533.828 1.5731 1.4399 1.4123 1.48525 1.4499 1.367 1.336 1.281 1.303 1.308
1553.121 1.254 1.159 1.171 1.281 1.196 1.073 1.032 1.068 1.058 0.964
1572.415 0.914 0.88 0.899 0.96 0.928 0.9 0.859 0.863 0.835 0.787
1591.708 0.864 0.886 0.876 0.881 0.804 0.788 0.869 0.858 0.8 0.757
1611.002 0.694 0.695 0.755 0.706 0.628 0.649 0.658 0.625 0.615 0.563
1630.295 0.545 0.582 0.62 0.684 0.658 0.599 0.567 0.51 0.587 0.66
1649.588 0.588 0.591 0.632 0.529 0.47 0.486 0.47 0.475 0.45 0.501
1668.882 0.566 0.497 0.44 0.44 0.46 0.47 0.51 0.575 0.594 0.55
1688.175 0.575 0.597 0.557 0.645 0.729 0.743 0.813 0.814 0.807 0.755
1707.469 0.709 0.789 0.808 0.799 0.859 0.947 0.94 0.833 0.791 0.775
1726.762 0.799 0.807 0.786 0.833 0.792 0.662 0.689 0.74 0.682 0.624
1746.056 0.606 0.627 0.643 0.587 0.524 0.515 0.513 0.525 0.511 0.533
1765.349 0.524 0.53 0.51 0.491 0.507 0.45 0.43 0.44 0.4 0.31
1784.642 0.31 0.3 0.3 0.39 0.41 0.39 0.39 0.39 0.43 0.43
1803.936 0.44 0.44 0.47 0.527 0.488 0.524 0.622 0.625 0.639 0.689
1823.229 0.706 0.728 0.76 0.783 0.795 0.82 0.813 0.862 0.906 0.848
1842.523 0.87 0.912 0.898 0.931 0.88 0.798 0.797 0.759 0.778 0.796
1861.816 0.76 0.771 0.759 0.771 0.73 0.672 0.645 0.608 0.625 0.6
1881.110 0.55 0.53 0.55 0.546 0.551 0.582 0.602 0.579 0.531 0.555
1900.403 0.628 0.638 0.624 0.671 0.69 0.657 0.681 0.738 0.763 0.836
1919.696 0.831 0.79 0.845 0.919 0.929 0.977 0.975 0.904 0.96 1.047
1938.990 1.104 1.084 1.044 1.031 0.925 0.915 0.944 0.878 0.883 0.911
1958.283 0.89 0.837 0.808 0.807 0.734 0.683 0.673 0.628 0.608 0.595
1977.577 0.5 0.46 0.51 0.51 0.43 0.35 0.34 0.41 0.43 0.39
1996.870 0.44 0.43 0.4 0.45 0.46 0.47 0.516 0.555 0.557 0.598
2016.164 0.638 0.6 0.589 0.6 0.606 0.604 0.589 0.563 0.545 0.587
2035.457 0.621 0.609 0.597 0.563 0.521 0.518 0.512 0.45 0.41 0.43
2054.750 0.47 0.43 0.33 0.29 0.33 0.36 0.33 0.25 0.31 0.34
2074.044 0.31 0.35 0.37 0.4 0.41 0.43 0.44 0.44 0.521 0.576
2093.337 0.595 0.642 0.668 0.753 0.804 0.805 0.846 0.909 0.995 0.999
2112.631 1 1.033 1.066 1.134 1.149 1.099 1.114 1.142 1.071 1.055
2131.924 1.085 1.032 0.998 1.015 1.006 0.919 0.866 0.871 0.882 0.84
2151.218 0.831 0.862 0.781 0.73 0.72 0.675 0.667 0.749 0.767 0.673
2170.511 0.633 0.652 0.654 0.623 0.545 0.553 0.592 0.518 0.509 0.545
2189.804 0.571 0.595 0.514 0.49 0.51 0.477 0.47 0.44 0.43 0.45
2209.098 0.39 0.37 0.42 0.39 0.37 0.36 0.39 0.44 0.46 0.37
2228.391 0.31 0.37 0.41 0.45 0.43 0.4 0.41 0.42 0.44 0.42
2247.685 0.43 0.478 0.45 0.45 0.476 0.499 0.529 0.572 0.563 0.551
2266.978 0.534 0.561 0.62 0.649 0.652 0.63 0.647 0.686 0.716 0.752
2286.272 0.772 0.751 0.725 0.753 0.761 0.739 0.74 0.739 0.735 0.69
2305.565 0.707 0.711 0.651 0.676 0.704 0.651 0.558 0.526 0.57 0.599
2324.858 0.58 0.557 0.54 0.506 0.49 0.513 0.523 0.482 0.525 0.537
2344.152 0.45 0.44 0.47 0.491 0.521 0.548 0.599 0.589 0.568 0.642
2363.445 0.67 0.655 0.641 0.671 0.732 0.739 0.722 0.745 0.739 0.715
2382.739 0.722 0.723 0.717 0.726 0.721 0.716 0.737 0.762 0.837 0.853
2402.032 0.826 0.825 0.818 0.887 0.879 0.856 0.892 0.908 0.875 0.844
2421.326 0.87 0.857 0.817 0.825 0.794 0.798 0.846 0.831 0.843 0.875
2440.619 0.89 0.871 0.901 0.892 0.84 0.824 0.876 0.967 0.944 0.884
2459.912 0.932 0.96 0.857 0.839 0.9 0.892 0.875 0.939 0.942 0.827
2479.206 0.827 0.897 0.881 0.863 0.865 0.843 0.813 0.88 0.927 0.858
2498.499 0.885 0.894 0.852 0.877 0.873 0.827 0.806 0.745 0.737 0.763
2517.793 0.718 0.677 0.686 0.694 0.68 0.704 0.746 0.736 0.661 0.594
2537.086 0.597 0.636 0.609 0.63 0.661 0.603 0.579 0.631 0.671 0.702
2556.380 0.741 0.81 0.79 0.759 0.829 0.832 0.886 0.975 0.971 0.994
2575.673 0.977 1.045 1.155 1.123 1.148 1.211 1.234 1.282 1.289 1.308
2594.966 1.4056 1.4281 1.4036 1.4173 1.50223 1.48203 1.52524 1.6552 1.4838 1.339
2614.260 1.296 1.312 1.47785 1.50992 1.4378 1.4054 1.336 1.28 1.303 1.293
2633.553 1.274 1.274 1.291 1.355 1.3715 1.319 1.312 1.331 1.341 1.311
2652.847 1.275 1.3714 1.4342 1.4287 1.46224 1.49258 1.52871 1.5854 1.7331 1.8031
2672.140 1.6499 1.576 1.6805 1.776 1.8077 1.7764 1.7095 1.6051 1.49703 1.4504
2691.434 1.453 1.54653 1.5899 1.50841 1.3766 1.342 1.303 1.219 1.276 1.318
2710.727 1.265 1.189 1.182 1.247 1.254 1.292 1.218 1.268 1.3904 1.352
2730.020 1.4211 1.4443 1.46357 1.49 1.48344 1.52129 1.47486 1.47304 1.5212 1.51451
2749.314 1.50226 1.3943 1.311 1.3714 1.52435 1.5801 1.54147 1.4966 1.50326 1.4519
2768.607 1.362 1.362 1.339 1.3969 1.52484 1.53025 1.50771 1.54829 1.48395 1.47489
2787.901 1.5717 1.6693 1.7672 1.7673 1.751 1.7596 1.8637 1.9501 1.8662 1.8441
2807.194 1.9783 2.2152 2.3198 2.2092 2.2594 2.3196 2.2292 2.2325 2.3383 2.48
2826.488 2.4595 2.4497 2.64 2.77 2.84 2.97 3.07 3.2 3.5 3.84
2845.781 4.1 4.33 4.8 5.44 6.05 6.79 7.56 8.41 9.39 10.42
2865.074 11.38 12.36 13.5 14.49 15.35 16.25 17.28 18.26 19.16 20.29
2884.368 21.62 23.27 24.77 25.74 26.47 26.85 26.95 27.08 27.35 27.6
2903.661 27.79 28.03 28.04 27.79 27.47 27.19 26.9 26.72 26.88 26.84
2922.955 26.79 26.98 27.08 27.13 26.86 26.35 25.94 25.26 24.44 23.9
2942.248 23.39 22.96 22.69 22.55 22.7 23.1 23.39 23.61 23.89 24.03
2961.542 24.32 25.01 26.06 27.44 29.14 31.32 33.93 36.85 39.99 43.2
2980.835 46.35 49.07 51.65 54.26 56.52 57.75 57.66 57.08 55.92 52.45
3000.128 47.58 44.33 42.87 41.58 39.62 36.64 32.7 28.37 24.17 20.14
3019.422 16.59 13.77 11.26 9.21 7.5 5.9 4.69 3.76 3 2.4416
3038.715 2.0683 1.7411 1.322 1.038 0.989 0.793 0.57 0.522 0.34 0.25
3058.009 0.32 0.45 0.33 0.07 0.29 0.32 0.18 0.25 0.32 0.32
3077.302 0.33 0.36 0.39 0.43 0.44 0.35 0.24 0.16 0.24 0.45
3096.596 0.527 0.37 0.35 0.47 0.4 0.474 0.546 0.629 0.583 0.581
3115.889 0.658 0.523 0.514 0.521 0.38 0.39 0.574 0.623 0.694 0.758
3135.182 0.661 0.44 0.41 0.595 0.616 0.45 0.28 0.31 0.33 0.33
3154.476 0.38 0.515 0.536 0.42 0.34 0.4 0.509 0.543 0.637 0.79
3173.769 0.907 0.819 0.5 0.5 0.529 0.35 0.27 0.28 0.44 0.553
3193.063 0.477 0.38 0.34 0.28 0.11 0.08 0.21 0.18 0.34 0.46
3212.356 0.27 0.09 0 0.02 0.05 0.13 0.18 0.11 0.19 0.31
3231.650 0.18 0.29 0.46 0.41 0.516 0.654 0.652 0.711 0.851 0.914
3250.943 1.218 1.4588 1.6088 1.8579 2.0169 2.2307 2.66 2.98 3.52 4.38
3270.236 5.1 5.8 6.45 7.15 8.08 9.13 10.16 12.01 14.85 17.56
3289.530 19.78 21.83 23.93 26.32 28.47 30.43 33.21 37.73 45.16 54.7
3308.823 60.87 61.98 64.17 68.28 70.46 69.15 65.56 63.2 66.76 76.99
3328.117 79.71 63.18 48.24 48.88 55.05 59.34 59.49 55.39 48.14 39.26
3347.410 30.35 22.42 15.97 11.47 8.35 6.08 4.76 3.88 3.24 2.78
3366.704 2.57 2.49 2.1807 1.9128 1.8947 1.8418 1.54755 1.4458 1.4225 1.297
3385.997 1.156 1.199 1.232 0.886 0.642 0.831 1.021 0.873 0.701 0.667
3405.290 0.624 0.38 0.2 0.16 0.33 0.37 0.23 0.23 0.29 0.28
3424.584 0.22 0.23 0.07 0.2 0.34 0.18 0.25 0.46 0.512 0.39
3443.877 0.29 0.3 0.34 0.34 0.33 0.19 0.25 0.47 0.35 0.29
3463.171 0.42 0.46 0.4 0.559 0.728 0.646 0.686 0.7 0.714 0.887
3482.464 0.97 1.086 1.241 1.125 1.094 1.051 1.071 1.16 1.078 1.172
3501.758 1.117 1.093 1.199 1.223 1.349 1.326 1.256 1.257 1.335 1.23
3521.051 1.121 1.233 1.174 1.159 1.281 1.312 1.052 0.981 1.141 1.147
3540.344 1.042 0.988 0.96 0.978 1.199 1.158 0.989 0.828 0.692 0.645
3559.638 0.54 0.528 0.474 0.516 0.614 0.628 0.615 0.76 0.709 0.537
3578.931 0.666 0.578 0.477 0.642 0.606 0.759 1.055 1.197 1.176 1.242
3598.225 1.5838 1.7536 1.9144 2.3228 2.86 3.37 4.02 4.59 5.24 6.22
3617.518 7.27 8.49 9.78 11.2 12.99 14.92 16.76 18.69 20.81 22.86
3636.812 24.89 26.66 28.05 29 29.61 29.6 28.76 27.5 26.32 25.99
3656.105 26.21 26.63 27.25 27.26 26.16 24.45 22.39 20.18 17.85 15.73
3675.398 13.86 11.99 10.18 8.48 7.26 6.24 5.14 4.16 3.41 2.85
3694.692 2.3931 2.085 1.8743 1.6135 1.301 1.06 0.902 0.911 1.017 0.958
3713.985 1.04 1.042 0.958 0.837 0.71 0.707 0.699 0.763 0.725 0.662
3733.279 0.698 0.722 0.632 0.644 0.802 0.944 0.971 0.836 0.845 0.994
3752.572 1.044 0.919 0.965 1.032 1.026 1.043 0.974 0.985 1.089 1.169
3771.866 1.196 1.134 1.184 1.272 1.256 1.306 1.224 1.198 1.238 1.227
3791.159 1.192 1.215 1.242 1.24 1.226 1.282 1.363 1.264 1.172 1.186
3810.452 1.221 1.206 1.122 1.097 1.086 1.083 1.16 1.154 1.075 1.048
3829.746 1.115 1.031 0.952 0.961 0.931 1 0.921 0.665 0.585 0.686
3849.039 0.772 0.829 0.98 0.948 0.846 0.856 0.934 1.038 1.011 0.965
3868.333 0.929 0.863 0.98 1.173 1.033 1.072 1.186 1.074 1.162 1.307
3887.626 1.169 1.202 1.333 1.225 1.198 1.178 1.168 1.178 1.183 1.199
3906.920 1.121 1.218 1.231 1.084 1.259 1.4122 1.359 1.364 1.4184 1.365
3926.213 1.261 1.318 1.3923 1.4341 1.51697 1.6206 1.7188 1.7627 1.7549 1.7099
3945.506 1.6985 1.6816 1.6121 1.7629 1.8949 1.8004 1.7607 1.6798 1.56988 1.4257
3964.800 1.242 1.288 1.328 1.102 0.963 0.928 0.799 0.493 0.39 0.46
3984.093 0.559 0.609 0.635 0.613 0.46 0.34 0.33 0.4 0.41
##END=
