##TITLE=Cyclopropane, 1,1-dichloro-
##JCAMP-DX=4.24
##DATA TYPE=INFRARED SPECTRUM
##CLASS=COBLENTZ
##ORIGIN=DOW CHEMICAL COMPANY
##OWNER=Copyright (C) 1987 by the Coblentz Society
Collection (C) 2018 copyright by the U.S. Secretary of Commerce
on behalf of the United States of America. All rights reserved.
##DATE=1964
##NAMES=1,1-dichlorocyclopropane
##CAS REGISTRY NO=2088-35-9
##MOLFORM=C3 H4 Cl2
##SOURCE REFERENCE=COBLENTZ NO. 8830
##$NIST SOURCE=COBLENTZ
##$NIST IMAGE=cob8830
##SPECTROMETER/DATA SYSTEM=DOW KBr FOREPRISM-GRATING
##INSTRUMENT PARAMETERS=GRATING CHANGED AT 5.0, 7.5, 15.0 MICRON
##STATE=GAS (106 mmHg, N2 ADDED, TOTAL PRESSURE 600 mmHg)
##PATH LENGTH=5 CM
##SAMPLING PROCEDURE=TRANSMISSION
##RESOLUTION=2
##DATA PROCESSING=DIGITIZED BY COBLENTZ SOCIETY (BATCH II) FROM HARD COPY
##XUNITS=1/CM
##YUNITS=TRANSMITTANCE
##XFACTOR=1.0
##YFACTOR=1
##FIRSTX=462
##LASTX=3790
##FIRSTY=0.8847
##MAXX=3790
##MINX=462
##MAXY=0.8978
##MINY=0.0318
##NPOINTS=3329
##XYDATA=(X++(Y..Y))
462.000000 0.8847 0.8842 0.8837 0.8826 0.8814
467.000000 0.8802 0.8790 0.8773 0.8754 0.8736
472.000000 0.8717 0.8691 0.8657 0.8622 0.8586
477.000000 0.8537 0.8477 0.8408 0.8338 0.8248
482.000000 0.8159 0.8070 0.7980 0.7527 0.7224
487.000000 0.6922 0.6619 0.6316 0.6013 0.5776
492.000000 0.5630 0.5455 0.5049 0.4829 0.4712
497.000000 0.4636 0.4592 0.4578 0.4564 0.4603
502.000000 0.4670 0.4736 0.4802 0.4818 0.4817
507.000000 0.4821 0.4615 0.4365 0.4353 0.4414
512.000000 0.4727 0.5039 0.5352 0.5580 0.5691
517.000000 0.5847 0.6105 0.6658 0.6833 0.7027
522.000000 0.7241 0.7814 0.8392 0.8494 0.8555
527.000000 0.8611 0.8640 0.8669 0.8692 0.8703
532.000000 0.8714 0.8724 0.8735 0.8744 0.8747
537.000000 0.8749 0.8752 0.8755 0.8758 0.8761
542.000000 0.8764 0.8767 0.8770 0.8774 0.8777
547.000000 0.8780 0.8786 0.8794 0.8801 0.8808
552.000000 0.8820 0.8831 0.8842 0.8844 0.8845
557.000000 0.8846 0.8847 0.8848 0.8849 0.8849
562.000000 0.8850 0.8852 0.8861 0.8869 0.8879
567.000000 0.8893 0.8907 0.8921 0.8933 0.8944
572.000000 0.8949 0.8953 0.8956 0.8957 0.8957
577.000000 0.8958 0.8959 0.8952 0.8959 0.8958
582.000000 0.8957 0.8957 0.8956 0.8955 0.8955
587.000000 0.8956 0.8956 0.8956 0.8957 0.8957
592.000000 0.8957 0.8958 0.8958 0.8958 0.8958
597.000000 0.8958 0.8957 0.8957 0.8956 0.8956
602.000000 0.8955 0.8955 0.8954 0.8954 0.8950
607.000000 0.8946 0.8942 0.8938 0.8934 0.8922
612.000000 0.8908 0.8892 0.8861 0.8831 0.8800
617.000000 0.8762 0.8724 0.8686 0.8614 0.8536
622.000000 0.8451 0.8363 0.8274 0.8181 0.8079
627.000000 0.7976 0.7856 0.7578 0.7227 0.6834
632.000000 0.6573 0.6430 0.6367 0.6337 0.6332
637.000000 0.6324 0.6338 0.6365 0.6502 0.6639
642.000000 0.6866 0.6879 0.5380 0.5433 0.5356
647.000000 0.6270 0.6689 0.6955 0.6696 0.6434
652.000000 0.6172 0.5941 0.5941 0.5941 0.6298
657.000000 0.6545 0.6793 0.7041 0.7288 0.7536
662.000000 0.7784 0.8031 0.8411 0.8614 0.8701
667.000000 0.8747 0.8770 0.8787 0.8790 0.8810
672.000000 0.8771 0.8682 0.8580 0.8478 0.8377
677.000000 0.8338 0.8293 0.8242 0.8171 0.8066
682.000000 0.7984 0.7901 0.7764 0.7669 0.7596
687.000000 0.7533 0.7512 0.7490 0.7468 0.7452
692.000000 0.7418 0.7298 0.7144 0.7109 0.7097
697.000000 0.7090 0.7073 0.7053 0.7007 0.6913
702.000000 0.6744 0.6080 0.5649 0.5158 0.4667
707.000000 0.4176 0.3685 0.3194 0.1582 0.1158
712.000000 0.0988 0.0885 0.0846 0.0819 0.0800
717.000000 0.0786 0.0771 0.0744 0.0672 0.0526
722.000000 0.0372 0.0337 0.0575 0.1315 0.1374
727.000000 0.1141 0.0663 0.0591 0.0570 0.0578
732.000000 0.0624 0.0759 0.1308 0.1882 0.2456
737.000000 0.3030 0.3442 0.3967 0.4651 0.5335
742.000000 0.6019 0.6703 0.7073 0.7114 0.7175
747.000000 0.7240 0.7316 0.7362 0.7390 0.7402
752.000000 0.7406 0.7401 0.7387 0.7348 0.7255
757.000000 0.6995 0.6474 0.5953 0.5431 0.4910
762.000000 0.4389 0.3902 0.3788 0.3694 0.3573
767.000000 0.3540 0.3497 0.3506 0.3490 0.2927
772.000000 0.2169 0.1554 0.1598 0.2587 0.3550
777.000000 0.3777 0.3770 0.3489 0.3147 0.2892
782.000000 0.2919 0.2902 0.3105 0.3503 0.3901
787.000000 0.4299 0.4697 0.5095 0.5492 0.5890
792.000000 0.6288 0.6879 0.6948 0.6999 0.7033
797.000000 0.7067 0.7070 0.7071 0.7058 0.7035
802.000000 0.7000 0.6961 0.6956 0.6964 0.6994
807.000000 0.7062 0.7131 0.7507 0.7949 0.7948
812.000000 0.7945 0.7804 0.7642 0.7558 0.7583
817.000000 0.7613 0.7652 0.7695 0.7735 0.7774
822.000000 0.7818 0.7862 0.7905 0.7945 0.7985
827.000000 0.8025 0.8069 0.8115 0.8162 0.8204
832.000000 0.8244 0.8284 0.8319 0.8346 0.8374
837.000000 0.8401 0.8425 0.8445 0.8465 0.8484
842.000000 0.8501 0.8518 0.8528 0.8538 0.8547
847.000000 0.8544 0.8547 0.8537 0.8526 0.8516
852.000000 0.8505 0.8493 0.8480 0.8467 0.8447
857.000000 0.8426 0.8406 0.8380 0.8347 0.8315
862.000000 0.8275 0.8231 0.8188 0.8149 0.8118
867.000000 0.8086 0.8055 0.8024 0.7994 0.7966
872.000000 0.7938 0.7910 0.7882 0.7854 0.7814
877.000000 0.7772 0.7722 0.7628 0.7418 0.7208
882.000000 0.7114 0.7130 0.7291 0.7497 0.7661
887.000000 0.7640 0.7555 0.7506 0.7524 0.7551
892.000000 0.7582 0.7615 0.7648 0.7680 0.7737
897.000000 0.7795 0.7879 0.7953 0.8017 0.8078
902.000000 0.8134 0.8181 0.8217 0.8233 0.8243
907.000000 0.8253 0.8259 0.8267 0.8252 0.8242
912.000000 0.8232 0.8218 0.8204 0.8190 0.8168
917.000000 0.8145 0.8122 0.8099 0.8075 0.8051
922.000000 0.8028 0.8004 0.7978 0.7949 0.7919
927.000000 0.7884 0.7837 0.7814 0.7827 0.7836
932.000000 0.7845 0.7865 0.7723 0.7388 0.7083
937.000000 0.6943 0.6828 0.6737 0.6646 0.6555
942.000000 0.6464 0.6373 0.6350 0.6363 0.6420
947.000000 0.6476 0.6518 0.6501 0.6057 0.4675
952.000000 0.3292 0.2735 0.3453 0.4621 0.5789
957.000000 0.6957 0.7165 0.7137 0.7071 0.7005
962.000000 0.6940 0.6874 0.6852 0.6859 0.6985
967.000000 0.7111 0.7210 0.7303 0.7451 0.7595
972.000000 0.7693 0.7789 0.7896 0.8110 0.8234
977.000000 0.8336 0.8412 0.8478 0.8533 0.8588
982.000000 0.8641 0.8695 0.8736 0.8757 0.8774
987.000000 0.8761 0.8752 0.8739 0.8725 0.8705
992.000000 0.8683 0.8660 0.8636 0.8610 0.8582
997.000000 0.8553 0.8518 0.8481 0.8443 0.8398
1002.000000 0.8352 0.8306 0.8235 0.8157 0.8080
1007.000000 0.7990 0.7898 0.7805 0.7705 0.7596
1012.000000 0.7484 0.7316 0.6796 0.6591 0.6386
1017.000000 0.6181 0.5977 0.5700 0.4695 0.4060
1022.000000 0.3846 0.3659 0.3491 0.3291 0.3171
1027.000000 0.3079 0.2983 0.1693 0.1705 0.1883
1032.000000 0.2324 0.2764 0.3205 0.3627 0.3643
1037.000000 0.3643 0.1936 0.1996 0.1884 0.2319
1042.000000 0.2428 0.2517 0.2599 0.2681 0.2841
1047.000000 0.3138 0.3410 0.3893 0.4407 0.4920
1052.000000 0.5434 0.5948 0.6293 0.6641 0.6814
1057.000000 0.7001 0.7134 0.7184 0.7222 0.6951
1062.000000 0.6644 0.6356 0.7298 0.7319 0.7279
1067.000000 0.7225 0.7174 0.7179 0.7188 0.7252
1072.000000 0.7354 0.7432 0.7463 0.7470 0.7199
1077.000000 0.6922 0.6670 0.7039 0.8001 0.8004
1082.000000 0.7827 0.7638 0.7606 0.7620 0.7649
1087.000000 0.7720 0.7796 0.7893 0.7981 0.8083
1092.000000 0.8199 0.8323 0.8436 0.8494 0.8525
1097.000000 0.8554 0.8568 0.8581 0.8584 0.8584
1102.000000 0.8555 0.8519 0.8453 0.8369 0.8272
1107.000000 0.8151 0.8066 0.7987 0.7916 0.7838
1112.000000 0.7705 0.7300 0.6895 0.6490 0.6086
1117.000000 0.5681 0.5276 0.4871 0.4273 0.3573
1122.000000 0.2874 0.2174 0.1703 0.1378 0.1046
1127.000000 0.0813 0.0630 0.0560 0.0507 0.0463
1132.000000 0.0414 0.0361 0.0338 0.0318 0.0319
1137.000000 0.0450 0.1008 0.1017 0.1012 0.0861
1142.000000 0.0711 0.0560 0.0491 0.0478 0.0564
1147.000000 0.0738 0.1124 0.1731 0.2647 0.3563
1152.000000 0.4479 0.5396 0.6312 0.6401 0.6313
1157.000000 0.6199 0.6085 0.6028 0.6241 0.6552
1162.000000 0.6863 0.7180 0.7339 0.7378 0.7410
1167.000000 0.7434 0.7459 0.7480 0.7500 0.7524
1172.000000 0.7596 0.7808 0.8033 0.8140 0.8141
1177.000000 0.8144 0.8044 0.7944 0.7843 0.7816
1182.000000 0.7898 0.8035 0.8176 0.8238 0.8281
1187.000000 0.8321 0.8357 0.8392 0.8434 0.8473
1192.000000 0.8492 0.8511 0.8512 0.8501 0.8505
1197.000000 0.8494 0.8466 0.8438 0.8410 0.8372
1202.000000 0.8321 0.8214 0.7942 0.7828 0.7753
1207.000000 0.7689 0.7630 0.7570 0.7495 0.7409
1212.000000 0.7296 0.7169 0.7024 0.6783 0.6538
1217.000000 0.6432 0.6339 0.6235 0.6116 0.5993
1222.000000 0.5869 0.5753 0.5739 0.5178 0.4922
1227.000000 0.4635 0.4345 0.4081 0.3867 0.3718
1232.000000 0.3570 0.3440 0.3313 0.3219 0.3155
1237.000000 0.3121 0.3118 0.3120 0.3133 0.3133
1242.000000 0.3147 0.3176 0.3251 0.3438 0.3671
1247.000000 0.3903 0.4057 0.4064 0.3364 0.3018
1252.000000 0.3197 0.3027 0.3714 0.3973 0.4161
1257.000000 0.4237 0.4369 0.4996 0.5722 0.6424
1262.000000 0.6661 0.6831 0.7006 0.7156 0.7283
1267.000000 0.7376 0.7451 0.7492 0.7506 0.7518
1272.000000 0.7518 0.7505 0.7485 0.7440 0.7382
1277.000000 0.7298 0.7209 0.7118 0.7019 0.6905
1282.000000 0.6759 0.6558 0.6250 0.5959 0.5669
1287.000000 0.5378 0.5087 0.4797 0.4506 0.4386
1292.000000 0.4366 0.4665 0.4892 0.5120 0.5347
1297.000000 0.5546 0.5610 0.5199 0.4685 0.4307
1302.000000 0.4307 0.5128 0.6081 0.6107 0.6101
1307.000000 0.5444 0.5087 0.4729 0.4372 0.4283
1312.000000 0.4495 0.4828 0.5160 0.5493 0.5825
1317.000000 0.6158 0.6490 0.6823 0.7156 0.7488
1322.000000 0.7802 0.8327 0.8393 0.8458 0.8509
1327.000000 0.8548 0.8576 0.8597 0.8618 0.8639
1332.000000 0.8659 0.8671 0.8683 0.8695 0.8707
1337.000000 0.8718 0.8725 0.8732 0.8739 0.8746
1342.000000 0.8751 0.8751 0.8751 0.8751 0.8751
1347.000000 0.8751 0.8758 0.8745 0.8741 0.8736
1352.000000 0.8732 0.8728 0.8723 0.8720 0.8717
1357.000000 0.8714 0.8711 0.8708 0.8704 0.8701
1362.000000 0.8698 0.8695 0.8692 0.8689 0.8686
1367.000000 0.8683 0.8680 0.8678 0.8675 0.8672
1372.000000 0.8664 0.8655 0.8646 0.8637 0.8615
1377.000000 0.8591 0.8555 0.8518 0.8469 0.8411
1382.000000 0.8346 0.8305 0.8284 0.8277 0.8283
1387.000000 0.8312 0.8359 0.8397 0.8402 0.8402
1392.000000 0.8393 0.8360 0.8324 0.8266 0.8202
1397.000000 0.8129 0.8054 0.7979 0.7882 0.7776
1402.000000 0.7480 0.7184 0.6887 0.6590 0.6326
1407.000000 0.6300 0.6278 0.6256 0.6228 0.6145
1412.000000 0.5630 0.5115 0.4600 0.4085 0.3570
1417.000000 0.3054 0.2539 0.2024 0.2035 0.4454
1422.000000 0.5541 0.5505 0.5424 0.5343 0.5261
1427.000000 0.5180 0.5110 0.5094 0.5085 0.5134
1432.000000 0.5096 0.5343 0.5443 0.5456 0.5468
1437.000000 0.5556 0.5666 0.5775 0.5883 0.5845
1442.000000 0.5771 0.5663 0.5554 0.5446 0.5367
1447.000000 0.5351 0.5346 0.5348 0.5368 0.5392
1452.000000 0.5423 0.5443 0.5450 0.5444 0.5093
1457.000000 0.4821 0.4818 0.4829 0.5280 0.5286
1462.000000 0.5222 0.5013 0.4955 0.4989 0.5188
1467.000000 0.5333 0.5479 0.5719 0.5951 0.6114
1472.000000 0.6238 0.6347 0.6470 0.6656 0.6983
1477.000000 0.7152 0.7356 0.7556 0.7701 0.7808
1482.000000 0.7908 0.7990 0.8073 0.8180 0.8300
1487.000000 0.8360 0.8416 0.8454 0.8483 0.8512
1492.000000 0.8536 0.8557 0.8577 0.8586 0.8590
1497.000000 0.8594 0.8592 0.8590 0.8588 0.8585
1502.000000 0.8581 0.8577 0.8573 0.8569 0.8566
1507.000000 0.8562 0.8558 0.8555 0.8558 0.8560
1512.000000 0.8563 0.8564 0.8566 0.8568 0.8569
1517.000000 0.8569 0.8567 0.8565 0.8563 0.8561
1522.000000 0.8559 0.8555 0.8549 0.8543 0.8537
1527.000000 0.8531 0.8525 0.8519 0.8514 0.8508
1532.000000 0.8504 0.8511 0.8518 0.8535 0.8553
1537.000000 0.8571 0.8589 0.8601 0.8604 0.8607
1542.000000 0.8608 0.8610 0.8611 0.8611 0.8610
1547.000000 0.8608 0.8607 0.8605 0.8604 0.8603
1552.000000 0.8603 0.8603 0.8603 0.8610 0.8617
1557.000000 0.8625 0.8635 0.8646 0.8657 0.8667
1562.000000 0.8676 0.8682 0.8688 0.8695 0.8701
1567.000000 0.8705 0.8710 0.8714 0.8718 0.8723
1572.000000 0.8727 0.8731 0.8735 0.8739 0.8743
1577.000000 0.8747 0.8750 0.8751 0.8752 0.8753
1582.000000 0.8754 0.8756 0.8757 0.8773 0.8758
1587.000000 0.8759 0.8760 0.8761 0.8761 0.8762
1592.000000 0.8763 0.8764 0.8764 0.8765 0.8766
1597.000000 0.8767 0.8767 0.8768 0.8768 0.8768
1602.000000 0.8767 0.8767 0.8767 0.8766 0.8766
1607.000000 0.8765 0.8765 0.8764 0.8764 0.8763
1612.000000 0.8762 0.8760 0.8759 0.8757 0.8756
1617.000000 0.8754 0.8753 0.8751 0.8745 0.8740
1622.000000 0.8735 0.8729 0.8724 0.8721 0.8722
1627.000000 0.8723 0.8725 0.8732 0.8738 0.8744
1632.000000 0.8752 0.8761 0.8765 0.8759 0.8747
1637.000000 0.8734 0.8721 0.8713 0.8708 0.8704
1642.000000 0.8700 0.8725 0.8753 0.8770 0.8773
1647.000000 0.8776 0.8780 0.8785 0.8786 0.8787
1652.000000 0.8789 0.8790 0.8793 0.8796 0.8799
1657.000000 0.8801 0.8803 0.8806 0.8808 0.8809
1662.000000 0.8809 0.8810 0.8811 0.8811 0.8810
1667.000000 0.8808 0.8805 0.8799 0.8791 0.8783
1672.000000 0.8774 0.8763 0.8752 0.8741 0.8729
1677.000000 0.8718 0.8705 0.8691 0.8685 0.8682
1682.000000 0.8679 0.8679 0.8680 0.8680 0.8681
1687.000000 0.8682 0.8682 0.8682 0.8682 0.8680
1692.000000 0.8676 0.8671 0.8667 0.8663 0.8659
1697.000000 0.8651 0.8643 0.8634 0.8626 0.8615
1702.000000 0.8603 0.8591 0.8579 0.8567 0.8555
1707.000000 0.8543 0.8531 0.8519 0.8508 0.8497
1712.000000 0.8485 0.8474 0.8462 0.8451 0.8439
1717.000000 0.8428 0.8416 0.8405 0.8393 0.8381
1722.000000 0.8368 0.8355 0.8342 0.8329 0.8316
1727.000000 0.8303 0.8290 0.8277 0.8264 0.8251
1732.000000 0.8238 0.8224 0.8208 0.8193 0.8177
1737.000000 0.8162 0.8146 0.8131 0.8116 0.8100
1742.000000 0.8081 0.8062 0.8043 0.8024 0.8007
1747.000000 0.7993 0.8001 0.8004 0.8004 0.8005
1752.000000 0.8007 0.7996 0.8019 0.8031 0.8043
1757.000000 0.8064 0.8090 0.8119 0.8147 0.8171
1762.000000 0.8195 0.8219 0.8243 0.8272 0.8301
1767.000000 0.8330 0.8359 0.8388 0.8422 0.8458
1772.000000 0.8493 0.8548 0.8605 0.8611 0.8610
1777.000000 0.8609 0.8619 0.8605 0.8603 0.8601
1782.000000 0.8599 0.8593 0.8587 0.8581 0.8574
1787.000000 0.8566 0.8558 0.8550 0.8542 0.8534
1792.000000 0.8527 0.8519 0.8512 0.8504 0.8496
1797.000000 0.8486 0.8476 0.8466 0.8456 0.8444
1802.000000 0.8432 0.8421 0.8409 0.8397 0.8382
1807.000000 0.8365 0.8349 0.8343 0.8361 0.8383
1812.000000 0.8407 0.8409 0.8403 0.8398 0.8398
1817.000000 0.8398 0.8399 0.8402 0.8405 0.8408
1822.000000 0.8415 0.8424 0.8433 0.8443 0.8453
1827.000000 0.8463 0.8464 0.8459 0.8439 0.8413
1832.000000 0.8386 0.8361 0.8347 0.8346 0.8356
1837.000000 0.8387 0.8428 0.8463 0.8479 0.8487
1842.000000 0.8492 0.8497 0.8502 0.8509 0.8515
1847.000000 0.8521 0.8527 0.8533 0.8535 0.8537
1852.000000 0.8540 0.8542 0.8544 0.8548 0.8552
1857.000000 0.8556 0.8559 0.8563 0.8565 0.8568
1862.000000 0.8570 0.8571 0.8571 0.8571 0.8571
1867.000000 0.8571 0.8569 0.8562 0.8554 0.8546
1872.000000 0.8539 0.8532 0.8525 0.8517 0.8507
1877.000000 0.8496 0.8513 0.8531 0.8542 0.8546
1882.000000 0.8549 0.8546 0.8535 0.8523 0.8511
1887.000000 0.8498 0.8485 0.8472 0.8459 0.8445
1892.000000 0.8431 0.8416 0.8399 0.8382 0.8365
1897.000000 0.8349 0.8335 0.8322 0.8317 0.8311
1902.000000 0.8311 0.8319 0.8324 0.8326 0.8311
1907.000000 0.8282 0.8257 0.8248 0.8246 0.8245
1912.000000 0.8245 0.8248 0.8254 0.8262 0.8271
1917.000000 0.8283 0.8297 0.8311 0.8328 0.8345
1922.000000 0.8377 0.8413 0.8432 0.8440 0.8441
1927.000000 0.8442 0.8441 0.8429 0.8405 0.8341
1932.000000 0.8241 0.8173 0.8151 0.8138 0.8221
1937.000000 0.8398 0.8456 0.8461 0.8448 0.8436
1942.000000 0.8425 0.8419 0.8417 0.8429 0.8444
1947.000000 0.8464 0.8480 0.8489 0.8498 0.8492
1952.000000 0.8474 0.8454 0.8446 0.8442 0.8446
1957.000000 0.8451 0.8476 0.8501 0.8509 0.8504
1962.000000 0.8499 0.8494 0.8488 0.8481 0.8475
1967.000000 0.8469 0.8462 0.8455 0.8449 0.8444
1972.000000 0.8439 0.8435 0.8433 0.8437 0.8441
1977.000000 0.8455 0.8468 0.8485 0.8503 0.8506
1982.000000 0.8506 0.8497 0.8474 0.8399 0.8355
1987.000000 0.8357 0.8360 0.8370 0.8400 0.8459
1992.000000 0.8588 0.8641 0.8657 0.8665 0.8674
1997.000000 0.8684 0.8696 0.8709 0.8720 0.8730
2002.000000 0.8741 0.8746 0.8752 0.8756 0.8761
2007.000000 0.8765 0.8769 0.8773 0.8777 0.8780
2012.000000 0.8784 0.8787 0.8790 0.8793 0.8796
2017.000000 0.8796 0.8774 0.8797 0.8797 0.8797
2022.000000 0.8797 0.8797 0.8797 0.8795 0.8794
2027.000000 0.8792 0.8790 0.8788 0.8786 0.8784
2032.000000 0.8782 0.8778 0.8774 0.8769 0.8764
2037.000000 0.8759 0.8754 0.8749 0.8744 0.8736
2042.000000 0.8728 0.8719 0.8711 0.8702 0.8694
2047.000000 0.8685 0.8677 0.8668 0.8660 0.8649
2052.000000 0.8639 0.8628 0.8617 0.8606 0.8595
2057.000000 0.8584 0.8574 0.8563 0.8552 0.8541
2062.000000 0.8530 0.8518 0.8507 0.8495 0.8484
2067.000000 0.8473 0.8462 0.8450 0.8438 0.8426
2072.000000 0.8414 0.8402 0.8390 0.8371 0.8352
2077.000000 0.8326 0.8300 0.8274 0.8249 0.8231
2082.000000 0.8213 0.8203 0.8193 0.8187 0.8181
2087.000000 0.8179 0.8177 0.8112 0.8047 0.7934
2092.000000 0.7821 0.7708 0.7595 0.7557 0.8171
2097.000000 0.7659 0.7798 0.7997 0.8196 0.8207
2102.000000 0.8219 0.8230 0.8241 0.8252 0.8263
2107.000000 0.8271 0.8279 0.8287 0.8295 0.8303
2112.000000 0.8311 0.8318 0.8325 0.8332 0.8339
2117.000000 0.8346 0.8353 0.8360 0.8367 0.8374
2122.000000 0.8381 0.8387 0.8394 0.8401 0.8408
2127.000000 0.8415 0.8422 0.8429 0.8436 0.8443
2132.000000 0.8450 0.8459 0.8468 0.8481 0.8495
2137.000000 0.8509 0.8523 0.8548 0.8573 0.8606
2142.000000 0.8639 0.8645 0.8651 0.8657 0.8663
2147.000000 0.8666 0.8669 0.8671 0.8674 0.8676
2152.000000 0.8679 0.8681 0.8684 0.8684 0.8684
2157.000000 0.8683 0.8683 0.8682 0.8682 0.8681
2162.000000 0.8681 0.8680 0.8680 0.8680 0.8680
2167.000000 0.8680 0.8680 0.8680 0.8680 0.8680
2172.000000 0.8680 0.8680 0.8680 0.8680 0.8680
2177.000000 0.8680 0.8680 0.8680 0.8680 0.8680
2182.000000 0.8680 0.8680 0.8680 0.8680 0.8680
2187.000000 0.8680 0.8680 0.8679 0.8678 0.8676
2192.000000 0.8675 0.8673 0.8672 0.8671 0.8670
2197.000000 0.8665 0.8661 0.8650 0.8639 0.8628
2202.000000 0.8618 0.8607 0.8597 0.8588 0.8580
2207.000000 0.8571 0.8563 0.8558 0.8554 0.8554
2212.000000 0.8554 0.8558 0.8562 0.8570 0.8578
2217.000000 0.8587 0.8596 0.8605 0.8614 0.8623
2222.000000 0.8632 0.8641 0.8650 0.8657 0.8665
2227.000000 0.8672 0.8680 0.8686 0.8692 0.8696
2232.000000 0.8700 0.8704 0.8709 0.8713 0.8717
2237.000000 0.8721 0.8726 0.8730 0.8735 0.8739
2242.000000 0.8743 0.8748 0.8753 0.8758 0.8763
2247.000000 0.8768 0.8773 0.8772 0.8772 0.8770
2252.000000 0.8768 0.8766 0.8764 0.8762 0.8760
2257.000000 0.8757 0.8755 0.8751 0.8748 0.8737
2262.000000 0.8726 0.8714 0.8703 0.8690 0.8678
2267.000000 0.8662 0.8647 0.8635 0.8624 0.8614
2272.000000 0.8605 0.8595 0.8585 0.8578 0.8572
2277.000000 0.8573 0.8575 0.8580 0.8585 0.8590
2282.000000 0.8596 0.8601 0.8606 0.8612 0.8619
2287.000000 0.8626 0.8634 0.8641 0.8649 0.8656
2292.000000 0.8664 0.8673 0.8683 0.8694 0.8705
2297.000000 0.8719 0.8733 0.8749 0.8765 0.8769
2302.000000 0.8773 0.8771 0.8770 0.8766 0.8762
2307.000000 0.8758 0.8754 0.8750 0.8746 0.8739
2312.000000 0.8732 0.8724 0.8716 0.8709 0.8702
2317.000000 0.8695 0.8688 0.8681 0.8674 0.8669
2322.000000 0.8665 0.8663 0.8661 0.8663 0.8666
2327.000000 0.8669 0.8672 0.8677 0.8682 0.8688
2332.000000 0.8695 0.8702 0.8709 0.8715 0.8722
2337.000000 0.8728 0.8735 0.8742 0.8749 0.8755
2342.000000 0.8762 0.8768 0.8775 0.8781 0.8788
2347.000000 0.8792 0.8796 0.8798 0.8801 0.8804
2352.000000 0.8807 0.8809 0.8812 0.8814 0.8816
2357.000000 0.8818 0.8820 0.8821 0.8823 0.8825
2362.000000 0.8827 0.8829 0.8831 0.8830 0.8830
2367.000000 0.8829 0.8829 0.8828 0.8828 0.8827
2372.000000 0.8827 0.8826 0.8826 0.8825 0.8825
2377.000000 0.8824 0.8823 0.8822 0.8822 0.8821
2382.000000 0.8821 0.8820 0.8820 0.8819 0.8818
2387.000000 0.8817 0.8817 0.8816 0.8816 0.8815
2392.000000 0.8815 0.8815 0.8816 0.8818 0.8820
2397.000000 0.8822 0.8824 0.8825 0.8834 0.8829
2402.000000 0.8831 0.8833 0.8835 0.8837 0.8839
2407.000000 0.8841 0.8843 0.8845 0.8847 0.8849
2412.000000 0.8851 0.8853 0.8855 0.8857 0.8859
2417.000000 0.8861 0.8863 0.8865 0.8868 0.8870
2422.000000 0.8872 0.8874 0.8876 0.8878 0.8881
2427.000000 0.8882 0.8884 0.8885 0.8886 0.8886
2432.000000 0.8887 0.8885 0.8884 0.8880 0.8877
2437.000000 0.8873 0.8870 0.8866 0.8863 0.8859
2442.000000 0.8856 0.8852 0.8848 0.8843 0.8839
2447.000000 0.8834 0.8829 0.8824 0.8820 0.8815
2452.000000 0.8811 0.8806 0.8801 0.8796 0.8792
2457.000000 0.8787 0.8782 0.8777 0.8772 0.8767
2462.000000 0.8762 0.8757 0.8752 0.8747 0.8742
2467.000000 0.8737 0.8733 0.8728 0.8723 0.8722
2472.000000 0.8722 0.8721 0.8721 0.8720 0.8719
2477.000000 0.8719 0.8720 0.8721 0.8723 0.8725
2482.000000 0.8727 0.8728 0.8730 0.8732 0.8734
2487.000000 0.8737 0.8741 0.8745 0.8749 0.8753
2492.000000 0.8757 0.8761 0.8765 0.8769 0.8773
2497.000000 0.8776 0.8780 0.8783 0.8786 0.8789
2502.000000 0.8792 0.8794 0.8797 0.8800 0.8803
2507.000000 0.8806 0.8809 0.8811 0.8814 0.8815
2512.000000 0.8817 0.8818 0.8819 0.8820 0.8821
2517.000000 0.8822 0.8823 0.8824 0.8825 0.8826
2522.000000 0.8827 0.8828 0.8830 0.8829 0.8829
2527.000000 0.8828 0.8827 0.8826 0.8825 0.8824
2532.000000 0.8823 0.8822 0.8821 0.8820 0.8819
2537.000000 0.8816 0.8813 0.8809 0.8806 0.8803
2542.000000 0.8800 0.8796 0.8793 0.8790 0.8788
2547.000000 0.8786 0.8784 0.8782 0.8780 0.8778
2552.000000 0.8776 0.8774 0.8772 0.8770 0.8768
2557.000000 0.8765 0.8763 0.8764 0.8766 0.8767
2562.000000 0.8768 0.8769 0.8770 0.8771 0.8772
2567.000000 0.8773 0.8774 0.8776 0.8778 0.8780
2572.000000 0.8782 0.8784 0.8787 0.8789 0.8791
2577.000000 0.8793 0.8796 0.8798 0.8801 0.8803
2582.000000 0.8806 0.8808 0.8811 0.8813 0.8816
2587.000000 0.8818 0.8821 0.8823 0.8826 0.8828
2592.000000 0.8831 0.8834 0.8837 0.8837 0.8838
2597.000000 0.8838 0.8839 0.8840 0.8841 0.8841
2602.000000 0.8842 0.8842 0.8843 0.8844 0.8845
2607.000000 0.8845 0.8846 0.8846 0.8847 0.8847
2612.000000 0.8847 0.8847 0.8847 0.8846 0.8846
2617.000000 0.8846 0.8846 0.8845 0.8845 0.8845
2622.000000 0.8845 0.8844 0.8844 0.8844 0.8844
2627.000000 0.8842 0.8841 0.8839 0.8837 0.8834
2632.000000 0.8832 0.8829 0.8827 0.8824 0.8822
2637.000000 0.8820 0.8818 0.8815 0.8813 0.8810
2642.000000 0.8808 0.8806 0.8804 0.8802 0.8800
2647.000000 0.8798 0.8796 0.8794 0.8792 0.8790
2652.000000 0.8788 0.8788 0.8789 0.8789 0.8790
2657.000000 0.8791 0.8792 0.8792 0.8793 0.8793
2662.000000 0.8794 0.8794 0.8795 0.8795 0.8796
2667.000000 0.8797 0.8799 0.8800 0.8801 0.8802
2672.000000 0.8804 0.8805 0.8807 0.8808 0.8810
2677.000000 0.8810 0.8810 0.8809 0.8809 0.8808
2682.000000 0.8807 0.8806 0.8806 0.8805 0.8805
2687.000000 0.8804 0.8803 0.8801 0.8800 0.8797
2692.000000 0.8795 0.8795 0.8796 0.8796 0.8797
2697.000000 0.8797 0.8797 0.8797 0.8798 0.8801
2702.000000 0.8804 0.8810 0.8817 0.8823 0.8829
2707.000000 0.8835 0.8842 0.8848 0.8855 0.8861
2712.000000 0.8867 0.8873 0.8880 0.8882 0.8885
2717.000000 0.8887 0.8890 0.8892 0.8895 0.8897
2722.000000 0.8900 0.8902 0.8904 0.8904 0.8905
2727.000000 0.8906 0.8907 0.8908 0.8909 0.8910
2732.000000 0.8911 0.8911 0.8912 0.8913 0.8914
2737.000000 0.8915 0.8916 0.8917 0.8918 0.8919
2742.000000 0.8921 0.8922 0.8923 0.8924 0.8925
2747.000000 0.8926 0.8927 0.8928 0.8929 0.8930
2752.000000 0.8931 0.8932 0.8933 0.8934 0.8935
2757.000000 0.8936 0.8937 0.8938 0.8939 0.8940
2762.000000 0.8941 0.8941 0.8942 0.8943 0.8944
2767.000000 0.8945 0.8946 0.8947 0.8948 0.8949
2772.000000 0.8950 0.8951 0.8952 0.8952 0.8953
2777.000000 0.8954 0.8956 0.8957 0.8958 0.8959
2782.000000 0.8960 0.8961 0.8962 0.8963 0.8964
2787.000000 0.8965 0.8966 0.8967 0.8968 0.8969
2792.000000 0.8970 0.8971 0.8972 0.8973 0.8974
2797.000000 0.8975 0.8976 0.8977 0.8978 0.8978
2802.000000 0.8978 0.8976 0.8975 0.8974 0.8973
2807.000000 0.8971 0.8970 0.8969 0.8968 0.8966
2812.000000 0.8965 0.8964 0.8963 0.8961 0.8960
2817.000000 0.8956 0.8953 0.8948 0.8944 0.8939
2822.000000 0.8935 0.8930 0.8926 0.8921 0.8917
2827.000000 0.8912 0.8907 0.8900 0.8893 0.8885
2832.000000 0.8878 0.8871 0.8864 0.8856 0.8849
2837.000000 0.8842 0.8835 0.8827 0.8820 0.8813
2842.000000 0.8806 0.8798 0.8791 0.8784 0.8777
2847.000000 0.8769 0.8762 0.8754 0.8747 0.8739
2852.000000 0.8732 0.8724 0.8717 0.8716 0.8716
2857.000000 0.8716 0.8716 0.8716 0.8716 0.8716
2862.000000 0.8716 0.8716 0.8716 0.8716 0.8716
2867.000000 0.8717 0.8719 0.8720 0.8721 0.8722
2872.000000 0.8724 0.8725 0.8727 0.8727 0.8728
2877.000000 0.8728 0.8728 0.8728 0.8728 0.8727
2882.000000 0.8727 0.8727 0.8727 0.8727 0.8727
2887.000000 0.8727 0.8727 0.8727 0.8727 0.8727
2892.000000 0.8727 0.8727 0.8727 0.8727 0.8727
2897.000000 0.8726 0.8726 0.8725 0.8725 0.8725
2902.000000 0.8725 0.8724 0.8724 0.8724 0.8724
2907.000000 0.8723 0.8723 0.8723 0.8723 0.8723
2912.000000 0.8723 0.8723 0.8723 0.8723 0.8723
2917.000000 0.8723 0.8723 0.8723 0.8723 0.8723
2922.000000 0.8723 0.8722 0.8722 0.8720 0.8719
2927.000000 0.8717 0.8716 0.8714 0.8713 0.8711
2932.000000 0.8709 0.8707 0.8705 0.8700 0.8695
2937.000000 0.8690 0.8685 0.8680 0.8675 0.8669
2942.000000 0.8664 0.8659 0.8654 0.8649 0.8644
2947.000000 0.8639 0.8634 0.8628 0.8623 0.8617
2952.000000 0.8612 0.8606 0.8600 0.8594 0.8589
2957.000000 0.8583 0.8578 0.8572 0.8567 0.8561
2962.000000 0.8555 0.8547 0.8539 0.8531 0.8523
2967.000000 0.8515 0.8507 0.8499 0.8491 0.8483
2972.000000 0.8475 0.8467 0.8459 0.8451 0.8443
2977.000000 0.8431 0.8420 0.8406 0.8392 0.8378
2982.000000 0.8365 0.8351 0.8338 0.8324 0.8311
2987.000000 0.8283 0.8255 0.8224 0.8194 0.8163
2992.000000 0.8133 0.8103 0.8073 0.8034 0.7995
2997.000000 0.7953 0.7911 0.7869 0.7827 0.7752
3002.000000 0.7678 0.7588 0.7498 0.7390 0.7283
3007.000000 0.7180 0.7078 0.6980 0.6882 0.6671
3012.000000 0.6460 0.6262 0.6065 0.5987 0.5909
3017.000000 0.5877 0.5845 0.5841 0.5837 0.5835
3022.000000 0.5834 0.5673 0.5513 0.4772 0.4031
3027.000000 0.3751 0.3471 0.3692 0.3463 0.4362
3032.000000 0.4810 0.5258 0.5706 0.5763 0.5821
3037.000000 0.5840 0.5860 0.6015 0.6170 0.6373
3042.000000 0.6576 0.6779 0.6982 0.7185 0.7388
3047.000000 0.7591 0.7795 0.7928 0.8061 0.8074
3052.000000 0.8126 0.8091 0.8096 0.8097 0.8098
3057.000000 0.8097 0.8096 0.8095 0.8094 0.8090
3062.000000 0.8087 0.8084 0.8081 0.8070 0.8060
3067.000000 0.8046 0.8032 0.8017 0.8002 0.7987
3072.000000 0.7972 0.7956 0.7941 0.7923 0.7905
3077.000000 0.7882 0.7859 0.7835 0.7812 0.7787
3082.000000 0.7763 0.7738 0.7714 0.7679 0.7644
3087.000000 0.7595 0.7546 0.7504 0.7463 0.7429
3092.000000 0.7395 0.7361 0.7327 0.7295 0.7264
3097.000000 0.7234 0.7204 0.6761 0.6318 0.6316
3102.000000 0.6315 0.6315 0.6315 0.6393 0.6471
3107.000000 0.6550 0.6630 0.6709 0.6789 0.6868
3112.000000 0.6947 0.7026 0.7106 0.7368 0.7630
3117.000000 0.7711 0.7792 0.7981 0.8171 0.8251
3122.000000 0.8332 0.8397 0.8463 0.8501 0.8539
3127.000000 0.8572 0.8605 0.8628 0.8651 0.8671
3132.000000 0.8692 0.8706 0.8721 0.8734 0.8747
3137.000000 0.8754 0.8762 0.8770 0.8778 0.8782
3142.000000 0.8787 0.8791 0.8796 0.8800 0.8805
3147.000000 0.8809 0.8814 0.8818 0.8822 0.8824
3152.000000 0.8827 0.8829 0.8832 0.8834 0.8837
3157.000000 0.8839 0.8842 0.8843 0.8845 0.8847
3162.000000 0.8849 0.8850 0.8852 0.8853 0.8855
3167.000000 0.8855 0.8855 0.8854 0.8853 0.8851
3172.000000 0.8850 0.8849 0.8848 0.8847 0.8846
3177.000000 0.8845 0.8844 0.8844 0.8844 0.8844
3182.000000 0.8844 0.8844 0.8844 0.8844 0.8844
3187.000000 0.8844 0.8844 0.8844 0.8844 0.8845
3192.000000 0.8847 0.8848 0.8850 0.8852 0.8854
3197.000000 0.8856 0.8858 0.8859 0.8861 0.8863
3202.000000 0.8865 0.8867 0.8869 0.8870 0.8872
3207.000000 0.8874 0.8876 0.8877 0.8879 0.8881
3212.000000 0.8883 0.8885 0.8887 0.8888 0.8890
3217.000000 0.8891 0.8892 0.8893 0.8894 0.8894
3222.000000 0.8895 0.8896 0.8897 0.8897 0.8898
3227.000000 0.8899 0.8900 0.8901 0.8902 0.8902
3232.000000 0.8903 0.8904 0.8905 0.8906 0.8907
3237.000000 0.8907 0.8908 0.8908 0.8909 0.8909
3242.000000 0.8909 0.8909 0.8909 0.8909 0.8909
3247.000000 0.8909 0.8909 0.8909 0.8909 0.8909
3252.000000 0.8909 0.8909 0.8909 0.8909 0.8909
3257.000000 0.8909 0.8909 0.8908 0.8908 0.8908
3262.000000 0.8908 0.8908 0.8908 0.8908 0.8908
3267.000000 0.8908 0.8908 0.8908 0.8908 0.8908
3272.000000 0.8908 0.8908 0.8908 0.8908 0.8908
3277.000000 0.8908 0.8908 0.8908 0.8908 0.8908
3282.000000 0.8908 0.8908 0.8908 0.8908 0.8908
3287.000000 0.8908 0.8908 0.8908 0.8908 0.8908
3292.000000 0.8908 0.8907 0.8907 0.8907 0.8907
3297.000000 0.8907 0.8907 0.8906 0.8906 0.8906
3302.000000 0.8906 0.8905 0.8905 0.8905 0.8905
3307.000000 0.8904 0.8904 0.8904 0.8904 0.8904
3312.000000 0.8904 0.8903 0.8903 0.8903 0.8904
3317.000000 0.8904 0.8905 0.8905 0.8906 0.8906
3322.000000 0.8907 0.8907 0.8908 0.8908 0.8909
3327.000000 0.8909 0.8910 0.8910 0.8910 0.8909
3332.000000 0.8909 0.8908 0.8907 0.8906 0.8906
3337.000000 0.8905 0.8904 0.8903 0.8903 0.8902
3342.000000 0.8901 0.8900 0.8900 0.8898 0.8897
3347.000000 0.8895 0.8894 0.8892 0.8890 0.8888
3352.000000 0.8886 0.8884 0.8883 0.8881 0.8879
3357.000000 0.8876 0.8874 0.8871 0.8869 0.8866
3362.000000 0.8863 0.8860 0.8858 0.8855 0.8853
3367.000000 0.8850 0.8848 0.8845 0.8842 0.8838
3372.000000 0.8835 0.8829 0.8824 0.8818 0.8813
3377.000000 0.8807 0.8801 0.8795 0.8790 0.8784
3382.000000 0.8779 0.8772 0.8766 0.8759 0.8752
3387.000000 0.8744 0.8737 0.8732 0.8728 0.8726
3392.000000 0.8725 0.8724 0.8723 0.8723 0.8723
3397.000000 0.8726 0.8729 0.8737 0.8761 0.8754
3402.000000 0.8764 0.8774 0.8785 0.8791 0.8798
3407.000000 0.8800 0.8803 0.8805 0.8807 0.8807
3412.000000 0.8807 0.8807 0.8807 0.8807 0.8807
3417.000000 0.8807 0.8807 0.8807 0.8807 0.8807
3422.000000 0.8807 0.8807 0.8807 0.8807 0.8807
3427.000000 0.8807 0.8807 0.8806 0.8806 0.8806
3432.000000 0.8806 0.8805 0.8805 0.8804 0.8804
3437.000000 0.8803 0.8803 0.8802 0.8802 0.8801
3442.000000 0.8801 0.8800 0.8800 0.8799 0.8799
3447.000000 0.8798 0.8798 0.8797 0.8797 0.8796
3452.000000 0.8795 0.8794 0.8793 0.8792 0.8791
3457.000000 0.8790 0.8789 0.8788 0.8787 0.8786
3462.000000 0.8785 0.8784 0.8783 0.8782 0.8781
3467.000000 0.8779 0.8778 0.8776 0.8775 0.8773
3472.000000 0.8772 0.8771 0.8770 0.8768 0.8767
3477.000000 0.8765 0.8764 0.8763 0.8762 0.8761
3482.000000 0.8761 0.8760 0.8760 0.8759 0.8759
3487.000000 0.8758 0.8758 0.8757 0.8757 0.8756
3492.000000 0.8756 0.8755 0.8755 0.8756 0.8757
3497.000000 0.8761 0.8765 0.8769 0.8773 0.8781
3502.000000 0.8790 0.8797 0.8804 0.8803 0.8803
3507.000000 0.8803 0.8803 0.8802 0.8802 0.8801
3512.000000 0.8801 0.8800 0.8800 0.8799 0.8799
3517.000000 0.8799 0.8799 0.8798 0.8798 0.8798
3522.000000 0.8798 0.8797 0.8797 0.8796 0.8796
3527.000000 0.8796 0.8797 0.8797 0.8797 0.8797
3532.000000 0.8798 0.8798 0.8798 0.8798 0.8799
3537.000000 0.8799 0.8799 0.8799 0.8800 0.8800
3542.000000 0.8801 0.8801 0.8801 0.8801 0.8802
3547.000000 0.8802 0.8803 0.8803 0.8803 0.8803
3552.000000 0.8804 0.8805 0.8806 0.8806 0.8807
3557.000000 0.8807 0.8808 0.8808 0.8809 0.8809
3562.000000 0.8810 0.8810 0.8811 0.8811 0.8811
3567.000000 0.8811 0.8812 0.8812 0.8812 0.8812
3572.000000 0.8813 0.8813 0.8813 0.8813 0.8814
3577.000000 0.8814 0.8814 0.8813 0.8812 0.8810
3582.000000 0.8809 0.8807 0.8806 0.8804 0.8803
3587.000000 0.8801 0.8800 0.8798 0.8797 0.8796
3592.000000 0.8795 0.8793 0.8792 0.8790 0.8789
3597.000000 0.8787 0.8786 0.8784 0.8783 0.8781
3602.000000 0.8780 0.8778 0.8777 0.8775 0.8773
3607.000000 0.8771 0.8770 0.8770 0.8770 0.8769
3612.000000 0.8769 0.8768 0.8768 0.8767 0.8767
3617.000000 0.8769 0.8772 0.8777 0.8783 0.8791
3622.000000 0.8800 0.8815 0.8830 0.8835 0.8840
3627.000000 0.8839 0.8838 0.8837 0.8837 0.8834
3632.000000 0.8831 0.8820 0.8809 0.8799 0.8789
3637.000000 0.8783 0.8777 0.8773 0.8770 0.8771
3642.000000 0.8773 0.8774 0.8775 0.8776 0.8777
3647.000000 0.8777 0.8778 0.8779 0.8780 0.8780
3652.000000 0.8781 0.8781 0.8782 0.8782 0.8783
3657.000000 0.8783 0.8783 0.8783 0.8784 0.8784
3662.000000 0.8784 0.8783 0.8783 0.8781 0.8780
3667.000000 0.8778 0.8777 0.8775 0.8774 0.8770
3672.000000 0.8766 0.8760 0.8755 0.8749 0.8744
3677.000000 0.8738 0.8733 0.8733 0.8733 0.8736
3682.000000 0.8740 0.8743 0.8747 0.8751 0.8755
3687.000000 0.8758 0.8762 0.8764 0.8766 0.8768
3692.000000 0.8770 0.8772 0.8775 0.8778 0.8781
3697.000000 0.8783 0.8786 0.8788 0.8791 0.8794
3702.000000 0.8797 0.8800 0.8803 0.8806 0.8810
3707.000000 0.8813 0.8817 0.8820 0.8823 0.8826
3712.000000 0.8830 0.8834 0.8839 0.8845 0.8852
3717.000000 0.8859 0.8866 0.8873 0.8880 0.8887
3722.000000 0.8894 0.8900 0.8906 0.8912 0.8918
3727.000000 0.8914 0.8911 0.8906 0.8901 0.8896
3732.000000 0.8891 0.8879 0.8868 0.8856 0.8845
3737.000000 0.8832 0.8820 0.8807 0.8795 0.8783
3742.000000 0.8771 0.8766 0.8762 0.8758 0.8754
3747.000000 0.8750 0.8747 0.8747 0.8747 0.8747
3752.000000 0.8747 0.8748 0.8749 0.8749 0.8750
3757.000000 0.8751 0.8752 0.8752 0.8753 0.8754
3762.000000 0.8755 0.8756 0.8757 0.8757 0.8758
3767.000000 0.8758 0.8759 0.8759 0.8760 0.8760
3772.000000 0.8761 0.8761 0.8762 0.8763 0.8765
3777.000000 0.8767 0.8769 0.8770 0.8772 0.8774
3782.000000 0.8776 0.8778 0.8780 0.8782 0.8784
3787.000000 0.8785 0.8787 0.8788 0.8789
##END=
