##TITLE=Vinylsulphonamide
##JCAMP-DX=4.24
##DATA TYPE=INFRARED SPECTRUM
##ORIGIN=EPA-IR VAPOR PHASE LIBRARY
##OWNER=SRD/NIST
Collection (C) 2018 copyright by the U.S. Secretary of Commerce
on behalf of the United States of America. All rights reserved.
##CAS REGISTRY NO=2386-58-5
##MOLFORM=C 2 H 5 O 2 S
##$NIST SOURCE=MSDC-IR
##STATE=gas
##XUNITS=1/CM
##YUNITS=ABSORBANCE
##XFACTOR=1.
##YFACTOR=0.001
##DELTAX=1.92898
##FIRSTX=549.8
##LASTX=4000.7
##FIRSTY=14.194
##MAXX=4000.7
##MINX=549.759
##MAXY=0.057344
##MINY=0
##NPOINTS=1790
##XYDATA=(X++(Y..Y))
549.759 14.194 14.174 14.274 13.964 12.964 12.004 12.074 11.904 11.334 10.684
569.049 9.294 8.204 7.564 7.014 6.944 6.634 6.744 6.874 6.534 6.364
588.339 6.214 5.994 5.404 5.084 5.364 5.744 5.894 5.684 5.824 5.704
607.628 5.444 5.534 5.224 5.354 5.714 5.534 5.874 6.584 6.584 6.514
626.918 6.444 6.604 7.014 7.034 6.984 7.044 7.424 7.814 7.814 7.804
646.208 8.094 8.194 8.004 7.934 8.164 8.194 7.954 7.654 7.394 7.334
665.498 7.144 6.854 6.554 6.264 6.454 6.704 6.034 5.554 6.044 6.264
684.787 6.254 6.494 6.584 6.834 7.324 7.774 8.274 8.834 9.054 9.244
704.077 9.894 10.614 11.004 11.304 11.674 12.084 12.404 12.284 12.114 12.414
723.367 12.564 12.234 11.904 11.654 11.494 10.974 10.214 9.884 9.504 8.844
742.657 8.404 8.014 7.694 7.514 7.184 6.964 6.904 6.714 6.674 6.664
761.947 6.434 6.214 6.384 6.264 5.944 6.014 6.004 5.914 5.724 5.654
781.236 5.874 6.144 6.224 6.004 5.884 6.124 6.194 6.224 6.584 6.784
800.526 6.704 6.804 6.894 7.214 7.104 6.954 7.334 7.364 7.734 8.204
819.816 8.224 8.744 9.274 9.224 9.734 10.654 11.004 11.484 11.964 12.664
839.106 13.694 14.334 14.994 15.674 16.444 17.204 17.854 18.444 19.024 19.714
858.395 20.424 20.984 21.354 21.314 21.094 20.944 20.824 20.254 19.514 19.284
877.685 18.914 17.974 16.794 15.654 14.334 13.434 12.874 11.964 11.014 10.344
896.975 9.514 8.314 7.764 7.334 6.494 6.074 5.594 4.994 4.544 4.384
916.265 4.334 3.994 3.754 3.794 3.904 3.844 3.754 3.784 3.864 4.034
935.555 4.124 4.394 4.894 5.254 5.704 6.344 7.144 7.544 7.424 7.704
954.844 8.144 8.374 8.904 9.554 10.104 10.404 10.614 11.034 10.924 10.054
974.134 9.074 8.324 7.784 7.384 6.774 6.044 5.654 5.304 4.644 4.024
993.424 3.704 3.264 2.684 2.744 2.474 1.954 2.134 2.094 1.874 1.784
1012.714 1.824 1.714 1.734 1.914 1.974 1.814 1.764 1.684 1.704 1.614
1032.003 1.2361 1.2896 1.374 1.2787 1.037 1.0557 1.201 1.394 1.694 1.724
1051.293 1.674 1.514 1.434 1.514 1.2919 1.1725 0.7661 0.162 0.4943 1.2766
1070.583 1.584 1.2811 0.6761 0.5398 0.7889 1.534 1.674 1.133 1.1031 0.633
1089.873 0.5068 1.1662 1.3339 0.987 1.0506 2.294 2.374 1.914 2.124 2.324
1109.163 2.234 1.1258 1.1645 1.444 1.784 1.944 2.054 2.664 2.524 2.724
1128.452 3.334 4.234 5.244 5.654 6.484 7.894 9.564 11.834 14.324 16.344
1147.742 18.754 22.014 24.594 26.724 28.624 30.354 32.364 34.744 37.544 39.854
1167.032 40.314 38.794 36.174 33.024 30.974 29.944 28.284 25.964 23.764 21.484
1186.322 18.464 15.844 13.224 10.044 7.904 7.004 5.774 4.054 3.374 2.874
1205.611 2.714 2.284 1.824 1.994 1.584 1.664 1.524 1.524 1.684 1.404
1224.901 1.2501 1.464 1.494 1.0576 1.2273 1.684 1.684 1.664 1.644 1.474
1244.191 1.2898 1.394 1.514 1.624 1.794 1.824 1.794 1.664 1.434 1.3108
1263.481 1.374 1.2865 1.374 1.614 1.444 1.1657 1.524 1.684 1.594 1.724
1282.771 1.924 1.934 1.664 1.704 1.764 1.774 1.774 1.724 1.634 1.574
1302.060 1.714 1.834 1.794 1.724 1.724 1.804 1.884 1.964 2.014 2.094
1321.350 2.174 2.364 2.594 2.794 3.064 3.334 3.674 4.084 4.444 4.894
1340.640 5.624 6.624 7.684 8.834 10.304 12.154 14.224 16.614 19.384 22.294
1359.930 25.474 29.014 32.504 35.794 39.034 42.154 44.954 47.544 50.344 53.124
1379.219 55.414 56.964 57.344 55.774 52.564 49.074 45.954 43.034 40.014 36.654
1398.509 33.074 29.354 25.544 21.784 18.174 14.834 11.964 9.694 7.814 6.314
1417.799 5.234 4.344 3.654 3.224 2.894 2.554 2.364 2.304 2.144 2.014
1437.089 1.964 1.924 1.844 1.794 1.694 1.654 1.634 1.514 1.474 1.514
1456.378 1.524 1.424 1.374 1.554 1.604 1.534 1.514 1.394 1.3292 1.414
1475.668 1.494 1.484 1.514 1.454 1.364 1.454 1.614 1.594 1.454 1.534
1494.958 1.674 1.624 1.654 1.794 1.834 1.904 1.994 2.134 2.264 2.374
1514.248 2.624 2.844 2.964 3.154 3.434 3.834 4.244 4.624 5.134 5.604
1533.538 5.894 6.274 6.674 7.004 7.334 7.744 8.044 8.204 8.354 8.384
1552.827 8.204 7.924 7.594 7.234 6.904 6.564 6.134 5.714 5.284 4.944
1572.117 4.624 4.064 3.444 3.024 2.694 2.484 2.284 2.014 1.804 1.704
1591.407 1.584 1.414 1.434 1.474 1.344 1.175 1.2064 1.1731 0.9716 1.0129
1610.697 1.0943 1.0435 0.9346 0.9393 1.0012 0.9483 0.9168 0.8807 0.8718 0.8348
1629.986 0.8625 0.9064 0.8457 0.7761 0.7184 0.7286 0.6349 0.5976 0.7489 0.7983
1649.276 0.7808 0.697 0.5459 0.622 0.7182 0.6609 0.5778 0.5182 0.5696 0.5839
1668.566 0.5521 0.5187 0.5349 0.5932 0.5881 0.5848 0.5534 0.5483 0.5982 0.6407
1687.856 0.6753 0.6617 0.6511 0.5269 0.4219 0.5113 0.5697 0.5857 0.5618 0.53
1707.146 0.5544 0.4777 0.38493 0.39021 0.4872 0.5018 0.4438 0.4647 0.4834 0.4626
1726.435 0.4929 0.5954 0.6259 0.6175 0.5058 0.4928 0.4538 0.4647 0.5909 0.5317
1745.725 0.4707 0.5054 0.5477 0.5163 0.5801 0.6205 0.4898 0.40454 0.4427 0.43314
1765.015 0.4617 0.5343 0.4724 0.42124 0.40508 0.38131 0.35541 0.3171 0.2882 0.37617
1784.305 0.4669 0.4577 0.42606 0.38584 0.40504 0.4369 0.36788 0.317 0.39218 0.4782
1803.594 0.4579 0.4553 0.4903 0.4627 0.4639 0.4764 0.474 0.5442 0.6307 0.5768
1822.884 0.5072 0.4498 0.39786 0.42367 0.455 0.4878 0.5531 0.5263 0.4603 0.4604
1842.174 0.4507 0.4704 0.4675 0.42394 0.4776 0.4994 0.4747 0.4403 0.4662 0.4878
1861.464 0.40184 0.36639 0.42983 0.5032 0.5984 0.6708 0.6981 0.6487 0.6209 0.6665
1880.754 0.6198 0.6777 0.699 0.6954 0.6762 0.6845 0.7333 0.7562 0.769 0.788
1900.043 0.8171 0.7604 0.8043 0.8655 0.8893 1.0129 1.0599 0.9746 1.0488 1.0377
1919.333 0.9435 1.0434 1.0398 1.0362 1.0586 1.0586 1.0272 1.0393 1.0719 1.0216
1938.623 0.9492 0.882 0.8418 0.7972 0.7858 0.7309 0.7382 0.6867 0.668 0.6739
1957.913 0.6015 0.6241 0.5998 0.5049 0.5041 0.4465 0.36273 0.42233 0.4545 0.42847
1977.202 0.41872 0.43395 0.544 0.6819 0.5696 0.5169 0.5612 0.5228 0.556 0.6222
1996.492 0.6173 0.5168 0.5339 0.5394 0.4693 0.42457 0.35604 0.40157 0.42586 0.5199
2015.782 0.5948 0.5328 0.531 0.5408 0.5576 0.5496 0.4738 0.4338 0.4653 0.4744
2035.072 0.484 0.4707 0.42887 0.41738 0.42202 0.42773 0.476 0.514 0.4966 0.39687
2054.362 0.38483 0.4743 0.4823 0.41989 0.4623 0.4695 0.4873 0.5384 0.5032 0.4706
2073.651 0.39677 0.464 0.5127 0.43189 0.4506 0.40377 0.339653 0.5037 0.6409 0.5984
2092.941 0.611 0.5438 0.4739 0.494 0.42373 0.4854 0.589 0.5936 0.6775 0.7176
2112.231 0.6292 0.5299 0.5131 0.5726 0.5409 0.4681 0.489 0.5612 0.5457 0.4101
2131.521 0.376 0.41981 0.39883 0.4289 0.4932 0.5519 0.5296 0.4512 0.4747 0.4932
2150.810 0.42617 0.4625 0.5101 0.4771 0.4817 0.4464 0.4779 0.5425 0.4627 0.41426
2170.100 0.4237 0.41535 0.4433 0.4297 0.39976 0.4596 0.4604 0.41331 0.4759 0.4865
2189.390 0.4759 0.4363 0.2916 0.2428 0.2542 0.2586 0.2395 0.2569 0.3047 0.2864
2208.680 0.2606 0.37932 0.42866 0.4701 0.5211 0.5093 0.4802 0.338936 0.342184 0.4393
2227.970 0.4773 0.38206 0.38862 0.38126 0.2872 0.35835 0.43178 0.35851 0.3219 0.37385
2247.259 0.4007 0.35627 0.35524 0.4559 0.4625 0.39268 0.3818 0.40336 0.4769 0.6016
2266.549 0.5793 0.5472 0.5602 0.557 0.5341 0.5292 0.4824 0.4461 0.4852 0.43368
2285.839 0.441 0.5027 0.4763 0.39787 0.38674 0.4571 0.41846 0.35044 0.36858 0.38246
2305.129 0.40343 0.4406 0.4709 0.4827 0.43295 0.441 0.513 0.5931 0.6497 0.5916
2324.418 0.5448 0.5419 0.5076 0.42324 0.42377 0.4898 0.4972 0.5289 0.4781 0.340378
2343.708 0.41875 0.5665 0.4827 0.38875 0.41673 0.4516 0.36361 0.38653 0.4459 0.40612
2362.998 0.4628 0.4587 0.41893 0.34563 0.2936 0.2936 0.3004 0.3021 0.338254 0.42555
2382.288 0.3587 0.2835 0.34816 0.36182 0.35292 0.42788 0.42547 0.335432 0.2885 0.35612
2401.578 0.40254 0.38418 0.42242 0.4463 0.41097 0.41156 0.4976 0.5621 0.43376 0.39885
2420.867 0.5396 0.5349 0.4347 0.4876 0.5397 0.5233 0.5736 0.5614 0.512 0.443
2440.157 0.478 0.4765 0.4643 0.5589 0.519 0.40339 0.340877 0.38921 0.39915 0.35352
2459.447 0.35748 0.36573 0.40141 0.38988 0.4344 0.42268 0.4537 0.4718 0.3146 0.39296
2478.737 0.4447 0.4596 0.39059 0.34902 0.4706 0.5033 0.4675 0.4904 0.5047 0.40513
2498.026 0.4882 0.5151 0.5175 0.5869 0.6158 0.6796 0.5663 0.3772 0.4761 0.5156
2517.316 0.4947 0.5351 0.5655 0.6842 0.6758 0.5814 0.6398 0.6553 0.5641 0.6614
2536.606 0.8199 0.788 0.6996 0.6873 0.7511 0.8091 0.6926 0.5805 0.5534 0.6227
2555.896 0.715 0.6838 0.671 0.5762 0.4954 0.5329 0.487 0.42278 0.498 0.4817
2575.186 0.3045 0.2812 0.35429 0.41023 0.37662 0.35794 0.39356 0.4368 0.5389 0.5658
2594.475 0.6068 0.6285 0.5901 0.5104 0.34813 0.201 0.209 0.3037 0.40569 0.5037
2613.765 0.4812 0.41987 0.4965 0.5435 0.4741 0.4392 0.4757 0.574 0.5441 0.4501
2633.055 0.337079 0.33927 0.4837 0.4951 0.4801 0.529 0.4164 0.2806 0.2658 0.3025
2652.345 0.41345 0.5261 0.5297 0.5009 0.32976 0.239 0.4665 0.5679 0.4905 0.4533
2671.634 0.42555 0.41753 0.4776 0.453 0.35119 0.37298 0.38171 0.2709 0.2441 0.2928
2690.924 0.3189 0.2738 0.3717 0.4531 0.4461 0.4401 0.33297 0.2742 0.3104 0.37362
2710.214 0.35364 0.35741 0.4963 0.5319 0.4583 0.39793 0.2996 0.341733 0.337395 0.2345
2729.504 0.3055 0.38108 0.336843 0.2705 0.2731 0.4895 0.684 0.64 0.4875 0.4573
2748.794 0.41027 0.3216 0.3216 0.34984 0.40281 0.2882 0.2572 0.2767 0.195 0.2599
2768.083 0.4444 0.4843 0.40406 0.40543 0.36757 0.335017 0.2996 0.298 0.38135 0.40569
2787.373 0.234 0.044 0.117 0.315 0.39841 0.4649 0.498 0.40189 0.34716 0.2419
2806.663 0.207 0.35842 0.40565 0.340159 0.2585 0.2382 0.39371 0.6006 0.4984 0.2902
2825.953 0.2702 0.21 0.18 0.269 0.43243 0.41465 0.32451 0.3193 0.2414 0.11
2845.242 0.127 0.141 0.2656 0.40541 0.38735 0.32856 0.225 0.282 0.43031 0.4598
2864.532 0.43345 0.523 0.4671 0.40364 0.5203 0.37901 0.162 0.225 0.336 0.40086
2883.822 0.4579 0.471 0.38446 0.42121 0.6663 0.7061 0.5822 0.39311 0.3139 0.39926
2903.112 0.265 0.32971 0.3031 0.2769 0.42489 0.3032 0.19 0.178 0.106 0.152
2922.401 0.196 0.2475 0.5634 0.5677 0.3824 0.34919 0.2889 0.2658 0.215 0.236
2941.691 0.4471 0.517 0.4776 0.38862 0.4383 0.39321 0.3167 0.4488 0.5097 0.4427
2960.981 0.35798 0.5147 0.6884 0.7183 0.6448 0.5847 0.5557 0.5248 0.4456 0.343251
2980.271 0.4078 0.573 0.6469 0.6153 0.5651 0.5654 0.6037 0.5788 0.5777 0.6561
2999.561 0.6734 0.565 0.36396 0.2548 0.343425 0.6075 0.6906 0.6851 0.8537 1.0302
3018.850 1.1117 1.0346 1.0518 1.1286 1.1904 1.1507 1.1609 1.237 1.2273 1.2366
3038.140 1.1521 1.0238 0.896 0.989 0.9899 0.8918 1.0818 0.9643 0.6046 0.5659
3057.430 0.7184 0.6095 0.5525 0.7469 0.5536 0.41517 0.5795 0.595 0.5905 0.6186
3076.720 0.534 0.39154 0.4966 0.6493 0.7099 0.7142 0.6816 0.5984 0.5922 0.5851
3096.009 0.4586 0.37516 0.4117 0.6854 0.9929 0.868 0.7765 0.8818 0.872 0.662
3115.299 0.4692 0.4922 0.36321 0.42453 0.4679 0.5111 0.40983 0.34575 0.5217 0.5926
3134.589 0.5679 0.6011 0.7033 0.6282 0.5102 0.3178 0.168 0.23 0.41139 0.36995
3153.879 0.232 0.32934 0.34892 0.178 0.225 0.4462 0.42301 0.304 0.298 0.149
3173.169 0.38333 0.5949 0.5504 0.7674 0.8215 0.8171 0.8229 0.6237 0.41486 0.5128
3192.458 0.5224 0.36444 0.3045 0.4667 0.6887 0.5919 0.3148 0.32979 0.43197 0.4956
3211.748 0.5518 0.494 0.5806 0.6601 0.5704 0.34664 0.337979 0.4607 0.4991 0.52
3231.038 0.4357 0.4649 0.6213 0.5322 0.5175 0.6058 0.5801 0.5726 0.6763 0.7865
3250.328 0.7036 0.7454 0.8042 0.7043 0.8896 1.0984 0.9972 0.8095 0.7464 0.6356
3269.617 0.6368 0.8048 0.847 0.6692 0.58 0.7278 0.7559 0.6714 0.7084 0.7878
3288.907 0.5858 0.5693 0.65 0.6695 0.763 0.7327 0.6362 0.6636 0.7248 0.6731
3308.197 0.7155 0.8676 0.752 0.6458 0.7679 0.7838 0.6304 0.5317 0.6822 1.0522
3327.487 1.0567 1.056 1.2612 1.344 1.604 1.724 1.824 1.884 1.994 2.224
3346.777 2.414 2.784 3.224 3.694 4.144 4.514 4.804 5.144 5.984 6.614
3366.066 6.814 7.144 7.304 7.464 7.624 7.694 7.644 7.454 7.244 6.984
3385.356 6.574 6.114 5.894 5.624 5.024 4.534 4.224 3.794 3.394 3.224
3404.646 2.874 2.394 2.134 1.884 1.754 1.804 1.644 1.534 1.434 1.3078
3423.936 1.334 1.364 1.514 1.464 1.424 1.474 1.664 1.824 1.974 2.364
3443.225 2.664 2.804 2.984 3.394 3.824 4.034 4.334 4.714 5.004 5.344
3462.515 5.534 5.774 6.394 6.594 6.714 7.044 6.864 6.734 6.874 6.824
3481.805 6.624 6.444 6.144 6.074 6.074 5.624 5.214 4.944 4.594 4.194
3501.095 4.054 3.924 3.594 3.334 3.064 2.824 2.824 2.644 2.164 2.024
3520.385 1.974 1.774 1.574 1.2381 1.037 0.9991 1.0491 1.0637 1.063 1.0152
3539.674 1.02 1.1773 1.011 0.7919 0.699 0.8487 0.8171 0.7632 0.7411 0.7498
3558.964 0.9218 0.9108 0.604 0.43002 0.5659 0.5816 0.4757 0.4781 0.6242 0.6589
3578.254 0.6757 0.6224 0.39993 0.467 0.7003 0.7353 0.5376 0.4359 0.6591 0.8943
3597.544 0.8802 0.7718 0.6624 0.5295 0.74 0.7794 0.5923 0.5151 0.5032 0.6422
3616.833 0.7419 0.714 0.5638 0.39135 0.2973 0.5389 0.6011 0.32544 0.497 0.8017
3636.123 0.6018 0.6016 0.655 0.4474 0.5643 0.752 0.8089 0.6262 0.6351 0.7784
3655.413 0.7904 0.6257 0.5106 0.4456 0.5614 0.6732 0.4518 0.513 0.6862 0.6176
3674.703 0.42226 0.4489 0.8226 0.9035 0.5475 0.4742 0.6614 0.5111 0.4773 0.5878
3693.993 0.5396 0.6645 0.574 0.4461 0.4973 0.4856 0.5307 0.5879 0.5154 0.4882
3713.282 0.4856 0.434 0.38223 0.4495 0.5734 0.4363 0.36267 0.4492 0.4476 0.5739
3732.572 0.612 0.5128 0.5068 0.42809 0.32557 0.2373 0.2833 0.2391 0.37964 0.5463
3751.862 0.49 0.32533 0.221 0.35672 0.3048 0.3841 0.342074 0.203 0.2669 0.34828
3771.152 0.4594 0.5113 0.35829 0.3931 0.5049 0.5282 0.5262 0.216 0.156 0.5256
3790.441 0.6689 0.6942 0.6432 0.4465 0.3098 0.261 0.4436 0.571 0.624 0.5479
3809.731 0.4597 0.4817 0.4906 0.6523 0.6171 0.38054 0.2989 0.206 0.2864 0.4885
3829.021 0.38864 0.35874 0.4753 0.36228 0.4725 0.6811 0.5282 0.37095 0.42408 0.4568
3848.311 0.333435 0.32493 0.2622 0.2669 0.3047 0.205 0.026 0 0.34714 0.42232
3867.601 0.41204 0.4441 0.4482 0.3205 0.136 0.207 0.35971 0.39195 0.5001 0.6726
3886.890 0.6351 0.5946 0.6323 0.47 0.41148 0.5231 0.493 0.8077 0.8662 0.4653
3906.180 0.4604 0.5874 0.5047 0.2819 0.436 0.6527 0.5232 0.39793 0.166 0.28
3925.470 0.5513 0.4879 0.41811 0.4354 0.37037 0.2349 0.3022 0.2906 0.2698 0.5768
3944.760 0.7731 0.6521 0.5453 0.37818 0.3917 0.6505 0.5901 0.5632 0.5559 0.4651
3964.049 0.5355 0.5626 0.6254 0.6424 0.42559 0.4732 0.5402 0.6164 0.6909 0.41032
3983.339 0.41046 0.5725 0.5679 0.42027 0.35599 0.37317 0.4492 0.502 0.5892 0.4393
##END=
