##TITLE=PROPENE, 1,1,3-TRICHLORO-
##JCAMP-DX=4.24
##DATA TYPE=INFRARED SPECTRUM
##CLASS=COBLENTZ III
##ORIGIN=DOW CORNING CORP.
##OWNER=COBLENTZ SOCIETY
Collection (C) 2018 copyright by the U.S. Secretary of Commerce
on behalf of the United States of America. All rights reserved.
##DATE=1966
##NAMES=1,1,3-trichloro-1-propene
##CAS REGISTRY NO=2567-14-8
##MOLFORM=C3 H3 Cl3
##BP=51 C AT 18 mmHg
##SOURCE REFERENCE=COBLENTZ NO. 4787
##$NIST SOURCE=COBLENTZ
##$NIST IMAGE=cob4787
##SPECTROMETER/DATA SYSTEM=PERKIN-ELMER 521 (GRATING)
##INSTRUMENT PARAMETERS=FILTERS AT 3150, 2500, 2000, 1150, 700, 410; GRATING CHANGES AT 2000, 630 CM^-^1
##STATE=SOLUTION (10% IN CCl4 FOR 3800-1300, 10% IN CS2 FOR 1300-620, AND 10% CCl4 FOR 620-240 CM^-^1) VERSUS SOLVENT
##PATH LENGTH=0.012, 0.011, AND 0.010 CM (CsBr CELL)
$$ 99% PURE BY GLC; STRUCTURE VERIFIED BY ELEMENTAL, NMR; RI 1.4535 AT 25 C
##SAMPLING PROCEDURE=TRANSMISSION
##RESOLUTION=4
##DATA PROCESSING=DIGITIZED BY NIST FROM HARD COPY (FROM TWO SEGMENTS)
##XUNITS=1/CM
##YUNITS=TRANSMITTANCE
##XFACTOR=1.000000
##YFACTOR=1
##DELTAX=0.984686
##FIRSTX=239.387
##LASTX=3795.09
##FIRSTY=0.766
##MAXX=3795.09
##MINX=239.387
##MAXY=0.895
##MINY=0.0460084
##NPOINTS=3612
##XYDATA=(X++(Y..Y))
239.387000 0.7660 0.7750 0.7810 0.7830 0.7850
244.310428 0.7860 0.7870 0.7870 0.7870 0.7910
249.233856 0.7930 0.7940 0.7940 0.7950 0.7970
254.157284 0.7980 0.8000 0.8040 0.8060 0.8060
259.080712 0.8080 0.8090 0.8090 0.8100 0.8100
264.004140 0.8120 0.8120 0.8130 0.8130 0.8140
268.927568 0.8160 0.8170 0.8180 0.8210 0.8210
273.850996 0.8200 0.8200 0.8200 0.8210 0.8220
278.774424 0.8220 0.8240 0.8240 0.8250 0.8260
283.697852 0.8260 0.8260 0.8260 0.8260 0.8280
288.621280 0.8290 0.8320 0.8360 0.8400 0.8440
293.544709 0.8490 0.8530 0.8550 0.8570 0.8590
298.468137 0.8610 0.8610 0.8630 0.8640 0.8650
303.391565 0.8650 0.8650 0.8670 0.8670 0.8670
308.314993 0.8680 0.8680 0.8690 0.8690 0.8710
313.238421 0.8720 0.8720 0.8730 0.8750 0.8790
318.161849 0.8810 0.8810 0.8830 0.8830 0.8840
323.085277 0.8840 0.8840 0.8840 0.8850 0.8850
328.008705 0.8850 0.8840 0.8840 0.8810 0.8810
332.932133 0.8800 0.8790 0.8790 0.8770 0.8770
337.855561 0.8760 0.8750 0.8750 0.8750 0.8750
342.778989 0.8750 0.8760 0.8790 0.8810 0.8870
347.702417 0.8880 0.8890 0.8910 0.8910 0.8920
352.625845 0.8920 0.8920 0.8910 0.8910 0.8890
357.549273 0.8890 0.8880 0.8880 0.8880 0.8880
362.472701 0.8870 0.8870 0.8870 0.8870 0.8870
367.396129 0.8870 0.8870 0.8870 0.8870 0.8870
372.319557 0.8850 0.8850 0.8850 0.8850 0.8830
377.242985 0.8830 0.8810 0.8800 0.8800 0.8810
382.166413 0.8810 0.8800 0.8770 0.8760 0.8750
387.089841 0.8750 0.8720 0.8710 0.8690 0.8670
392.013269 0.8670 0.8670 0.8650 0.8650 0.8650
396.936698 0.8650 0.8640 0.8610 0.8590 0.8590
401.860126 0.8570 0.8570 0.8570 0.8570 0.8560
406.783554 0.8560 0.8560 0.8550 0.8550 0.8460
411.706982 0.8440 0.8440 0.8440 0.8440 0.8420
416.630410 0.8420 0.8380 0.8360 0.8280 0.8240
421.553838 0.8220 0.8210 0.8170 0.8090 0.8040
426.477266 0.8010 0.7970 0.7900 0.7780 0.7730
431.400694 0.7650 0.7590 0.7570 0.7470 0.7420
436.324122 0.7260 0.7160 0.7100 0.7040 0.6990
441.247550 0.6960 0.6930 0.6930 0.6920 0.6930
446.170978 0.6950 0.7020 0.7080 0.7140 0.7230
451.094406 0.7310 0.7400 0.7430 0.7530 0.7610
456.017834 0.7620 0.7630 0.7660 0.7670 0.7700
460.941262 0.7740 0.7750 0.7750 0.7750 0.7750
465.864690 0.7750 0.7730 0.7690 0.7610 0.7580
470.788118 0.7480 0.7440 0.7380 0.7270 0.7180
475.711546 0.7000 0.6810 0.6650 0.6530 0.6400
480.634974 0.6320 0.6180 0.6130 0.6120 0.6130
485.558402 0.6220 0.6340 0.6380 0.6410 0.6480
490.481830 0.6560 0.6680 0.6839 0.6989 0.7139
495.405258 0.7220 0.7260 0.7400 0.7480 0.7550
500.328687 0.7590 0.7690 0.7770 0.7780 0.7820
505.252115 0.7890 0.7930 0.7970 0.7970 0.7980
510.175543 0.8060 0.8080 0.8090 0.8100 0.8130
515.098971 0.8140 0.8160 0.8160 0.8170 0.8170
520.022399 0.8180 0.8180 0.8200 0.8200 0.8200
524.945827 0.8210 0.8210 0.8210 0.8220 0.8240
529.869255 0.8250 0.8250 0.8250 0.8260 0.8280
534.792683 0.8290 0.8290 0.8300 0.8300 0.8300
539.716111 0.8300 0.8290 0.8290 0.8280 0.8280
544.639539 0.8260 0.8260 0.8260 0.8260 0.8280
549.562967 0.8280 0.8280 0.8280 0.8290 0.8290
554.486395 0.8300 0.8300 0.8300 0.8300 0.8300
559.409823 0.8300 0.8320 0.8320 0.8320 0.8320
564.333251 0.8320 0.8320 0.8320 0.8300 0.8300
569.256679 0.8300 0.8300 0.8290 0.8290 0.8280
574.180107 0.8280 0.8260 0.8240 0.8220 0.8200
579.103535 0.8170 0.8140 0.8120 0.8050 0.8000
584.026963 0.7890 0.7860 0.7850 0.7830 0.7580
588.950391 0.7310 0.7061 0.6801 0.6551 0.6291
593.873819 0.6040 0.5570 0.5340 0.5120 0.4910
598.797247 0.4690 0.4331 0.4300 0.4320 0.4559
603.720676 0.4770 0.5140 0.5420 0.5670 0.5770
608.644104 0.5930 0.6169 0.6320 0.6410 0.6460
613.567532 0.6510 0.6520 0.6530 0.6550 0.6570
618.490960 0.6610 0.6650 0.6730 0.6790 0.6850
623.414388 0.6890 0.6930 0.6930 0.6950 0.7030
628.337816 0.7100 0.7200 0.7310 0.7380 0.7390
633.261244 0.7430 0.7500 0.7540 0.7570 0.7590
638.184672 0.7630 0.7650 0.7670 0.7700 0.7740
643.108100 0.7740 0.7770 0.7780 0.7790 0.7790
648.031528 0.7810 0.7810 0.7820 0.7820 0.7820
652.954956 0.7820 0.7820 0.7820 0.7820 0.7820
657.878384 0.7810 0.7790 0.7780 0.7750 0.7700
662.801812 0.7620 0.7590 0.7540 0.7470 0.7460
667.725240 0.7440 0.7420 0.7390 0.7320 0.7240
672.648668 0.7190 0.7100 0.7020 0.6930 0.6890
677.572096 0.6890 0.6591 0.6371 0.6290 0.6171
682.495524 0.6160 0.6050 0.5830 0.5570 0.5440
687.418952 0.5280 0.5120 0.4951 0.4801 0.4651
692.342380 0.4570 0.4550 0.4450 0.4410 0.4400
697.265808 0.4400 0.4410 0.4460 0.4530 0.4749
702.189236 0.4800 0.4840 0.4870 0.4990 0.5100
707.112665 0.5200 0.5300 0.5440 0.5580 0.5700
712.036093 0.5750 0.5870 0.5940 0.6010 0.6080
716.959521 0.6140 0.6210 0.6280 0.6340 0.6410
721.882949 0.6480 0.6530 0.6650 0.6730 0.6810
726.806377 0.6870 0.6920 0.6970 0.7040 0.7070
731.729805 0.7100 0.7140 0.7190 0.7270 0.7340
736.653233 0.7420 0.7430 0.7540 0.7660 0.7770
741.576661 0.7780 0.7820 0.7850 0.7890 0.7900
746.500089 0.7930 0.7970 0.8040 0.8130 0.8170
751.423517 0.8180 0.8200 0.8220 0.8250 0.8280
756.346945 0.8300 0.8300 0.8320 0.8330 0.8340
761.270373 0.8340 0.8340 0.8340 0.8340 0.8330
766.193801 0.8330 0.8320 0.8300 0.8250 0.8200
771.117229 0.8130 0.8100 0.8100 0.8090 0.8080
776.040657 0.8060 0.8060 0.8050 0.8040 0.8020
780.964085 0.8010 0.7970 0.7940 0.7850 0.7810
785.887513 0.7790 0.7770 0.7750 0.7700 0.7571
790.810941 0.7530 0.7480 0.7440 0.7390 0.7310
795.734369 0.7260 0.7240 0.7031 0.7000 0.6970
800.657797 0.6920 0.6800 0.6690 0.6600 0.6510
805.581225 0.6420 0.6330 0.6240 0.6120 0.6000
810.504654 0.5850 0.5670 0.5470 0.5300 0.5260
815.428082 0.5030 0.4810 0.4710 0.4411 0.4181
820.351510 0.3949 0.3590 0.3550 0.3470 0.3390
825.274938 0.3300 0.3200 0.3120 0.3040 0.2990
830.198366 0.2970 0.2990 0.3060 0.3110 0.3220
835.121794 0.3340 0.3460 0.3540 0.3630 0.3849
840.045222 0.4000 0.4130 0.4140 0.4220 0.4220
844.968650 0.4180 0.4100 0.4020 0.3950 0.3850
849.892078 0.3820 0.3630 0.3300 0.3180 0.2870
854.815506 0.2640 0.2480 0.2251 0.2081 0.1701
859.738934 0.1300 0.1270 0.1140 0.1030 0.1000
864.662362 0.0990 0.0990 0.1000 0.1030 0.1259
869.585790 0.1300 0.1380 0.1460 0.1530 0.1730
874.509218 0.2060 0.2260 0.2490 0.2689 0.3039
879.432646 0.3401 0.3730 0.4020 0.4280 0.4530
884.356074 0.4750 0.4960 0.5150 0.5339 0.5529
889.279502 0.5700 0.5870 0.6130 0.6180 0.6290
894.202930 0.6370 0.6450 0.6490 0.6550 0.6610
899.126358 0.6630 0.6650 0.6650 0.6670 0.6670
904.049786 0.6680 0.6690 0.6710 0.6720 0.6800
908.973214 0.6880 0.6960 0.7100 0.7110 0.7140
913.896643 0.7140 0.7140 0.7140 0.7140 0.7120
918.820071 0.7120 0.7100 0.7070 0.7000 0.6970
923.743499 0.6840 0.6750 0.6630 0.6520 0.6420
928.666927 0.6280 0.6060 0.5710 0.5620 0.5340
933.590355 0.5160 0.4810 0.4371 0.4091 0.3901
938.513783 0.3689 0.3349 0.2770 0.2120 0.1830
943.437211 0.1820 0.1830 0.1930 0.2000 0.2120
948.360639 0.2491 0.3341 0.4100 0.4730 0.5180
953.284067 0.5390 0.5849 0.6199 0.6509 0.6769
958.207495 0.7070 0.7380 0.7670 0.7730 0.7810
963.130923 0.7950 0.8140 0.8180 0.8240 0.8290
968.054351 0.8290 0.8370 0.8510 0.8530 0.8550
972.977779 0.8560 0.8560 0.8590 0.8600 0.8630
977.901207 0.8640 0.8680 0.8720 0.8730 0.8750
982.824635 0.8760 0.8790 0.8810 0.8830 0.8830
987.748063 0.8840 0.8840 0.8870 0.8880 0.8890
992.671491 0.8910 0.8910 0.8910 0.8910 0.8910
997.594919 0.8910 0.8910 0.8890 0.8890 0.8890
1002.518347 0.8880 0.8880 0.8870 0.8870 0.8870
1007.441775 0.8870 0.8870 0.8870 0.8850 0.8850
1012.365204 0.8850 0.8840 0.8830 0.8830 0.8810
1017.288632 0.8810 0.8760 0.8720 0.8710 0.8680
1022.212060 0.8670 0.8650 0.8640 0.8630 0.8630
1027.135488 0.8610 0.8600 0.8550 0.8520 0.8520
1032.058916 0.8510 0.8520 0.8550 0.8560 0.8590
1036.982344 0.8600 0.8610 0.8600 0.8570 0.8550
1041.905772 0.8530 0.8480 0.8450 0.8440 0.8410
1046.829200 0.8370 0.8330 0.8290 0.8250 0.8210
1051.752628 0.8180 0.8140 0.8120 0.8020 0.7890
1056.676056 0.7770 0.7740 0.7550 0.7400 0.7180
1061.599484 0.6990 0.6870 0.6730 0.6600 0.6181
1066.522912 0.5859 0.5550 0.5460 0.5220 0.5220
1071.446340 0.5770 0.5780 0.6239 0.6639 0.6929
1076.369768 0.7470 0.7650 0.7750 0.8100 0.8260
1081.293196 0.8300 0.8360 0.8450 0.8520 0.8550
1086.216624 0.8560 0.8630 0.8710 0.8720 0.8760
1091.140052 0.8770 0.8770 0.8790 0.8810 0.8830
1096.063480 0.8840 0.8840 0.8850 0.8850 0.8870
1100.986908 0.8870 0.8870 0.8880 0.8880 0.8870
1105.910336 0.8870 0.8840 0.8830 0.8830 0.8800
1110.833764 0.8760 0.8730 0.8720 0.8720 0.8680
1115.757193 0.8630 0.8510 0.8450 0.8420 0.8370
1120.680621 0.8330 0.8300 0.8260 0.8250 0.8240
1125.604049 0.8250 0.8280 0.8370 0.8420 0.8460
1130.527477 0.8510 0.8560 0.8600 0.8640 0.8650
1135.450905 0.8680 0.8690 0.8710 0.8720 0.8720
1140.374333 0.8720 0.8720 0.8720 0.8710 0.8710
1145.297761 0.8690 0.8680 0.8670 0.8610 0.8590
1150.221189 0.8530 0.8420 0.8370 0.8330 0.8320
1155.144617 0.8210 0.8100 0.8010 0.7900 0.7770
1160.068045 0.7550 0.7140 0.6920 0.6710 0.6510
1164.991473 0.6259 0.5969 0.5579 0.5140 0.4610
1169.914901 0.4100 0.4080 0.4080 0.4090 0.4210
1174.838329 0.4281 0.4531 0.4850 0.4970 0.5190
1179.761757 0.5510 0.5910 0.6289 0.6599 0.6750
1184.685185 0.7000 0.7180 0.7380 0.7480 0.7610
1189.608613 0.7900 0.8050 0.8130 0.8160 0.8180
1194.532041 0.8220 0.8250 0.8320 0.8330 0.8380
1199.455469 0.8410 0.8420 0.8420 0.8440 0.8440
1204.378897 0.8440 0.8420 0.8420 0.8410 0.8400
1209.302325 0.8370 0.8360 0.8340 0.8340 0.8330
1214.225753 0.8320 0.8320 0.8280 0.8260 0.8180
1219.149182 0.8130 0.8120 0.8020 0.7970 0.7910
1224.072610 0.7790 0.7700 0.7630 0.7590 0.7530
1228.996038 0.7310 0.7100 0.6970 0.6720 0.6401
1233.919466 0.5999 0.5549 0.5099 0.4650 0.4250
1238.842894 0.3890 0.3320 0.2761 0.1612 0.1580
1243.766322 0.1611 0.2000 0.2221 0.2910 0.3590
1248.689750 0.4680 0.5509 0.6119 0.6559 0.6849
1253.613178 0.7081 0.7241 0.7500 0.7630 0.7740
1258.536606 0.7860 0.7870 0.7890 0.7890 0.7870
1263.460034 0.7860 0.7850 0.7810 0.7770 0.7730
1268.383462 0.7700 0.7670 0.7650 0.7620 0.7550
1273.306890 0.7430 0.7350 0.7260 0.7140 0.7000
1278.230318 0.6790 0.6630 0.6460 0.6280 0.6250
1283.153746 0.6250 0.6260 0.6300 0.6340 0.6380
1288.077174 0.6420 0.6530 0.6650 0.6730 0.6800
1293.000602 0.6810 0.6830 0.6870 0.6880 0.6910
1297.924030 0.7070 0.7260 0.7430 0.7550 0.7590
1302.847458 0.7700 0.7790 0.7900 0.7970 0.8040
1307.770886 0.8050 0.8200 0.8280 0.8320 0.8340
1312.694314 0.8360 0.8400 0.8410 0.8440 0.8460
1317.617742 0.8460 0.8510 0.8520 0.8550 0.8560
1322.541171 0.8570 0.8570 0.8590 0.8590 0.8590
1327.464599 0.8600 0.8600 0.8600 0.8600 0.8600
1332.388027 0.8590 0.8590 0.8590 0.8570 0.8560
1337.311455 0.8560 0.8560 0.8560 0.8550 0.8550
1342.234883 0.8530 0.8530 0.8530 0.8530 0.8550
1347.158311 0.8550 0.8570 0.8570 0.8590 0.8600
1352.081739 0.8610 0.8610 0.8630 0.8630 0.8630
1357.005167 0.8630 0.8630 0.8640 0.8640 0.8640
1361.928595 0.8650 0.8650 0.8670 0.8680 0.8680
1366.852023 0.8690 0.8690 0.8710 0.8710 0.8720
1371.775451 0.8720 0.8730 0.8730 0.8730 0.8730
1376.698879 0.8720 0.8710 0.8710 0.8720 0.8730
1381.622307 0.8750 0.8750 0.8750 0.8750 0.8750
1386.545735 0.8750 0.8750 0.8750 0.8750 0.8750
1391.469163 0.8730 0.8730 0.8730 0.8720 0.8720
1396.392591 0.8710 0.8690 0.8690 0.8680 0.8680
1401.316019 0.8670 0.8670 0.8650 0.8650 0.8650
1406.239447 0.8650 0.8650 0.8650 0.8630 0.8610
1411.162875 0.8600 0.8590 0.8570 0.8570 0.8570
1416.086303 0.8560 0.8550 0.8530 0.8530 0.8520
1421.009731 0.8510 0.8420 0.8360 0.8320 0.8280
1425.933160 0.8180 0.8130 0.8050 0.7940 0.7820
1430.856588 0.7660 0.7570 0.7459 0.7229 0.6970
1435.780016 0.6710 0.6400 0.6050 0.5650 0.5340
1440.703444 0.5200 0.5201 0.5471 0.5981 0.6601
1445.626872 0.7060 0.7280 0.7440 0.7710 0.7980
1450.550300 0.8130 0.8220 0.8290 0.8320 0.8330
1455.473728 0.8340 0.8360 0.8370 0.8370 0.8380
1460.397156 0.8400 0.8420 0.8420 0.8480 0.8520
1465.320584 0.8530 0.8530 0.8550 0.8560 0.8570
1470.244012 0.8590 0.8600 0.8610 0.8630 0.8630
1475.167440 0.8640 0.8640 0.8650 0.8650 0.8670
1480.090868 0.8670 0.8670 0.8670 0.8670 0.8670
1485.014296 0.8650 0.8650 0.8650 0.8650 0.8650
1489.937724 0.8650 0.8650 0.8650 0.8670 0.8670
1494.861152 0.8670 0.8670 0.8650 0.8650 0.8650
1499.784580 0.8640 0.8640 0.8640 0.8630 0.8630
1504.708008 0.8630 0.8610 0.8610 0.8600 0.8600
1509.631436 0.8590 0.8590 0.8590 0.8590 0.8590
1514.554864 0.8570 0.8560 0.8560 0.8550 0.8550
1519.478292 0.8530 0.8530 0.8520 0.8510 0.8510
1524.401720 0.8510 0.8480 0.8450 0.8450 0.8440
1529.325149 0.8440 0.8420 0.8410 0.8380 0.8360
1534.248577 0.8330 0.8330 0.8320 0.8300 0.8290
1539.172005 0.8260 0.8250 0.8220 0.8210 0.8180
1544.095433 0.8180 0.8170 0.8170 0.8170 0.8180
1549.018861 0.8180 0.8180 0.8180 0.8200 0.8210
1553.942289 0.8210 0.8240 0.8250 0.8260 0.8260
1558.865717 0.8290 0.8290 0.8290 0.8280 0.8280
1563.789145 0.8280 0.8260 0.8260 0.8260 0.8260
1568.712573 0.8250 0.8250 0.8250 0.8240 0.8210
1573.636001 0.8200 0.8170 0.8160 0.8140 0.8120
1578.559429 0.8080 0.8050 0.7970 0.7870 0.7790
1583.482857 0.7710 0.7690 0.7670 0.7630 0.7610
1588.406285 0.7570 0.7510 0.7460 0.7400 0.7350
1593.329713 0.7300 0.7270 0.7260 0.7260 0.7240
1598.253141 0.7180 0.7040 0.6920 0.6810 0.6730
1603.176569 0.6600 0.6440 0.6240 0.6010 0.5711
1608.099997 0.5507 0.4789 0.4408 0.3820 0.3649
1613.023425 0.3280 0.2959 0.2240 0.1690 0.1440
1617.946853 0.1199 0.0959 0.0719 0.0480 0.0460
1622.870281 0.0510 0.0760 0.1060 0.1320 0.2119
1627.793709 0.2775 0.4064 0.5201 0.5651 0.6181
1632.717138 0.6510 0.6650 0.6930 0.7120 0.7230
1637.640566 0.7321 0.7480 0.7591 0.7790 0.7870
1642.563994 0.7930 0.7950 0.7980 0.8060 0.8120
1647.487422 0.8140 0.8210 0.8240 0.8250 0.8250
1652.410850 0.8280 0.8320 0.8330 0.8330 0.8330
1657.334278 0.8340 0.8340 0.8360 0.8400 0.8420
1662.257706 0.8460 0.8460 0.8460 0.8490 0.8510
1667.181134 0.8510 0.8520 0.8520 0.8520 0.8520
1672.104562 0.8530 0.8530 0.8530 0.8530 0.8550
1677.027990 0.8550 0.8560 0.8560 0.8560 0.8570
1681.951418 0.8590 0.8600 0.8600 0.8600 0.8610
1686.874846 0.8630 0.8630 0.8640 0.8650 0.8650
1691.798274 0.8670 0.8670 0.8670 0.8680 0.8680
1696.721702 0.8680 0.8690 0.8690 0.8690 0.8690
1701.645130 0.8690 0.8690 0.8690 0.8690 0.8680
1706.568558 0.8680 0.8680 0.8670 0.8670 0.8670
1711.491986 0.8670 0.8670 0.8670 0.8650 0.8640
1716.415414 0.8640 0.8630 0.8630 0.8630 0.8630
1721.338842 0.8610 0.8610 0.8600 0.8600 0.8600
1726.262270 0.8600 0.8600 0.8600 0.8600 0.8600
1731.185698 0.8590 0.8590 0.8590 0.8590 0.8570
1736.109127 0.8570 0.8570 0.8570 0.8590 0.8590
1741.032555 0.8590 0.8590 0.8590 0.8590 0.8600
1745.955983 0.8600 0.8610 0.8610 0.8630 0.8630
1750.879411 0.8640 0.8640 0.8650 0.8650 0.8670
1755.802839 0.8670 0.8670 0.8680 0.8680 0.8690
1760.726267 0.8690 0.8690 0.8710 0.8710 0.8710
1765.649695 0.8710 0.8710 0.8690 0.8690 0.8690
1770.573123 0.8680 0.8670 0.8670 0.8650 0.8650
1775.496551 0.8640 0.8630 0.8600 0.8570 0.8550
1780.419979 0.8550 0.8520 0.8490 0.8460 0.8420
1785.343407 0.8410 0.8380 0.8370 0.8360 0.8360
1790.266835 0.8370 0.8400 0.8440 0.8480 0.8530
1795.190263 0.8560 0.8600 0.8610 0.8640 0.8650
1800.113691 0.8650 0.8650 0.8650 0.8640 0.8630
1805.037119 0.8630 0.8630 0.8630 0.8610 0.8610
1809.960547 0.8600 0.8600 0.8600 0.8600 0.8600
1814.883975 0.8610 0.8610 0.8630 0.8630 0.8640
1819.807403 0.8650 0.8670 0.8680 0.8720 0.8730
1824.730831 0.8750 0.8760 0.8770 0.8790 0.8790
1829.654259 0.8800 0.8800 0.8810 0.8810 0.8830
1834.577687 0.8830 0.8830 0.8830 0.8830 0.8830
1839.501116 0.8840 0.8850 0.8840 0.8810 0.8810
1844.424544 0.8800 0.8800 0.8790 0.8790 0.8800
1849.347972 0.8830 0.8830 0.8830 0.8830 0.8830
1854.271400 0.8850 0.8850 0.8830 0.8830 0.8830
1859.194828 0.8840 0.8850 0.8850 0.8850 0.8850
1864.118256 0.8850 0.8850 0.8850 0.8850 0.8850
1869.041684 0.8850 0.8840 0.8840 0.8850 0.8850
1873.965112 0.8870 0.8870 0.8850 0.8850 0.8840
1878.888540 0.8850 0.8850 0.8840 0.8840 0.8840
1883.811968 0.8840 0.8840 0.8840 0.8830 0.8830
1888.735396 0.8830 0.8830 0.8830 0.8830 0.8830
1893.658824 0.8830 0.8830 0.8840 0.8840 0.8840
1898.582252 0.8850 0.8850 0.8850 0.8850 0.8870
1903.505680 0.8870 0.8870 0.8880 0.8880 0.8880
1908.429108 0.8880 0.8880 0.8880 0.8890 0.8910
1913.352536 0.8910 0.8880 0.8880 0.8870 0.8870
1918.275964 0.8870 0.8870 0.8880 0.8890 0.8890
1923.199392 0.8910 0.8910 0.8910 0.8910 0.8910
1928.122820 0.8910 0.8920 0.8920 0.8910 0.8910
1933.046248 0.8910 0.8870 0.8850 0.8850 0.8840
1937.969676 0.8850 0.8870 0.8880 0.8890 0.8910
1942.893105 0.8910 0.8910 0.8910 0.8910 0.8910
1947.816533 0.8910 0.8920 0.8930 0.8920 0.8920
1952.739961 0.8920 0.8920 0.8910 0.8910 0.8890
1957.663389 0.8890 0.8890 0.8890 0.8890 0.8890
1962.586817 0.8890 0.8890 0.8890 0.8890 0.8890
1967.510245 0.8890 0.8890 0.8890 0.8890 0.8890
1972.433673 0.8910 0.8910 0.8910 0.8910 0.8910
1977.357101 0.8910 0.8910 0.8920 0.8920 0.8910
1982.280529 0.8910 0.8910 0.8890 0.8890 0.8890
1987.203957 0.8890 0.8890 0.8890 0.8910 0.8910
1992.127385 0.8910 0.8910 0.8890 0.8890 0.8880
1997.050813 0.8890 0.8890 0.8920 0.8920 0.8925
2001.974241 0.8930 0.8940 0.8950 0.8940 0.8930
2006.897669 0.8930 0.8930 0.8930 0.8930 0.8930
2011.821097 0.8930 0.8930 0.8930 0.8940 0.8950
2016.744525 0.8950 0.8950 0.8940 0.8930 0.8930
2021.667953 0.8930 0.8930 0.8930 0.8930 0.8930
2026.591381 0.8930 0.8930 0.8930 0.8930 0.8930
2031.514809 0.8930 0.8930 0.8930 0.8930 0.8930
2036.438237 0.8930 0.8930 0.8925 0.8920 0.8920
2041.361665 0.8920 0.8920 0.8920 0.8920 0.8920
2046.285094 0.8920 0.8920 0.8924 0.8929 0.8930
2051.208522 0.8930 0.8921 0.8911 0.8910 0.8910
2056.131950 0.8910 0.8910 0.8919 0.8929 0.8930
2061.055378 0.8930 0.8930 0.8930 0.8930 0.8930
2065.978806 0.8930 0.8930 0.8930 0.8930 0.8930
2070.902234 0.8930 0.8930 0.8930 0.8930 0.8930
2075.825662 0.8930 0.8930 0.8930 0.8930 0.8926
2080.749090 0.8921 0.8920 0.8920 0.8920 0.8920
2085.672518 0.8920 0.8920 0.8916 0.8911 0.8910
2090.595946 0.8910 0.8918 0.8928 0.8926 0.8921
2095.519374 0.8920 0.8920 0.8920 0.8920 0.8920
2100.442802 0.8920 0.8916 0.8911 0.8910 0.8910
2105.366230 0.8910 0.8910 0.8910 0.8910 0.8910
2110.289658 0.8910 0.8910 0.8910 0.8903 0.8893
2115.213086 0.8890 0.8890 0.8890 0.8890 0.8890
2120.136514 0.8890 0.8890 0.8890 0.8897 0.8907
2125.059942 0.8910 0.8910 0.8914 0.8919 0.8920
2129.983370 0.8920 0.8916 0.8912 0.8910 0.8910
2134.906798 0.8910 0.8910 0.8903 0.8893 0.8890
2139.830226 0.8890 0.8887 0.8882 0.8880 0.8880
2144.753654 0.8880 0.8880 0.8880 0.8880 0.8880
2149.677083 0.8880 0.8880 0.8880 0.8883 0.8888
2154.600511 0.8896 0.8906 0.8910 0.8910 0.8913
2159.523939 0.8918 0.8920 0.8920 0.8923 0.8928
2164.447367 0.8930 0.8930 0.8930 0.8930 0.8930
2169.370795 0.8930 0.8930 0.8930 0.8930 0.8930
2174.294223 0.8930 0.8930 0.8927 0.8922 0.8917
2179.217651 0.8912 0.8910 0.8910 0.8904 0.8894
2184.141079 0.8890 0.8890 0.8890 0.8890 0.8890
2189.064507 0.8890 0.8887 0.8882 0.8880 0.8880
2193.987935 0.8880 0.8880 0.8880 0.8880 0.8880
2198.911363 0.8880 0.8877 0.8872 0.8864 0.8855
2203.834791 0.8850 0.8850 0.8847 0.8842 0.8832
2208.758219 0.8817 0.8810 0.8810 0.8807 0.8802
2213.681647 0.8800 0.8800 0.8800 0.8800 0.8797
2218.605075 0.8792 0.8793 0.8798 0.8800 0.8800
2223.528503 0.8803 0.8807 0.8810 0.8810 0.8810
2228.451931 0.8810 0.8808 0.8803 0.8798 0.8793
2233.375359 0.8790 0.8790 0.8785 0.8775 0.8768
2238.298787 0.8763 0.8760 0.8760 0.8760 0.8760
2243.222215 0.8760 0.8760 0.8762 0.8767 0.8770
2248.145643 0.8770 0.8774 0.8784 0.8792 0.8797
2253.069072 0.8800 0.8800 0.8800 0.8800 0.8802
2257.992500 0.8807 0.8810 0.8810 0.8810 0.8810
2262.915928 0.8814 0.8824 0.8830 0.8830 0.8830
2267.839356 0.8830 0.8830 0.8830 0.8832 0.8837
2272.762784 0.8840 0.8840 0.8840 0.8840 0.8840
2277.686212 0.8840 0.8840 0.8840 0.8838 0.8833
2282.609640 0.8826 0.8816 0.8810 0.8810 0.8810
2287.533068 0.8810 0.8810 0.8810 0.8810 0.8810
2292.456496 0.8810 0.8810 0.8810 0.8810 0.8808
2297.379924 0.8803 0.8800 0.8800 0.8800 0.8800
2302.303352 0.8798 0.8793 0.8790 0.8790 0.8790
2307.226780 0.8790 0.8790 0.8790 0.8790 0.8790
2312.150208 0.8790 0.8790 0.8790 0.8790 0.8792
2317.073636 0.8797 0.8800 0.8800 0.8801 0.8806
2321.997064 0.8813 0.8823 0.8827 0.8817 0.8810
2326.920492 0.8810 0.8809 0.8804 0.8800 0.8800
2331.843920 0.8800 0.8800 0.8800 0.8800 0.8800
2336.767348 0.8800 0.8800 0.8800 0.8800 0.8800
2341.690776 0.8800 0.8800 0.8800 0.8800 0.8800
2346.614204 0.8800 0.8800 0.8800 0.8799 0.8794
2351.537632 0.8791 0.8796 0.8800 0.8800 0.8800
2356.461061 0.8800 0.8801 0.8806 0.8810 0.8810
2361.384489 0.8809 0.8804 0.8800 0.8800 0.8800
2366.307917 0.8800 0.8799 0.8794 0.8788 0.8778
2371.231345 0.8769 0.8764 0.8761 0.8766 0.8770
2376.154773 0.8770 0.8773 0.8793 0.8810 0.8810
2381.078201 0.8809 0.8804 0.8800 0.8800 0.8800
2386.001629 0.8800 0.8800 0.8800 0.8800 0.8800
2390.925057 0.8798 0.8783 0.8770 0.8770 0.8773
2395.848485 0.8792 0.8811 0.8821 0.8830 0.8830
2400.771913 0.8829 0.8819 0.8810 0.8810 0.8810
2405.695341 0.8810 0.8810 0.8810 0.8810 0.8810
2410.618769 0.8810 0.8810 0.8810 0.8805 0.8800
2415.542197 0.8805 0.8810 0.8810 0.8810 0.8810
2420.465625 0.8810 0.8810 0.8810 0.8810 0.8811
2425.389053 0.8820 0.8830 0.8830 0.8830 0.8830
2430.312481 0.8830 0.8830 0.8830 0.8830 0.8830
2435.235909 0.8830 0.8830 0.8820 0.8810 0.8810
2440.159337 0.8810 0.8825 0.8840 0.8845 0.8850
2445.082765 0.8850 0.8850 0.8840 0.8830 0.8830
2450.006193 0.8830 0.8820 0.8810 0.8810 0.8810
2454.929622 0.8810 0.8810 0.8805 0.8800 0.8795
2459.853050 0.8790 0.8790 0.8790 0.8780 0.8770
2464.776478 0.8770 0.8770 0.8770 0.8770 0.8779
2469.699906 0.8789 0.8790 0.8790 0.8790 0.8790
2474.623334 0.8795 0.8800 0.8800 0.8800 0.8800
2479.546762 0.8800 0.8800 0.8800 0.8795 0.8790
2484.470190 0.8781 0.8771 0.8770 0.8770 0.8770
2489.393618 0.8770 0.8770 0.8770 0.8770 0.8770
2494.317046 0.8770 0.8770 0.8770 0.8770 0.8770
2499.240474 0.8770 0.8770 0.8770 0.8770 0.8770
2504.163902 0.8770 0.8770 0.8770 0.8770 0.8770
2509.087330 0.8770 0.8770 0.8770 0.8770 0.8770
2514.010758 0.8779 0.8789 0.8781 0.8771 0.8779
2518.934186 0.8788 0.8782 0.8772 0.8770 0.8770
2523.857614 0.8770 0.8770 0.8770 0.8770 0.8770
2528.781042 0.8770 0.8766 0.8761 0.8760 0.8760
2533.704470 0.8748 0.8733 0.8742 0.8757 0.8764
2538.627898 0.8769 0.8778 0.8788 0.8790 0.8790
2543.551326 0.8790 0.8790 0.8790 0.8790 0.8782
2548.474754 0.8772 0.8766 0.8761 0.8760 0.8760
2553.398182 0.8764 0.8769 0.8778 0.8788 0.8790
2558.321611 0.8790 0.8790 0.8790 0.8790 0.8790
2563.245039 0.8790 0.8790 0.8790 0.8790 0.8794
2568.168467 0.8799 0.8800 0.8800 0.8804 0.8809
2573.091895 0.8810 0.8810 0.8810 0.8810 0.8810
2578.015323 0.8810 0.8803 0.8793 0.8783 0.8773
2582.938751 0.8770 0.8770 0.8770 0.8770 0.8770
2587.862179 0.8770 0.8777 0.8787 0.8790 0.8790
2592.785607 0.8790 0.8790 0.8790 0.8790 0.8793
2597.709035 0.8798 0.8790 0.8775 0.8777 0.8787
2602.632463 0.8793 0.8798 0.8803 0.8808 0.8807
2607.555891 0.8802 0.8800 0.8800 0.8800 0.8800
2612.479319 0.8800 0.8800 0.8800 0.8800 0.8800
2617.402747 0.8800 0.8803 0.8808 0.8807 0.8802
2622.326175 0.8800 0.8800 0.8800 0.8800 0.8800
2627.249603 0.8800 0.8797 0.8792 0.8790 0.8790
2632.173031 0.8790 0.8790 0.8790 0.8790 0.8793
2637.096459 0.8798 0.8797 0.8792 0.8790 0.8790
2642.019887 0.8784 0.8774 0.8770 0.8770 0.8764
2646.943315 0.8754 0.8750 0.8750 0.8745 0.8734
2651.866743 0.8730 0.8730 0.8730 0.8730 0.8730
2656.790171 0.8730 0.8735 0.8745 0.8745 0.8735
2661.713600 0.8730 0.8730 0.8727 0.8722 0.8720
2666.637028 0.8720 0.8717 0.8712 0.8710 0.8710
2671.560456 0.8710 0.8710 0.8713 0.8718 0.8720
2676.483884 0.8720 0.8718 0.8713 0.8695 0.8665
2681.407312 0.8648 0.8643 0.8640 0.8640 0.8638
2686.330740 0.8633 0.8630 0.8630 0.8630 0.8630
2691.254168 0.8632 0.8637 0.8642 0.8647 0.8655
2696.177596 0.8665 0.8679 0.8699 0.8714 0.8724
2701.101024 0.8730 0.8730 0.8730 0.8730 0.8730
2706.024452 0.8730 0.8730 0.8730 0.8728 0.8723
2710.947880 0.8720 0.8720 0.8720 0.8720 0.8718
2715.871308 0.8713 0.8710 0.8710 0.8710 0.8710
2720.794736 0.8710 0.8710 0.8710 0.8710 0.8710
2725.718164 0.8710 0.8710 0.8710 0.8710 0.8710
2730.641592 0.8710 0.8710 0.8710 0.8710 0.8712
2735.565020 0.8717 0.8720 0.8720 0.8715 0.8700
2740.488448 0.8690 0.8690 0.8693 0.8703 0.8710
2745.411876 0.8710 0.8712 0.8717 0.8722 0.8727
2750.335304 0.8730 0.8730 0.8730 0.8730 0.8730
2755.258732 0.8730 0.8728 0.8723 0.8720 0.8720
2760.182160 0.8726 0.8746 0.8760 0.8760 0.8760
2765.105589 0.8760 0.8760 0.8760 0.8759 0.8754
2770.029017 0.8750 0.8750 0.8747 0.8737 0.8730
2774.952445 0.8730 0.8729 0.8724 0.8720 0.8720
2779.875873 0.8720 0.8720 0.8719 0.8714 0.8710
2784.799301 0.8710 0.8708 0.8698 0.8690 0.8690
2789.722729 0.8689 0.8684 0.8680 0.8680 0.8681
2794.646157 0.8686 0.8693 0.8708 0.8721 0.8726
2799.569585 0.8730 0.8730 0.8729 0.8724 0.8720
2804.493013 0.8720 0.8719 0.8714 0.8710 0.8710
2809.416441 0.8711 0.8716 0.8720 0.8720 0.8719
2814.339869 0.8714 0.8710 0.8710 0.8710 0.8710
2819.263297 0.8710 0.8710 0.8710 0.8710 0.8708
2824.186725 0.8698 0.8690 0.8690 0.8688 0.8678
2829.110153 0.8668 0.8658 0.8650 0.8650 0.8649
2834.033581 0.8644 0.8637 0.8617 0.8599 0.8594
2838.957009 0.8588 0.8573 0.8558 0.8543 0.8530
2843.880437 0.8530 0.8532 0.8547 0.8561 0.8566
2848.803865 0.8570 0.8570 0.8569 0.8564 0.8559
2853.727293 0.8554 0.8548 0.8534 0.8516 0.8476
2858.650721 0.8439 0.8424 0.8410 0.8405 0.8400
2863.574149 0.8400 0.8400 0.8405 0.8410 0.8410
2868.497578 0.8411 0.8426 0.8442 0.8467 0.8491
2873.421006 0.8511 0.8531 0.8541 0.8551 0.8560
2878.344434 0.8570 0.8580 0.8590 0.8590 0.8590
2883.267862 0.8580 0.8570 0.8570 0.8570 0.8565
2888.191290 0.8560 0.8560 0.8560 0.8555 0.8550
2893.114718 0.8550 0.8550 0.8550 0.8550 0.8550
2898.038146 0.8550 0.8540 0.8530 0.8530 0.8530
2902.961574 0.8525 0.8520 0.8520 0.8520 0.8520
2907.885002 0.8520 0.8520 0.8520 0.8520 0.8520
2912.808430 0.8520 0.8520 0.8520 0.8520 0.8520
2917.731858 0.8520 0.8515 0.8510 0.8510 0.8510
2922.655286 0.8501 0.8491 0.8490 0.8490 0.8485
2927.578714 0.8480 0.8471 0.8461 0.8455 0.8450
2932.502142 0.8431 0.8411 0.8410 0.8410 0.8396
2937.425570 0.8381 0.8362 0.8342 0.8299 0.8254
2942.348998 0.8237 0.8222 0.8211 0.8201 0.8169
2947.272426 0.8133 0.8094 0.8054 0.8032 0.8012
2952.195854 0.7992 0.7972 0.7944 0.7914 0.7836
2957.119282 0.7751 0.7653 0.7554 0.7488 0.7429
2962.042710 0.7356 0.7281 0.7257 0.7242 0.7240
2966.966138 0.7240 0.7249 0.7259 0.7294 0.7334
2971.889567 0.7374 0.7414 0.7470 0.7530 0.7586
2976.812995 0.7640 0.7724 0.7814 0.7908 0.8002
2981.736423 0.8133 0.8273 0.8332 0.8372 0.8396
2986.659851 0.8416 0.8436 0.8456 0.8468 0.8478
2991.583279 0.8492 0.8507 0.8514 0.8519 0.8524
2996.506707 0.8529 0.8538 0.8548 0.8550 0.8550
3001.430135 0.8554 0.8559 0.8560 0.8560 0.8560
3006.353563 0.8560 0.8564 0.8569 0.8570 0.8570
3011.276991 0.8570 0.8570 0.8570 0.8570 0.8577
3016.200419 0.8587 0.8594 0.8599 0.8600 0.8600
3021.123847 0.8604 0.8609 0.8617 0.8627 0.8630
3026.047275 0.8630 0.8634 0.8639 0.8640 0.8640
3030.970703 0.8640 0.8640 0.8629 0.8614 0.8610
3035.894131 0.8610 0.8607 0.8602 0.8590 0.8575
3040.817559 0.8570 0.8570 0.8563 0.8553 0.8543
3045.740987 0.8533 0.8516 0.8496 0.8463 0.8423
3050.664415 0.8347 0.8252 0.8187 0.8137 0.8022
3055.587843 0.7872 0.7739 0.7614 0.7483 0.7349
3060.511271 0.7300 0.7300 0.7344 0.7414 0.7484
3065.434699 0.7555 0.7628 0.7703 0.7771 0.7836
3070.358127 0.7947 0.8087 0.8196 0.8285 0.8335
3075.281556 0.8360 0.8403 0.8458 0.8492 0.8512
3080.204984 0.8535 0.8560 0.8576 0.8586 0.8593
3085.128412 0.8598 0.8600 0.8600 0.8603 0.8608
3090.051840 0.8616 0.8626 0.8636 0.8646 0.8656
3094.975268 0.8666 0.8673 0.8678 0.8680 0.8680
3099.898696 0.8683 0.8688 0.8690 0.8690 0.8695
3104.822124 0.8705 0.8710 0.8710 0.8710 0.8710
3109.745552 0.8710 0.8710 0.8713 0.8718 0.8730
3114.668980 0.8750 0.8768 0.8783 0.8793 0.8798
3119.592408 0.8800 0.8800 0.8802 0.8807 0.8810
3124.515836 0.8810 0.8810 0.8810 0.8810 0.8810
3129.439264 0.8810 0.8810 0.8810 0.8810 0.8810
3134.362692 0.8810 0.8810 0.8810 0.8810 0.8810
3139.286120 0.8810 0.8810 0.8810 0.8810 0.8810
3144.209548 0.8810 0.8810 0.8810 0.8810 0.8810
3149.132976 0.8810 0.8810 0.8810 0.8810 0.8814
3154.056404 0.8824 0.8830 0.8830 0.8830 0.8830
3158.979832 0.8830 0.8830 0.8830 0.8830 0.8830
3163.903260 0.8830 0.8830 0.8830 0.8830 0.8830
3168.826688 0.8830 0.8830 0.8830 0.8830 0.8830
3173.750116 0.8830 0.8830 0.8830 0.8830 0.8830
3178.673545 0.8830 0.8830 0.8830 0.8830 0.8830
3183.596973 0.8830 0.8830 0.8830 0.8830 0.8830
3188.520401 0.8830 0.8830 0.8830 0.8830 0.8830
3193.443829 0.8830 0.8830 0.8830 0.8827 0.8817
3198.367257 0.8810 0.8810 0.8810 0.8810 0.8808
3203.290685 0.8803 0.8800 0.8800 0.8800 0.8800
3208.214113 0.8798 0.8793 0.8784 0.8764 0.8750
3213.137541 0.8750 0.8744 0.8724 0.8706 0.8691
3218.060969 0.8674 0.8654 0.8639 0.8634 0.8630
3222.984397 0.8630 0.8630 0.8630 0.8630 0.8630
3227.907825 0.8631 0.8636 0.8640 0.8640 0.8644
3232.831253 0.8659 0.8673 0.8683 0.8695 0.8715
3237.754681 0.8732 0.8742 0.8756 0.8781 0.8801
3242.678109 0.8806 0.8812 0.8822 0.8832 0.8842
3247.601537 0.8850 0.8850 0.8852 0.8862 0.8870
3252.524965 0.8870 0.8871 0.8876 0.8880 0.8880
3257.448393 0.8881 0.8886 0.8890 0.8890 0.8890
3262.371821 0.8890 0.8890 0.8890 0.8890 0.8890
3267.295249 0.8890 0.8890 0.8890 0.8890 0.8890
3272.218677 0.8890 0.8889 0.8884 0.8880 0.8880
3277.142105 0.8880 0.8880 0.8880 0.8880 0.8880
3282.065534 0.8880 0.8880 0.8880 0.8880 0.8880
3286.988962 0.8880 0.8880 0.8880 0.8880 0.8880
3291.912390 0.8880 0.8879 0.8874 0.8870 0.8870
3296.835818 0.8870 0.8870 0.8870 0.8870 0.8869
3301.759246 0.8859 0.8850 0.8850 0.8850 0.8850
3306.682674 0.8850 0.8850 0.8850 0.8850 0.8850
3311.606102 0.8845 0.8840 0.8840 0.8840 0.8840
3316.529530 0.8840 0.8840 0.8840 0.8840 0.8840
3321.452958 0.8840 0.8840 0.8845 0.8850 0.8850
3326.376386 0.8850 0.8850 0.8850 0.8850 0.8850
3331.299814 0.8860 0.8870 0.8870 0.8870 0.8870
3336.223242 0.8870 0.8870 0.8870 0.8870 0.8870
3341.146670 0.8870 0.8870 0.8860 0.8850 0.8850
3346.070098 0.8850 0.8850 0.8850 0.8845 0.8840
3350.993526 0.8840 0.8840 0.8835 0.8830 0.8830
3355.916954 0.8830 0.8830 0.8830 0.8820 0.8810
3360.840382 0.8810 0.8810 0.8810 0.8810 0.8810
3365.763810 0.8810 0.8810 0.8810 0.8810 0.8810
3370.687238 0.8820 0.8830 0.8835 0.8840 0.8840
3375.610666 0.8840 0.8835 0.8830 0.8821 0.8811
3380.534094 0.8810 0.8810 0.8810 0.8810 0.8810
3385.457523 0.8810 0.8819 0.8829 0.8830 0.8830
3390.380951 0.8830 0.8830 0.8830 0.8830 0.8830
3395.304379 0.8830 0.8830 0.8830 0.8830 0.8830
3400.227807 0.8830 0.8830 0.8830 0.8830 0.8821
3405.151235 0.8811 0.8810 0.8810 0.8810 0.8810
3410.074663 0.8810 0.8810 0.8819 0.8829 0.8830
3414.998091 0.8830 0.8830 0.8830 0.8830 0.8830
3419.921519 0.8830 0.8830 0.8830 0.8830 0.8822
3424.844947 0.8812 0.8810 0.8810 0.8810 0.8810
3429.768375 0.8810 0.8810 0.8818 0.8828 0.8830
3434.691803 0.8830 0.8834 0.8839 0.8836 0.8831
3439.615231 0.8822 0.8812 0.8810 0.8810 0.8818
3444.538659 0.8828 0.8830 0.8830 0.8830 0.8830
3449.462087 0.8830 0.8830 0.8830 0.8830 0.8830
3454.385515 0.8830 0.8830 0.8830 0.8830 0.8830
3459.308943 0.8834 0.8839 0.8840 0.8840 0.8840
3464.232371 0.8840 0.8836 0.8831 0.8830 0.8830
3469.155799 0.8830 0.8830 0.8830 0.8830 0.8830
3474.079227 0.8830 0.8823 0.8813 0.8810 0.8810
3479.002655 0.8817 0.8827 0.8830 0.8830 0.8830
3483.926083 0.8830 0.8830 0.8830 0.8830 0.8830
3488.849512 0.8823 0.8813 0.8810 0.8810 0.8810
3493.772940 0.8810 0.8810 0.8810 0.8810 0.8810
3498.696368 0.8810 0.8810 0.8817 0.8827 0.8830
3503.619796 0.8830 0.8830 0.8830 0.8830 0.8830
3508.543224 0.8830 0.8830 0.8830 0.8830 0.8830
3513.466652 0.8830 0.8830 0.8830 0.8833 0.8838
3518.390080 0.8840 0.8840 0.8840 0.8840 0.8840
3523.313508 0.8840 0.8840 0.8840 0.8831 0.8816
3528.236936 0.8810 0.8810 0.8810 0.8810 0.8810
3533.160364 0.8810 0.8810 0.8810 0.8816 0.8826
3538.083792 0.8833 0.8838 0.8840 0.8840 0.8843
3543.007220 0.8848 0.8850 0.8850 0.8850 0.8850
3547.930648 0.8850 0.8850 0.8850 0.8850 0.8850
3552.854076 0.8850 0.8855 0.8865 0.8870 0.8870
3557.777504 0.8865 0.8855 0.8850 0.8850 0.8847
3562.700932 0.8842 0.8840 0.8840 0.8840 0.8840
3567.624360 0.8840 0.8840 0.8843 0.8848 0.8855
3572.547788 0.8865 0.8872 0.8877 0.8882 0.8887
3577.471216 0.8890 0.8890 0.8895 0.8905 0.8910
3582.394644 0.8910 0.8910 0.8910 0.8910 0.8910
3587.318072 0.8905 0.8895 0.8890 0.8890 0.8888
3592.241501 0.8883 0.8880 0.8880 0.8880 0.8880
3597.164929 0.8880 0.8880 0.8880 0.8880 0.8880
3602.088357 0.8880 0.8880 0.8880 0.8880 0.8880
3607.011785 0.8880 0.8880 0.8880 0.8880 0.8880
3611.935213 0.8880 0.8880 0.8880 0.8882 0.8887
3616.858641 0.8890 0.8890 0.8890 0.8890 0.8888
3621.782069 0.8883 0.8880 0.8880 0.8880 0.8880
3626.705497 0.8880 0.8880 0.8878 0.8873 0.8870
3631.628925 0.8870 0.8870 0.8870 0.8866 0.8856
3636.552353 0.8850 0.8850 0.8850 0.8850 0.8848
3641.475781 0.8843 0.8840 0.8840 0.8840 0.8840
3646.399209 0.8838 0.8833 0.8827 0.8817 0.8808
3651.322637 0.8803 0.8800 0.8800 0.8798 0.8793
3656.246065 0.8790 0.8790 0.8790 0.8790 0.8790
3661.169493 0.8790 0.8792 0.8797 0.8802 0.8807
3666.092921 0.8813 0.8823 0.8833 0.8843 0.8850
3671.016349 0.8850 0.8849 0.8844 0.8840 0.8840
3675.939777 0.8839 0.8834 0.8830 0.8830 0.8830
3680.863205 0.8830 0.8830 0.8830 0.8830 0.8830
3685.786633 0.8830 0.8830 0.8830 0.8830 0.8831
3690.710061 0.8836 0.8840 0.8840 0.8840 0.8840
3695.633490 0.8840 0.8840 0.8841 0.8846 0.8850
3700.556918 0.8850 0.8850 0.8850 0.8852 0.8862
3705.480346 0.8870 0.8870 0.8870 0.8870 0.8870
3710.403774 0.8870 0.8871 0.8876 0.8880 0.8880
3715.327202 0.8880 0.8880 0.8881 0.8886 0.8890
3720.250630 0.8890 0.8890 0.8890 0.8890 0.8890
3725.174058 0.8892 0.8902 0.8910 0.8910 0.8910
3730.097486 0.8910 0.8910 0.8910 0.8910 0.8910
3735.020914 0.8910 0.8910 0.8911 0.8916 0.8920
3739.944342 0.8920 0.8919 0.8914 0.8910 0.8910
3744.867770 0.8910 0.8910 0.8909 0.8899 0.8890
3749.791198 0.8890 0.8890 0.8890 0.8890 0.8885
3754.714626 0.8880 0.8880 0.8880 0.8880 0.8880
3759.638054 0.8880 0.8880 0.8885 0.8891 0.8901
3764.561482 0.8910 0.8910 0.8910 0.8910 0.8910
3769.484910 0.8910 0.8910 0.8910 0.8909 0.8900
3774.408338 0.8890 0.8890 0.8890 0.8890 0.8890
3779.331766 0.8890 0.8890 0.8890 0.8890 0.8890
3784.255194 0.8890 0.8890 0.8890 0.8890 0.8890
3789.178622 0.8890 0.8890 0.8885 0.8880 0.8880
3794.102050 0.8880 0.8880
##END=
