##TITLE=Propyne, 3-fluoro-
##JCAMP-DX=4.24
##DATA TYPE=INFRARED SPECTRUM
##CLASS=COBLENTZ
##ORIGIN=DOW CHEMICAL COMPANY
##OWNER=Copyright (C) 1987 by the Coblentz Society
Collection (C) 2018 copyright by the U.S. Secretary of Commerce
on behalf of the United States of America. All rights reserved.
##DATE=1964
##NAMES=3-fluoro-1-propyne
PROPARGYL FLUORIDE
##CAS REGISTRY NO=2805-22-3
##MOLFORM=C3 H3 F
##SOURCE REFERENCE=COBLENTZ NO. 8846
##$NIST SOURCE=COBLENTZ
##$NIST IMAGE=cob8846
##SPECTROMETER/DATA SYSTEM=DOW KBr FOREPRISM-GRATING
##INSTRUMENT PARAMETERS=GRATING CHANGED AT 5.0, 7.5, 15.0 MICRON
##STATE=GAS (100 mmHg, N2 ADDED, TOTAL PRESSURE 600 mmHg)
##PATH LENGTH=5 CM
##SAMPLING PROCEDURE=TRANSMISSION
##RESOLUTION=2
##DATA PROCESSING=DIGITIZED BY COBLENTZ SOCIETY (BATCH II) FROM HARD COPY
##XUNITS=1/CM
##YUNITS=TRANSMITTANCE
##XFACTOR=1.0
##YFACTOR=1
##FIRSTX=456
##LASTX=3786
##FIRSTY=0.8685
##MAXX=3786
##MINX=456
##MAXY=0.8886
##MINY=0.0023
##NPOINTS=3331
##XYDATA=(X++(Y..Y))
456.000000 0.8685 0.8695 0.8704 0.8712 0.8721
461.000000 0.8729 0.8738 0.8746 0.8754 0.8763
466.000000 0.8771 0.8780 0.8789 0.8797 0.8806
471.000000 0.8815 0.8823 0.8829 0.8836 0.8842
476.000000 0.8848 0.8854 0.8860 0.8865 0.8869
481.000000 0.8874 0.8878 0.8882 0.8886 0.8878
486.000000 0.8876 0.8873 0.8867 0.8861 0.8850
491.000000 0.8838 0.8825 0.8812 0.8798 0.8784
496.000000 0.8769 0.8755 0.8735 0.8711 0.8687
501.000000 0.8663 0.8638 0.8610 0.8581 0.8553
506.000000 0.8524 0.8488 0.8446 0.8405 0.8363
511.000000 0.8321 0.8278 0.8235 0.8192 0.8149
516.000000 0.8092 0.8033 0.7974 0.7901 0.7820
521.000000 0.7739 0.7656 0.7573 0.7482 0.7382
526.000000 0.7282 0.7181 0.7081 0.6981 0.6880
531.000000 0.6732 0.6701 0.6697 0.6715 0.6843
536.000000 0.7009 0.7174 0.7340 0.7506 0.7672
541.000000 0.7830 0.7786 0.7577 0.7368 0.7158
546.000000 0.6949 0.6739 0.6603 0.6565 0.6549
551.000000 0.6566 0.6669 0.6782 0.6894 0.7007
556.000000 0.7120 0.7232 0.7345 0.7488 0.7597
561.000000 0.7682 0.7754 0.7818 0.7863 0.7905
566.000000 0.7938 0.7968 0.7990 0.8012 0.8027
571.000000 0.8039 0.8049 0.8056 0.8064 0.8072
576.000000 0.8080 0.8069 0.8063 0.8057 0.8051
581.000000 0.8043 0.8032 0.8014 0.7991 0.7955
586.000000 0.7911 0.7870 0.7833 0.7786 0.7693
591.000000 0.7600 0.7507 0.7424 0.7361 0.7266
596.000000 0.7178 0.7111 0.7042 0.6955 0.6859
601.000000 0.6740 0.6628 0.6529 0.6420 0.6275
606.000000 0.6113 0.5956 0.5803 0.5567 0.5407
611.000000 0.5250 0.5165 0.5051 0.4916 0.4884
616.000000 0.4787 0.4505 0.4345 0.4197 0.4034
621.000000 0.3873 0.3686 0.3474 0.3030 0.2899
626.000000 0.2751 0.2518 0.2166 0.1743 0.0605
631.000000 0.0364 0.0412 0.0860 0.1307 0.1754
636.000000 0.1996 0.2011 0.1518 0.1226 0.0934
641.000000 0.0643 0.0448 0.0443 0.0489 0.0637
646.000000 0.0786 0.0934 0.1029 0.1033 0.0889
651.000000 0.0794 0.0797 0.0812 0.0840 0.0870
656.000000 0.0924 0.0996 0.1185 0.1452 0.1719
661.000000 0.1826 0.1765 0.1841 0.1202 0.0920
666.000000 0.0722 0.0667 0.0616 0.0618 0.0649
671.000000 0.0839 0.1057 0.1274 0.1491 0.1709
676.000000 0.2054 0.4091 0.4153 0.4161 0.4154
681.000000 0.4146 0.3997 0.3886 0.3775 0.3665
686.000000 0.3597 0.3660 0.3679 0.3706 0.3738
691.000000 0.3827 0.3932 0.4387 0.4508 0.4719
696.000000 0.4946 0.5055 0.5155 0.5235 0.5349
701.000000 0.5597 0.5870 0.6543 0.6597 0.6660
706.000000 0.6801 0.7078 0.7139 0.7255 0.7364
711.000000 0.7445 0.7521 0.7569 0.7612 0.7638
716.000000 0.7647 0.7653 0.7658 0.7656 0.7653
721.000000 0.7650 0.7649 0.7658 0.7670 0.7687
726.000000 0.7721 0.7762 0.7805 0.7851 0.7901
731.000000 0.7973 0.7995 0.7988 0.7982 0.7974
736.000000 0.7968 0.7964 0.7964 0.7964 0.7964
741.000000 0.7974 0.7984 0.7993 0.8011 0.8038
746.000000 0.8068 0.8097 0.8119 0.8140 0.8168
751.000000 0.8198 0.8230 0.8273 0.8308 0.8340
756.000000 0.8364 0.8388 0.8406 0.8416 0.8426
761.000000 0.8437 0.8445 0.8448 0.8451 0.8454
766.000000 0.8457 0.8457 0.8457 0.8457 0.8457
771.000000 0.8457 0.8456 0.8456 0.8455 0.8455
776.000000 0.8455 0.8454 0.8454 0.8453 0.8453
781.000000 0.8453 0.8452 0.8452 0.8452 0.8453
786.000000 0.8454 0.8454 0.8455 0.8456 0.8456
791.000000 0.8457 0.8455 0.8453 0.8451 0.8450
796.000000 0.8448 0.8446 0.8444 0.8442 0.8441
801.000000 0.8439 0.8437 0.8436 0.8435 0.8433
806.000000 0.8440 0.8431 0.8429 0.8428 0.8427
811.000000 0.8425 0.8426 0.8426 0.8426 0.8426
816.000000 0.8426 0.8426 0.8427 0.8427 0.8427
821.000000 0.8426 0.8425 0.8424 0.8422 0.8421
826.000000 0.8420 0.8419 0.8418 0.8417 0.8415
831.000000 0.8413 0.8412 0.8410 0.8408 0.8407
836.000000 0.8405 0.8403 0.8401 0.8397 0.8394
841.000000 0.8391 0.8388 0.8385 0.8382 0.8379
846.000000 0.8375 0.8372 0.8368 0.8364 0.8360
851.000000 0.8356 0.8353 0.8349 0.8345 0.8338
856.000000 0.8329 0.8320 0.8305 0.8285 0.8265
861.000000 0.8245 0.8225 0.8205 0.8183 0.8161
866.000000 0.8139 0.8116 0.8094 0.8072 0.8054
871.000000 0.8047 0.8040 0.8034 0.8028 0.8024
876.000000 0.8020 0.8016 0.8010 0.8005 0.7995
881.000000 0.7983 0.7971 0.7947 0.7917 0.7882
886.000000 0.7843 0.7804 0.7764 0.7724 0.7677
891.000000 0.7628 0.7580 0.7531 0.7459 0.7387
896.000000 0.7315 0.7243 0.7171 0.7088 0.7003
901.000000 0.6919 0.6836 0.6751 0.6666 0.6581
906.000000 0.6481 0.6380 0.6207 0.6040 0.5891
911.000000 0.5802 0.5712 0.5576 0.5419 0.5261
916.000000 0.5103 0.4946 0.4788 0.4614 0.4524
921.000000 0.4458 0.4401 0.4374 0.4369 0.4402
926.000000 0.4436 0.4469 0.4491 0.4486 0.4399
931.000000 0.4191 0.4020 0.3975 0.3959 0.3963
936.000000 0.3993 0.4024 0.4054 0.4063 0.3962
941.000000 0.3732 0.3383 0.3337 0.3354 0.3361
946.000000 0.3375 0.3391 0.3428 0.3536 0.3776
951.000000 0.4017 0.4257 0.4497 0.5005 0.5105
956.000000 0.5208 0.5312 0.5413 0.5509 0.5605
961.000000 0.5705 0.5805 0.5900 0.5994 0.6083
966.000000 0.6144 0.6205 0.6266 0.6326 0.6382
971.000000 0.6439 0.6485 0.6521 0.6555 0.6569
976.000000 0.6583 0.6589 0.6590 0.6582 0.6576
981.000000 0.6565 0.6543 0.6499 0.6438 0.6305
986.000000 0.6115 0.5925 0.5734 0.5544 0.5354
991.000000 0.5164 0.4973 0.4783 0.4593 0.4403
996.000000 0.4214 0.4069 0.3841 0.3677 0.3507
1001.000000 0.3332 0.3085 0.2937 0.2863 0.2790
1006.000000 0.2690 0.2571 0.2356 0.2050 0.1485
1011.000000 0.0977 0.0974 0.1074 0.1189 0.1180
1016.000000 0.1130 0.1052 0.0895 0.0583 0.0345
1021.000000 0.0185 0.0085 0.0059 0.0045 0.0041
1026.000000 0.0038 0.0035 0.0023 0.0035 0.0037
1031.000000 0.0043 0.0054 0.0077 0.0105 0.0133
1036.000000 0.0152 0.0168 0.0162 0.0155 0.0132
1041.000000 0.0109 0.0094 0.0079 0.0065 0.0052
1046.000000 0.0046 0.0046 0.0046 0.0048 0.0057
1051.000000 0.0076 0.0114 0.0182 0.0287 0.0359
1056.000000 0.0452 0.0735 0.1019 0.1520 0.1729
1061.000000 0.1889 0.2089 0.2361 0.2501 0.2715
1066.000000 0.2962 0.3048 0.3142 0.3267 0.3350
1071.000000 0.3431 0.3512 0.3605 0.3698 0.3949
1076.000000 0.4411 0.4676 0.4911 0.4969 0.4975
1081.000000 0.4972 0.4916 0.4830 0.4744 0.4651
1086.000000 0.4627 0.4627 0.4636 0.4666 0.4751
1091.000000 0.4993 0.5235 0.5477 0.5719 0.5961
1096.000000 0.6203 0.6445 0.6721 0.7230 0.7401
1101.000000 0.7540 0.7675 0.7761 0.7837 0.7901
1106.000000 0.7964 0.8003 0.8042 0.8081 0.8110
1111.000000 0.8136 0.8161 0.8173 0.8185 0.8197
1116.000000 0.8208 0.8219 0.8225 0.8232 0.8239
1121.000000 0.8246 0.8252 0.8258 0.8262 0.8266
1126.000000 0.8270 0.8274 0.8278 0.8281 0.8283
1131.000000 0.8284 0.8285 0.8287 0.8288 0.8290
1136.000000 0.8293 0.8296 0.8299 0.8301 0.8310
1141.000000 0.8319 0.8329 0.8337 0.8343 0.8350
1146.000000 0.8356 0.8363 0.8369 0.8376 0.8382
1151.000000 0.8389 0.8395 0.8402 0.8408 0.8415
1156.000000 0.8422 0.8429 0.8436 0.8443 0.8450
1161.000000 0.8457 0.8463 0.8469 0.8474 0.8480
1166.000000 0.8485 0.8490 0.8491 0.8489 0.8520
1171.000000 0.8484 0.8482 0.8475 0.8467 0.8459
1176.000000 0.8450 0.8440 0.8431 0.8431 0.8460
1181.000000 0.8488 0.8510 0.8509 0.8508 0.8507
1186.000000 0.8506 0.8505 0.8504 0.8500 0.8496
1191.000000 0.8490 0.8482 0.8474 0.8466 0.8459
1196.000000 0.8448 0.8433 0.8418 0.8403 0.8388
1201.000000 0.8371 0.8351 0.8331 0.8310 0.8288
1206.000000 0.8260 0.8232 0.8204 0.8176 0.8148
1211.000000 0.8113 0.8073 0.8033 0.7993 0.7953
1216.000000 0.7913 0.7861 0.7810 0.7758 0.7707
1221.000000 0.7632 0.7555 0.7478 0.7408 0.7343
1226.000000 0.7277 0.7212 0.7149 0.7087 0.7026
1231.000000 0.6964 0.6905 0.6847 0.6790 0.6703
1236.000000 0.6596 0.6487 0.6377 0.6197 0.6034
1241.000000 0.5759 0.5631 0.5440 0.5010 0.4901
1246.000000 0.4828 0.4814 0.4833 0.4825 0.4895
1251.000000 0.4987 0.5080 0.5173 0.5266 0.5359
1256.000000 0.5452 0.5545 0.5642 0.5719 0.5727
1261.000000 0.5732 0.5761 0.5557 0.5374 0.5192
1266.000000 0.5071 0.5034 0.5077 0.5088 0.5135
1271.000000 0.5384 0.5582 0.5780 0.5978 0.6176
1276.000000 0.6374 0.6573 0.6771 0.6969 0.7167
1281.000000 0.7266 0.7395 0.7468 0.7516 0.7532
1286.000000 0.7544 0.7567 0.7535 0.7522 0.7488
1291.000000 0.7446 0.7399 0.7349 0.7298 0.7224
1296.000000 0.7139 0.7061 0.6979 0.6888 0.6790
1301.000000 0.6683 0.6580 0.6154 0.5954 0.5940
1306.000000 0.5942 0.5916 0.6029 0.6126 0.6228
1311.000000 0.6331 0.6433 0.6517 0.6519 0.6486
1316.000000 0.6352 0.6341 0.6345 0.6351 0.6358
1321.000000 0.6379 0.6426 0.6494 0.6597 0.6706
1326.000000 0.6804 0.6894 0.6984 0.7072 0.7171
1331.000000 0.7291 0.7434 0.7661 0.7725 0.7782
1336.000000 0.7818 0.7843 0.7862 0.7866 0.7864
1341.000000 0.7867 0.7852 0.7832 0.7801 0.7752
1346.000000 0.7675 0.7577 0.7436 0.7221 0.6954
1351.000000 0.6421 0.6195 0.6041 0.5848 0.5505
1356.000000 0.5136 0.4767 0.4397 0.4028 0.3659
1361.000000 0.3290 0.2920 0.2544 0.2128 0.1780
1366.000000 0.1623 0.1330 0.1239 0.1246 0.1255
1371.000000 0.1460 0.1713 0.1966 0.2219 0.2472
1376.000000 0.2681 0.2277 0.1297 0.4471 0.0733
1381.000000 0.4107 0.4460 0.2033 0.1273 0.1167
1386.000000 0.1139 0.1141 0.1175 0.1398 0.1967
1391.000000 0.2535 0.3104 0.3672 0.4241 0.4809
1396.000000 0.5378 0.5946 0.6515 0.7083 0.7608
1401.000000 0.7717 0.7887 0.7980 0.8048 0.8080
1406.000000 0.8098 0.8115 0.8131 0.8146 0.8152
1411.000000 0.8156 0.8169 0.8163 0.8166 0.8166
1416.000000 0.8166 0.8166 0.8165 0.8163 0.8162
1421.000000 0.8160 0.8155 0.8147 0.8139 0.8129
1426.000000 0.8117 0.8105 0.8091 0.8078 0.8065
1431.000000 0.8051 0.8037 0.8022 0.8008 0.7993
1436.000000 0.7973 0.7953 0.7933 0.7912 0.7892
1441.000000 0.7871 0.7850 0.7829 0.7804 0.7775
1446.000000 0.7747 0.7718 0.7691 0.7671 0.7651
1451.000000 0.7631 0.7618 0.7635 0.7647 0.7672
1456.000000 0.7698 0.7725 0.7753 0.7788 0.7822
1461.000000 0.7848 0.7848 0.7846 0.7860 0.7801
1466.000000 0.7741 0.7659 0.7592 0.7558 0.7541
1471.000000 0.7531 0.7522 0.7525 0.7527 0.7541
1476.000000 0.7558 0.7577 0.7600 0.7631 0.7665
1481.000000 0.7705 0.7746 0.7787 0.7815 0.7841
1486.000000 0.7867 0.7891 0.7915 0.7938 0.7959
1491.000000 0.7977 0.7995 0.8013 0.8033 0.8055
1496.000000 0.8076 0.8097 0.8115 0.8132 0.8149
1501.000000 0.8161 0.8173 0.8186 0.8198 0.8210
1506.000000 0.8223 0.8235 0.8246 0.8258 0.8268
1511.000000 0.8278 0.8287 0.8296 0.8304 0.8312
1516.000000 0.8320 0.8328 0.8332 0.8335 0.8338
1521.000000 0.8341 0.8344 0.8323 0.8347 0.8347
1526.000000 0.8347 0.8347 0.8345 0.8343 0.8342
1531.000000 0.8340 0.8338 0.8336 0.8335 0.8333
1536.000000 0.8331 0.8329 0.8323 0.8317 0.8311
1541.000000 0.8305 0.8299 0.8293 0.8284 0.8275
1546.000000 0.8266 0.8256 0.8246 0.8232 0.8219
1551.000000 0.8206 0.8192 0.8179 0.8165 0.8152
1556.000000 0.8138 0.8125 0.8111 0.8107 0.8105
1561.000000 0.8102 0.8103 0.8107 0.8128 0.8132
1566.000000 0.8147 0.8163 0.8179 0.8191 0.8198
1571.000000 0.8204 0.8209 0.8207 0.8199 0.8191
1576.000000 0.8184 0.8177 0.8168 0.8159 0.8152
1581.000000 0.8146 0.8143 0.8147 0.8151 0.8161
1586.000000 0.8171 0.8181 0.8193 0.8206 0.8212
1591.000000 0.8219 0.8225 0.8227 0.8228 0.8230
1596.000000 0.8231 0.8232 0.8233 0.8234 0.8234
1601.000000 0.8235 0.8236 0.8236 0.8236 0.8236
1606.000000 0.8236 0.8236 0.8237 0.8237 0.8237
1611.000000 0.8237 0.8237 0.8237 0.8238 0.8265
1616.000000 0.8238 0.8239 0.8240 0.8240 0.8241
1621.000000 0.8242 0.8242 0.8243 0.8245 0.8246
1626.000000 0.8248 0.8249 0.8250 0.8252 0.8253
1631.000000 0.8255 0.8256 0.8258 0.8259 0.8260
1636.000000 0.8262 0.8264 0.8266 0.8267 0.8269
1641.000000 0.8271 0.8273 0.8275 0.8276 0.8278
1646.000000 0.8279 0.8280 0.8281 0.8281 0.8282
1651.000000 0.8283 0.8284 0.8285 0.8286 0.8287
1656.000000 0.8287 0.8288 0.8288 0.8289 0.8289
1661.000000 0.8290 0.8290 0.8291 0.8291 0.8292
1666.000000 0.8292 0.8293 0.8293 0.8294 0.8295
1671.000000 0.8296 0.8297 0.8298 0.8299 0.8300
1676.000000 0.8300 0.8301 0.8302 0.8303 0.8304
1681.000000 0.8305 0.8306 0.8307 0.8307 0.8308
1686.000000 0.8308 0.8309 0.8309 0.8310 0.8311
1691.000000 0.8311 0.8312 0.8312 0.8313 0.8313
1696.000000 0.8312 0.8311 0.8309 0.8308 0.8306
1701.000000 0.8299 0.8292 0.8284 0.8277 0.8269
1706.000000 0.8261 0.8252 0.8243 0.8235 0.8226
1711.000000 0.8217 0.8208 0.8198 0.8188 0.8178
1716.000000 0.8168 0.8158 0.8153 0.8148 0.8143
1721.000000 0.8137 0.8132 0.8130 0.8128 0.8126
1726.000000 0.8127 0.8133 0.8139 0.8143 0.8119
1731.000000 0.8077 0.8059 0.8047 0.8043 0.8042
1736.000000 0.8045 0.8050 0.8061 0.8063 0.8070
1741.000000 0.8076 0.8082 0.8088 0.8095 0.8101
1746.000000 0.8107 0.8114 0.8121 0.8127 0.8134
1751.000000 0.8140 0.8146 0.8153 0.8159 0.8166
1756.000000 0.8173 0.8180 0.8186 0.8193 0.8200
1761.000000 0.8207 0.8216 0.8224 0.8232 0.8240
1766.000000 0.8248 0.8256 0.8264 0.8271 0.8279
1771.000000 0.8283 0.8287 0.8291 0.8295 0.8299
1776.000000 0.8300 0.8301 0.8302 0.8303 0.8304
1781.000000 0.8304 0.8304 0.8305 0.8306 0.8307
1786.000000 0.8308 0.8309 0.8310 0.8311 0.8312
1791.000000 0.8313 0.8314 0.8313 0.8312 0.8311
1796.000000 0.8309 0.8308 0.8307 0.8306 0.8305
1801.000000 0.8304 0.8305 0.8306 0.8307 0.8308
1806.000000 0.8309 0.8310 0.8311 0.8312 0.8313
1811.000000 0.8313 0.8313 0.8313 0.8314 0.8314
1816.000000 0.8314 0.8314 0.8313 0.8313 0.8312
1821.000000 0.8312 0.8312 0.8311 0.8311 0.8312
1826.000000 0.8312 0.8312 0.8311 0.8310 0.8308
1831.000000 0.8306 0.8305 0.8303 0.8301 0.8299
1836.000000 0.8298 0.8298 0.8297 0.8297 0.8297
1841.000000 0.8296 0.8296 0.8296 0.8295 0.8297
1846.000000 0.8298 0.8300 0.8301 0.8303 0.8304
1851.000000 0.8304 0.8304 0.8303 0.8303 0.8303
1856.000000 0.8302 0.8302 0.8302 0.8302 0.8303
1861.000000 0.8303 0.8304 0.8304 0.8305 0.8305
1866.000000 0.8306 0.8306 0.8307 0.8308 0.8309
1871.000000 0.8310 0.8312 0.8313 0.8314 0.8315
1876.000000 0.8316 0.8318 0.8319 0.8320 0.8320
1881.000000 0.8320 0.8320 0.8320 0.8319 0.8319
1886.000000 0.8319 0.8318 0.8318 0.8318 0.8318
1891.000000 0.8317 0.8317 0.8317 0.8317 0.8316
1896.000000 0.8316 0.8315 0.8313 0.8311 0.8309
1901.000000 0.8307 0.8306 0.8304 0.8302 0.8300
1906.000000 0.8298 0.8296 0.8294 0.8292 0.8291
1911.000000 0.8289 0.8287 0.8285 0.8283 0.8281
1916.000000 0.8280 0.8278 0.8276 0.8274 0.8272
1921.000000 0.8271 0.8269 0.8267 0.8265 0.8262
1926.000000 0.8260 0.8257 0.8255 0.8252 0.8250
1931.000000 0.8247 0.8245 0.8242 0.8240 0.8237
1936.000000 0.8235 0.8232 0.8229 0.8225 0.8222
1941.000000 0.8219 0.8216 0.8212 0.8209 0.8206
1946.000000 0.8202 0.8199 0.8194 0.8190 0.8185
1951.000000 0.8180 0.8176 0.8171 0.8167 0.8163
1956.000000 0.8159 0.8155 0.8151 0.8148 0.8148
1961.000000 0.8148 0.8148 0.8149 0.8149 0.8150
1966.000000 0.8151 0.8153 0.8153 0.8154 0.8154
1971.000000 0.8154 0.8154 0.8154 0.8154 0.8155
1976.000000 0.8155 0.8155 0.8155 0.8155 0.8157
1981.000000 0.8160 0.8164 0.8168 0.8172 0.8176
1986.000000 0.8179 0.8184 0.8190 0.8195 0.8201
1991.000000 0.8204 0.8206 0.8207 0.8208 0.8208
1996.000000 0.8208 0.8209 0.8213 0.8224 0.8235
2001.000000 0.8259 0.8284 0.8289 0.8295 0.8294
2006.000000 0.8294 0.8278 0.8262 0.8248 0.8235
2011.000000 0.8226 0.8217 0.8213 0.8210 0.8209
2016.000000 0.8208 0.8206 0.8205 0.8204 0.8203
2021.000000 0.8202 0.8202 0.8201 0.8200 0.8198
2026.000000 0.8197 0.8193 0.8189 0.8182 0.8175
2031.000000 0.8168 0.8162 0.8153 0.8145 0.8134
2036.000000 0.8123 0.8112 0.8102 0.8091 0.8080
2041.000000 0.8069 0.8058 0.8046 0.8035 0.8023
2046.000000 0.8012 0.7990 0.7968 0.7940 0.7913
2051.000000 0.7880 0.7848 0.7820 0.7793 0.7767
2056.000000 0.7742 0.7718 0.7694 0.7698 0.7722
2061.000000 0.7717 0.7732 0.7752 0.7772 0.7791
2066.000000 0.7810 0.7824 0.7839 0.7849 0.7859
2071.000000 0.7855 0.7851 0.7848 0.7846 0.7847
2076.000000 0.7849 0.7873 0.7897 0.7915 0.7934
2081.000000 0.7952 0.7971 0.7995 0.8019 0.8038
2086.000000 0.8058 0.8071 0.8085 0.8096 0.8107
2091.000000 0.8111 0.8115 0.8111 0.8108 0.8103
2096.000000 0.8098 0.8090 0.8128 0.8074 0.8066
2101.000000 0.8053 0.8041 0.8026 0.8011 0.7994
2106.000000 0.7977 0.7954 0.7932 0.7909 0.7886
2111.000000 0.7862 0.7838 0.7763 0.7688 0.7597
2116.000000 0.7506 0.7415 0.7325 0.7234 0.7143
2121.000000 0.7052 0.6961 0.6870 0.6779 0.6688
2126.000000 0.6597 0.6506 0.6415 0.6324 0.6234
2131.000000 0.6143 0.6052 0.5998 0.5944 0.5931
2136.000000 0.5919 0.5910 0.5902 0.5898 0.5895
2141.000000 0.5894 0.5893 0.5963 0.5916 0.6254
2146.000000 0.6476 0.6504 0.6532 0.6455 0.6379
2151.000000 0.6275 0.6172 0.6106 0.6041 0.6046
2156.000000 0.6052 0.6332 0.6612 0.6904 0.7196
2161.000000 0.7488 0.7780 0.7984 0.8189 0.8223
2166.000000 0.8257 0.8282 0.8307 0.8317 0.8328
2171.000000 0.8330 0.8332 0.8331 0.8330 0.8327
2176.000000 0.8325 0.8325 0.8325 0.8325 0.8325
2181.000000 0.8325 0.8326 0.8327 0.8329 0.8330
2186.000000 0.8332 0.8334 0.8336 0.8339 0.8342
2191.000000 0.8344 0.8347 0.8350 0.8353 0.8356
2196.000000 0.8360 0.8361 0.8362 0.8363 0.8364
2201.000000 0.8364 0.8365 0.8365 0.8365 0.8364
2206.000000 0.8364 0.8363 0.8363 0.8363 0.8363
2211.000000 0.8362 0.8361 0.8360 0.8359 0.8358
2216.000000 0.8358 0.8357 0.8356 0.8355 0.8354
2221.000000 0.8353 0.8352 0.8351 0.8350 0.8349
2226.000000 0.8348 0.8347 0.8346 0.8345 0.8344
2231.000000 0.8343 0.8342 0.8340 0.8338 0.8331
2236.000000 0.8325 0.8318 0.8311 0.8304 0.8298
2241.000000 0.8291 0.8284 0.8283 0.8283 0.8282
2246.000000 0.8282 0.8281 0.8280 0.8280 0.8280
2251.000000 0.8280 0.8281 0.8281 0.8281 0.8281
2256.000000 0.8281 0.8281 0.8282 0.8283 0.8284
2261.000000 0.8284 0.8285 0.8285 0.8286 0.8286
2266.000000 0.8287 0.8288 0.8289 0.8289 0.8290
2271.000000 0.8292 0.8294 0.8296 0.8298 0.8300
2276.000000 0.8303 0.8305 0.8307 0.8309 0.8312
2281.000000 0.8314 0.8317 0.8319 0.8322 0.8323
2286.000000 0.8324 0.8325 0.8326 0.8327 0.8328
2291.000000 0.8329 0.8330 0.8328 0.8327 0.8325
2296.000000 0.8324 0.8322 0.8321 0.8318 0.8316
2301.000000 0.8313 0.8311 0.8308 0.8306 0.8303
2306.000000 0.8301 0.8298 0.8296 0.8293 0.8290
2311.000000 0.8287 0.8285 0.8282 0.8280 0.8277
2316.000000 0.8274 0.8272 0.8271 0.8272 0.8273
2321.000000 0.8273 0.8274 0.8277 0.8281 0.8288
2326.000000 0.8295 0.8302 0.8309 0.8315 0.8321
2331.000000 0.8323 0.8325 0.8324 0.8324 0.8323
2336.000000 0.8322 0.8321 0.8321 0.8320 0.8320
2341.000000 0.8319 0.8319 0.8319 0.8320 0.8320
2346.000000 0.8321 0.8321 0.8322 0.8322 0.8323
2351.000000 0.8323 0.8324 0.8324 0.8324 0.8324
2356.000000 0.8324 0.8324 0.8324 0.8324 0.8324
2361.000000 0.8324 0.8325 0.8325 0.8325 0.8325
2366.000000 0.8325 0.8324 0.8324 0.8324 0.8324
2371.000000 0.8323 0.8323 0.8323 0.8323 0.8322
2376.000000 0.8322 0.8320 0.8318 0.8315 0.8312
2381.000000 0.8309 0.8307 0.8304 0.8302 0.8299
2386.000000 0.8296 0.8293 0.8291 0.8288 0.8286
2391.000000 0.8283 0.8281 0.8278 0.8275 0.8272
2396.000000 0.8270 0.8269 0.8269 0.8269 0.8270
2401.000000 0.8270 0.8270 0.8270 0.8270 0.8271
2406.000000 0.8272 0.8273 0.8275 0.8276 0.8277
2411.000000 0.8279 0.8282 0.8285 0.8288 0.8291
2416.000000 0.8295 0.8300 0.8306 0.8309 0.8313
2421.000000 0.8316 0.8319 0.8322 0.8325 0.8327
2426.000000 0.8330 0.8332 0.8335 0.8336 0.8337
2431.000000 0.8338 0.8340 0.8341 0.8343 0.8344
2436.000000 0.8346 0.8347 0.8348 0.8349 0.8350
2441.000000 0.8351 0.8353 0.8354 0.8355 0.8353
2446.000000 0.8352 0.8350 0.8349 0.8348 0.8347
2451.000000 0.8345 0.8344 0.8343 0.8342 0.8341
2456.000000 0.8340 0.8339 0.8339 0.8339 0.8339
2461.000000 0.8338 0.8338 0.8337 0.8337 0.8337
2466.000000 0.8338 0.8338 0.8339 0.8339 0.8340
2471.000000 0.8340 0.8341 0.8342 0.8343 0.8344
2476.000000 0.8345 0.8346 0.8348 0.8349 0.8350
2481.000000 0.8351 0.8353 0.8354 0.8356 0.8357
2486.000000 0.8358 0.8359 0.8361 0.8362 0.8364
2491.000000 0.8365 0.8367 0.8369 0.8371 0.8373
2496.000000 0.8375 0.8377 0.8379 0.8381 0.8383
2501.000000 0.8385 0.8387 0.8389 0.8391 0.8393
2506.000000 0.8395 0.8397 0.8399 0.8401 0.8403
2511.000000 0.8404 0.8405 0.8406 0.8408 0.8409
2516.000000 0.8411 0.8412 0.8414 0.8415 0.8417
2521.000000 0.8418 0.8419 0.8419 0.8420 0.8420
2526.000000 0.8420 0.8420 0.8421 0.8421 0.8421
2531.000000 0.8421 0.8422 0.8422 0.8422 0.8422
2536.000000 0.8423 0.8423 0.8424 0.8424 0.8424
2541.000000 0.8424 0.8425 0.8425 0.8425 0.8424
2546.000000 0.8424 0.8424 0.8424 0.8423 0.8423
2551.000000 0.8423 0.8423 0.8422 0.8422 0.8422
2556.000000 0.8422 0.8421 0.8421 0.8421 0.8421
2561.000000 0.8420 0.8420 0.8420 0.8420 0.8419
2566.000000 0.8419 0.8418 0.8417 0.8415 0.8414
2571.000000 0.8413 0.8412 0.8411 0.8410 0.8409
2576.000000 0.8408 0.8407 0.8406 0.8405 0.8404
2581.000000 0.8402 0.8401 0.8400 0.8399 0.8398
2586.000000 0.8397 0.8396 0.8395 0.8394 0.8393
2591.000000 0.8392 0.8391 0.8390 0.8389 0.8388
2596.000000 0.8387 0.8386 0.8385 0.8384 0.8383
2601.000000 0.8382 0.8381 0.8380 0.8379 0.8378
2606.000000 0.8377 0.8376 0.8375 0.8374 0.8373
2611.000000 0.8372 0.8372 0.8371 0.8370 0.8369
2616.000000 0.8368 0.8367 0.8367 0.8366 0.8365
2621.000000 0.8364 0.8364 0.8363 0.8362 0.8361
2626.000000 0.8360 0.8359 0.8359 0.8358 0.8357
2631.000000 0.8356 0.8356 0.8355 0.8354 0.8353
2636.000000 0.8353 0.8352 0.8351 0.8350 0.8350
2641.000000 0.8349 0.8348 0.8347 0.8347 0.8346
2646.000000 0.8346 0.8345 0.8344 0.8343 0.8343
2651.000000 0.8342 0.8341 0.8340 0.8340 0.8339
2656.000000 0.8339 0.8338 0.8337 0.8336 0.8335
2661.000000 0.8333 0.8332 0.8331 0.8330 0.8329
2666.000000 0.8328 0.8326 0.8325 0.8324 0.8323
2671.000000 0.8322 0.8321 0.8319 0.8318 0.8317
2676.000000 0.8316 0.8315 0.8314 0.8313 0.8312
2681.000000 0.8311 0.8310 0.8308 0.8307 0.8306
2686.000000 0.8305 0.8304 0.8303 0.8302 0.8301
2691.000000 0.8300 0.8299 0.8297 0.8296 0.8295
2696.000000 0.8294 0.8290 0.8286 0.8282 0.8278
2701.000000 0.8274 0.8270 0.8266 0.8263 0.8259
2706.000000 0.8255 0.8251 0.8247 0.8242 0.8237
2711.000000 0.8230 0.8223 0.8215 0.8208 0.8200
2716.000000 0.8193 0.8189 0.8186 0.8182 0.8179
2721.000000 0.8175 0.8172 0.8170 0.8169 0.8167
2726.000000 0.8165 0.8163 0.8162 0.8162 0.8162
2731.000000 0.8162 0.8162 0.8162 0.8162 0.8162
2736.000000 0.8162 0.8162 0.8162 0.8162 0.8163
2741.000000 0.8165 0.8168 0.8173 0.8178 0.8185
2746.000000 0.8192 0.8205 0.8218 0.8233 0.8249
2751.000000 0.8260 0.8272 0.8283 0.8294 0.8301
2756.000000 0.8308 0.8313 0.8318 0.8322 0.8327
2761.000000 0.8330 0.8333 0.8336 0.8339 0.8342
2766.000000 0.8345 0.8346 0.8348 0.8349 0.8350
2771.000000 0.8351 0.8352 0.8353 0.8354 0.8354
2776.000000 0.8355 0.8355 0.8356 0.8356 0.8357
2781.000000 0.8357 0.8387 0.8358 0.8359 0.8359
2786.000000 0.8359 0.8359 0.8360 0.8360 0.8360
2791.000000 0.8360 0.8360 0.8360 0.8361 0.8361
2796.000000 0.8361 0.8360 0.8359 0.8350 0.8342
2801.000000 0.8331 0.8320 0.8309 0.8299 0.8285
2806.000000 0.8272 0.8257 0.8242 0.8228 0.8215
2811.000000 0.8205 0.8196 0.8187 0.8178 0.8169
2816.000000 0.8160 0.8157 0.8154 0.8150 0.8147
2821.000000 0.8146 0.8146 0.8146 0.8146 0.8152
2826.000000 0.8158 0.8176 0.8194 0.8204 0.8215
2831.000000 0.8218 0.8222 0.8224 0.8226 0.8227
2836.000000 0.8228 0.8225 0.8222 0.8213 0.8205
2841.000000 0.8192 0.8180 0.8164 0.8148 0.8132
2846.000000 0.8116 0.8097 0.8078 0.8059 0.8040
2851.000000 0.8021 0.8002 0.7983 0.7964 0.7942
2856.000000 0.7921 0.7898 0.7875 0.7851 0.7828
2861.000000 0.7803 0.7779 0.7752 0.7726 0.7699
2866.000000 0.7673 0.7646 0.7619 0.7585 0.7551
2871.000000 0.7505 0.7460 0.7409 0.7359 0.7291
2876.000000 0.7224 0.7033 0.6843 0.6680 0.6517
2881.000000 0.6462 0.6408 0.6325 0.6242 0.6148
2886.000000 0.6055 0.6039 0.6023 0.6018 0.6013
2891.000000 0.6074 0.6135 0.6263 0.6392 0.6520
2896.000000 0.6648 0.6770 0.6893 0.6891 0.6890
2901.000000 0.6669 0.6449 0.6206 0.5964 0.5941
2906.000000 0.5919 0.5911 0.5903 0.5896 0.5890
2911.000000 0.5884 0.5878 0.5872 0.5867 0.5861
2916.000000 0.5856 0.5846 0.5836 0.5821 0.5807
2921.000000 0.5785 0.5763 0.5740 0.5718 0.5630
2926.000000 0.5543 0.5449 0.5355 0.5261 0.5167
2931.000000 0.5073 0.4979 0.4885 0.4791 0.4697
2936.000000 0.4603 0.4509 0.4415 0.4330 0.4246
2941.000000 0.4185 0.4125 0.4072 0.4020 0.3999
2946.000000 0.3979 0.3966 0.3953 0.3954 0.3954
2951.000000 0.4017 0.4080 0.4143 0.4206 0.4269
2956.000000 0.4333 0.4396 0.4459 0.4522 0.4628
2961.000000 0.4392 0.4199 0.3792 0.3386 0.2979
2966.000000 0.2573 0.2400 0.2227 0.2274 0.2238
2971.000000 0.2603 0.2885 0.3167 0.3449 0.3731
2976.000000 0.4013 0.4289 0.4566 0.4610 0.4654
2981.000000 0.4826 0.4998 0.5098 0.5199 0.5253
2986.000000 0.5308 0.5355 0.5402 0.5443 0.5485
2991.000000 0.5518 0.5551 0.5747 0.5943 0.6027
2996.000000 0.6111 0.6205 0.6299 0.6555 0.6812
3001.000000 0.6935 0.7058 0.7165 0.7273 0.7365
3006.000000 0.7458 0.7503 0.7548 0.7592 0.7637
3011.000000 0.7699 0.7762 0.7831 0.7901 0.7948
3016.000000 0.7995 0.8042 0.8089 0.8122 0.8155
3021.000000 0.8184 0.8213 0.8234 0.8256 0.8265
3026.000000 0.8275 0.8284 0.8294 0.8303 0.8313
3031.000000 0.8320 0.8328 0.8332 0.8337 0.8342
3036.000000 0.8347 0.8351 0.8355 0.8358 0.8361
3041.000000 0.8364 0.8368 0.8371 0.8374 0.8375
3046.000000 0.8376 0.8377 0.8378 0.8379 0.8380
3051.000000 0.8381 0.8382 0.8382 0.8383 0.8384
3056.000000 0.8385 0.8386 0.8387 0.8387 0.8387
3061.000000 0.8387 0.8387 0.8387 0.8387 0.8387
3066.000000 0.8387 0.8387 0.8387 0.8387 0.8388
3071.000000 0.8388 0.8388 0.8388 0.8388 0.8388
3076.000000 0.8388 0.8388 0.8388 0.8388 0.8388
3081.000000 0.8388 0.8389 0.8389 0.8389 0.8389
3086.000000 0.8389 0.8389 0.8389 0.8389 0.8389
3091.000000 0.8389 0.8390 0.8390 0.8390 0.8390
3096.000000 0.8391 0.8391 0.8391 0.8391 0.8392
3101.000000 0.8392 0.8392 0.8392 0.8393 0.8393
3106.000000 0.8394 0.8394 0.8394 0.8394 0.8395
3111.000000 0.8394 0.8394 0.8393 0.8393 0.8393
3116.000000 0.8393 0.8392 0.8392 0.8391 0.8391
3121.000000 0.8391 0.8391 0.8390 0.8390 0.8389
3126.000000 0.8389 0.8389 0.8389 0.8388 0.8388
3131.000000 0.8387 0.8386 0.8385 0.8385 0.8384
3136.000000 0.8383 0.8382 0.8382 0.8381 0.8380
3141.000000 0.8379 0.8379 0.8378 0.8377 0.8376
3146.000000 0.8376 0.8375 0.8375 0.8375 0.8375
3151.000000 0.8375 0.8376 0.8376 0.8376 0.8376
3156.000000 0.8377 0.8377 0.8378 0.8378 0.8378
3161.000000 0.8378 0.8379 0.8379 0.8379 0.8379
3166.000000 0.8380 0.8380 0.8381 0.8381 0.8382
3171.000000 0.8382 0.8383 0.8383 0.8384 0.8384
3176.000000 0.8385 0.8385 0.8386 0.8386 0.8387
3181.000000 0.8387 0.8388 0.8388 0.8389 0.8391
3186.000000 0.8394 0.8396 0.8399 0.8401 0.8404
3191.000000 0.8406 0.8409 0.8411 0.8414 0.8416
3196.000000 0.8419 0.8422 0.8425 0.8427 0.8429
3201.000000 0.8431 0.8433 0.8435 0.8437 0.8439
3206.000000 0.8441 0.8443 0.8445 0.8447 0.8449
3211.000000 0.8451 0.8453 0.8455 0.8458 0.8457
3216.000000 0.8456 0.8455 0.8455 0.8454 0.8453
3221.000000 0.8452 0.8452 0.8451 0.8450 0.8447
3226.000000 0.8444 0.8441 0.8439 0.8436 0.8434
3231.000000 0.8431 0.8429 0.8426 0.8424 0.8421
3236.000000 0.8418 0.8413 0.8408 0.8401 0.8395
3241.000000 0.8389 0.8383 0.8376 0.8370 0.8363
3246.000000 0.8356 0.8348 0.8340 0.8332 0.8324
3251.000000 0.8316 0.8308 0.8300 0.8292 0.8280
3256.000000 0.8268 0.8256 0.8244 0.8231 0.8219
3261.000000 0.8206 0.8194 0.8175 0.8157 0.8133
3266.000000 0.8110 0.8087 0.8064 0.8040 0.8017
3271.000000 0.7990 0.7964 0.7937 0.7911 0.7884
3276.000000 0.7858 0.7831 0.7805 0.7763 0.7721
3281.000000 0.7670 0.7619 0.7567 0.7515 0.7456
3286.000000 0.7397 0.7338 0.7280 0.7177 0.7074
3291.000000 0.6895 0.6717 0.6560 0.6403 0.6242
3296.000000 0.6082 0.5953 0.5824 0.5752 0.5681
3301.000000 0.5584 0.5487 0.5042 0.4598 0.4028
3306.000000 0.3459 0.3155 0.2851 0.2684 0.2518
3311.000000 0.2137 0.1756 0.1375 0.0994 0.0821
3316.000000 0.0590 0.0726 0.0804 0.1053 0.1302
3321.000000 0.1347 0.1404 0.1375 0.1358 0.1244
3326.000000 0.1131 0.1153 0.1052 0.1475 0.1774
3331.000000 0.1918 0.2071 0.1679 0.1295 0.0914
3336.000000 0.0533 0.0528 0.0530 0.0600 0.0678
3341.000000 0.0916 0.1155 0.1393 0.1632 0.1831
3346.000000 0.2031 0.2960 0.3890 0.4914 0.5939
3351.000000 0.6601 0.7263 0.7556 0.7850 0.7874
3356.000000 0.7898 0.7922 0.7946 0.7969 0.7992
3361.000000 0.8014 0.8037 0.8059 0.8081 0.8098
3366.000000 0.8115 0.8130 0.8146 0.8162 0.8178
3371.000000 0.8194 0.8210 0.8225 0.8240 0.8252
3376.000000 0.8265 0.8277 0.8289 0.8301 0.8314
3381.000000 0.8326 0.8338 0.8349 0.8360 0.8369
3386.000000 0.8378 0.8386 0.8395 0.8403 0.8412
3391.000000 0.8420 0.8429 0.8436 0.8444 0.8447
3396.000000 0.8451 0.8455 0.8459 0.8463 0.8467
3401.000000 0.8470 0.8474 0.8476 0.8478 0.8480
3406.000000 0.8482 0.8484 0.8486 0.8488 0.8490
3411.000000 0.8492 0.8494 0.8496 0.8498 0.8498
3416.000000 0.8499 0.8500 0.8501 0.8501 0.8502
3421.000000 0.8502 0.8503 0.8504 0.8505 0.8505
3426.000000 0.8506 0.8506 0.8507 0.8507 0.8508
3431.000000 0.8508 0.8509 0.8510 0.8511 0.8511
3436.000000 0.8512 0.8512 0.8513 0.8513 0.8514
3441.000000 0.8514 0.8515 0.8515 0.8515 0.8515
3446.000000 0.8515 0.8515 0.8515 0.8514 0.8514
3451.000000 0.8514 0.8514 0.8514 0.8514 0.8514
3456.000000 0.8514 0.8513 0.8513 0.8513 0.8513
3461.000000 0.8512 0.8512 0.8511 0.8511 0.8511
3466.000000 0.8511 0.8510 0.8510 0.8509 0.8509
3471.000000 0.8509 0.8509 0.8508 0.8508 0.8507
3476.000000 0.8507 0.8507 0.8507 0.8507 0.8507
3481.000000 0.8507 0.8507 0.8507 0.8507 0.8507
3486.000000 0.8507 0.8507 0.8508 0.8508 0.8508
3491.000000 0.8508 0.8508 0.8508 0.8508 0.8508
3496.000000 0.8508 0.8508 0.8509 0.8509 0.8510
3501.000000 0.8510 0.8511 0.8511 0.8512 0.8512
3506.000000 0.8513 0.8513 0.8514 0.8514 0.8514
3511.000000 0.8514 0.8515 0.8515 0.8516 0.8516
3516.000000 0.8517 0.8517 0.8518 0.8518 0.8519
3521.000000 0.8519 0.8519 0.8519 0.8520 0.8520
3526.000000 0.8520 0.8520 0.8521 0.8521 0.8521
3531.000000 0.8521 0.8522 0.8522 0.8523 0.8523
3536.000000 0.8523 0.8524 0.8525 0.8526 0.8528
3541.000000 0.8529 0.8530 0.8531 0.8532 0.8533
3546.000000 0.8534 0.8535 0.8536 0.8537 0.8539
3551.000000 0.8540 0.8541 0.8542 0.8543 0.8543
3556.000000 0.8544 0.8544 0.8545 0.8545 0.8545
3561.000000 0.8545 0.8546 0.8546 0.8546 0.8546
3566.000000 0.8547 0.8547 0.8547 0.8547 0.8548
3571.000000 0.8548 0.8548 0.8548 0.8549 0.8549
3576.000000 0.8549 0.8549 0.8550 0.8550 0.8550
3581.000000 0.8549 0.8549 0.8548 0.8547 0.8546
3586.000000 0.8547 0.8544 0.8544 0.8543 0.8542
3591.000000 0.8541 0.8541 0.8540 0.8539 0.8538
3596.000000 0.8537 0.8536 0.8536 0.8535 0.8534
3601.000000 0.8533 0.8532 0.8530 0.8529 0.8527
3606.000000 0.8526 0.8524 0.8522 0.8520 0.8519
3611.000000 0.8517 0.8516 0.8514 0.8512 0.8510
3616.000000 0.8509 0.8507 0.8505 0.8503 0.8502
3621.000000 0.8500 0.8499 0.8497 0.8496 0.8494
3626.000000 0.8493 0.8491 0.8490 0.8488 0.8487
3631.000000 0.8486 0.8486 0.8492 0.8498 0.8504
3636.000000 0.8511 0.8518 0.8526 0.8534 0.8542
3641.000000 0.8549 0.8557 0.8562 0.8567 0.8572
3646.000000 0.8577 0.8582 0.8587 0.8585 0.8583
3651.000000 0.8581 0.8579 0.8577 0.8576 0.8572
3656.000000 0.8569 0.8565 0.8562 0.8558 0.8554
3661.000000 0.8550 0.8547 0.8542 0.8538 0.8534
3666.000000 0.8530 0.8525 0.8521 0.8517 0.8513
3671.000000 0.8509 0.8505 0.8505 0.8506 0.8507
3676.000000 0.8508 0.8509 0.8511 0.8513 0.8515
3681.000000 0.8517 0.8520 0.8523 0.8526 0.8528
3686.000000 0.8531 0.8534 0.8537 0.8539 0.8542
3691.000000 0.8544 0.8547 0.8550 0.8553 0.8555
3696.000000 0.8558 0.8560 0.8563 0.8566 0.8569
3701.000000 0.8571 0.8574 0.8577 0.8580 0.8581
3706.000000 0.8582 0.8582 0.8583 0.8584 0.8585
3711.000000 0.8586 0.8587 0.8588 0.8589 0.8589
3716.000000 0.8590 0.8591 0.8592 0.8592 0.8592
3721.000000 0.8591 0.8591 0.8590 0.8590 0.8589
3726.000000 0.8589 0.8588 0.8588 0.8587 0.8587
3731.000000 0.8586 0.8585 0.8584 0.8584 0.8583
3736.000000 0.8582 0.8581 0.8580 0.8579 0.8578
3741.000000 0.8577 0.8577 0.8576 0.8575 0.8573
3746.000000 0.8572 0.8570 0.8569 0.8567 0.8566
3751.000000 0.8564 0.8563 0.8561 0.8560 0.8558
3756.000000 0.8557 0.8557 0.8557 0.8556 0.8556
3761.000000 0.8556 0.8556 0.8555 0.8555 0.8555
3766.000000 0.8555 0.8555 0.8555 0.8554 0.8554
3771.000000 0.8554 0.8554 0.8554 0.8554 0.8553
3776.000000 0.8553 0.8553 0.8553 0.8552 0.8552
3781.000000 0.8552 0.8552 0.8552 0.8552 0.8552
3786.000000 0.8552
##END=
