##TITLE=Methallylamine
##JCAMP-DX=4.24
##DATA TYPE=INFRARED SPECTRUM
##ORIGIN=EPA-IR VAPOR PHASE LIBRARY
##OWNER=SRD/NIST
Collection (C) 2018 copyright by the U.S. Secretary of Commerce
on behalf of the United States of America. All rights reserved.
##CAS REGISTRY NO=2878-14-0
##MOLFORM=C 4 H 9 N
##$NIST SOURCE=MSDC-IR
##STATE=gas
##XUNITS=1/CM
##YUNITS=ABSORBANCE
##XFACTOR=1.
##YFACTOR=0.001
##DELTAX=1.92898
##FIRSTX=549.8
##LASTX=4000.7
##FIRSTY=21.24
##MAXX=4000.7
##MINX=549.759
##MAXY=0.1259
##MINY=0.0001451
##NPOINTS=1790
##XYDATA=(X++(Y..Y))
549.759 21.24 20.37 19.62 19.54 19.09 18.5 18.09 17.51 17.13 16.83
569.049 16.27 15.67 15.55 15.04 14.55 14.43 14.27 14.08 13.83 13.66
588.339 13.42 13.34 13.17 13 13.09 13.33 13.34 13.2 13.43 13.53
607.628 13.56 13.67 13.66 13.83 14.16 14.41 14.5 14.83 15.02 15.14
626.918 15.39 15.58 15.85 16.03 16.43 16.82 17.21 17.54 17.65 18.11
646.208 18.55 19.01 19.57 20.03 20.49 20.79 21.04 21.7 22.52 22.93
665.498 23.25 23.99 24.94 25.71 26.32 27.04 27.83 28.57 29.37 30.13
684.787 30.99 32.14 33.31 34.28 35.32 36.33 37.46 38.78 40.09 41.48
704.077 43.08 44.72 46.33 48.21 50.19 52.56 55.14 57.76 60.7 63.78
723.367 67.47 71.62 75.71 80 84.27 88.31 92.1 95.42 98.48 100.92
742.657 102.65 103.92 104.9 106.3 108.09 108.6 107.07 105.01 103.36 101.19
761.947 98.45 95.4 91.49 87.02 82.19 77.25 72.54 68.16 64.2 60.62
781.236 57.55 54.85 52.69 50.87 49.22 48.19 47.35 46.73 46.4 46.13
800.526 45.94 45.91 46.3 46.77 47.26 47.86 48.57 49.54 50.26 50.91
819.816 51.69 52.44 53.16 53.47 53.37 53.31 53.53 53.63 53.35 52.96
839.106 52.68 52.59 52.42 52.33 52.41 52.41 52.19 51.93 52.18 52.58
858.395 52.92 53.79 54.94 56.42 58.29 60.31 62.85 65.77 69.1 72.83
877.685 75.73 77.59 79.43 81.56 84.39 88.05 92.45 98.37 106.72 117.71
896.975 125.9 120.45 104.25 90.38 82.09 77.03 73.38 70.22 67.64 64.84
916.265 61.68 58.14 54.01 49.84 45.68 41.39 37.39 33.93 30.71 27.75
935.555 25.33 23.58 22.18 20.99 20.2 19.73 19.45 19.19 18.9 18.71
954.844 18.56 18.43 18.5 18.49 18.47 18.4 18.19 18.02 17.95 17.93
974.134 17.76 17.66 17.72 17.64 17.36 17.05 17.05 17.05 16.87 16.74
993.424 16.58 16.43 16.43 16.47 16.63 16.63 16.52 16.67 16.98 17.41
1012.714 17.96 18.77 19.5 20.35 21.33 22.33 23.7 25.06 26.13 27.54
1032.003 29.21 30.4 31.39 32.47 33.37 33.96 34.4 35.24 35.93 35.72
1051.293 35.25 35.07 34.8 34.69 34.62 34.07 32.97 31.55 29.96 28.38
1070.583 27.14 26.1 24.94 23.82 22.9 21.55 20.44 19.92 19.08 18.02
1089.873 17.2 16.31 15.37 14.35 13.58 13.02 12.53 12.05 11.2 10.49
1109.163 10.19 9.6 8.7 8.28 8.29 8.12 7.59 7.27 7.01 6.85
1128.452 6.77 6.71 6.71 6.45 6.25 6.25 6.38 6.33 6.23 6.26
1147.742 6.25 6.32 6.39 6.08 5.7 5.86 5.78 5.57 5.72 5.77
1167.032 5.78 5.71 5.34 5.22 5.36 5.25 5.22 5.3 5.02 4.74
1186.322 4.65 4.78 4.95 4.99 4.9 4.85 5.19 5.36 5.37 5.09
1205.611 5 5.45 5.82 6.23 6.5 6.51 6.69 7.05 7.14 7.38
1224.901 7.83 8.41 8.97 9.27 9.52 9.5 9.73 10.2 10.42 10.49
1244.191 10.65 10.89 10.94 11.1 11.22 11.19 11.22 11.17 10.93 10.62
1263.481 10.11 9.73 9.59 9.57 9.6 9.6 9.75 9.72 9.61 9.58
1282.771 9.64 9.81 9.89 9.83 9.97 10.14 10.26 10.32 10.25 10.22
1302.060 10.26 10.31 10.3 10.33 10.38 10.37 10.37 10.32 10.29 10.29
1321.350 10.35 10.6 10.75 10.86 11.11 11.36 11.69 12.07 12.51 13.02
1340.640 13.52 14.03 14.59 15.27 16.09 17 17.99 19.03 20.16 21.38
1359.930 22.66 24.04 25.37 26.61 27.72 28.61 29.2 29.49 29.9 30.7
1379.219 31.77 32.55 32.66 32.48 32.36 32.19 31.8 31.09 30.12 28.99
1398.509 27.71 26.48 25.44 24.54 23.89 23.5 23.29 23.16 23.21 23.56
1417.799 24.03 24.6 25.36 26.27 27.28 28.31 29.41 30.48 31.59 32.8
1437.089 34.01 35.19 36.4 37.47 38.25 38.73 39 39.3 39.41 39.09
1456.378 38.52 37.91 37.19 36.37 35.53 34.59 33.45 32.16 30.72 29.17
1475.668 27.65 25.98 24.3 22.65 20.99 19.37 17.84 16.49 15.28 14.18
1494.958 13.21 12.37 11.64 11.04 10.49 10 9.6 9.26 9 8.77
1514.248 8.59 8.53 8.49 8.46 8.44 8.41 8.43 8.48 8.49 8.58
1533.538 8.74 8.88 8.99 9.07 9.17 9.39 9.6 9.75 9.91 10.14
1552.827 10.38 10.66 10.9 11.2 11.54 11.89 12.24 12.51 12.94 13.45
1572.117 13.89 14.45 15.04 15.62 16.26 17.01 17.82 18.67 19.62 20.68
1591.407 21.86 23.17 24.59 26.05 27.58 29.17 30.76 32.36 33.88 35.38
1610.697 36.71 37.92 39.18 40.3 41.43 42.43 43.27 43.95 44.39 44.84
1629.986 45.29 45.56 45.64 45.62 45.47 44.97 44.25 43.35 42.18 40.97
1649.276 39.57 38.09 36.62 35.21 33.81 32.41 31.19 30.12 29.01 27.68
1668.566 25.99 23.99 21.86 19.62 17.47 15.57 13.82 12.29 10.91 9.75
1687.856 8.77 7.95 7.27 6.67 6.19 5.79 5.43 5.12 4.86 4.6
1707.146 4.4 4.33 4.31 4.2 4.14 4.1 4.03 3.99 3.97 3.96
1726.435 3.86 3.71 3.7 3.66 3.59 3.67 3.72 3.74 3.74 3.71
1745.725 3.75 3.8 3.86 3.9 3.91 4.05 4.2 4.34 4.52 4.69
1765.015 4.89 5.14 5.4 5.62 5.91 6.26 6.56 6.88 7.26 7.61
1784.305 7.88 8.17 8.42 8.54 8.65 8.82 8.93 8.97 8.95 8.83
1803.594 8.75 8.71 8.62 8.42 8.16 7.82 7.43 7.11 6.74 6.19
1822.884 5.72 5.39 5 4.65 4.36 4.09 3.85 3.61 3.4 3.23
1842.174 3.12 3.03 2.95 2.81 2.68 2.66 2.58 2.5 2.48 2.43
1861.464 2.36 2.32 2.29 2.18 2.14 2.09 1.99 1.93 1.89 1.86
1880.754 1.83 1.76 1.7 1.74 1.72 1.67 1.64 1.56 1.49 1.49
1900.043 1.51 1.46 1.4 1.38 1.36 1.33 1.3 1.27 1.23 1.19
1919.333 1.18 1.18 1.19 1.17 1.13 1.1 1.1 1.07 1.01 1.01
1938.623 0.9792 0.9568 0.987 0.9457 0.8606 0.8126 0.8462 0.9136 0.9218 0.8298
1957.913 0.792 0.793 0.8074 0.8089 0.8076 0.8669 0.8378 0.7689 0.799 0.7996
1977.202 0.7485 0.7621 0.789 0.7639 0.7505 0.7772 0.7332 0.7128 0.7057 0.6599
1996.492 0.6333 0.6437 0.6346 0.6163 0.7028 0.7594 0.7577 0.7399 0.6721 0.6403
2015.782 0.6267 0.6139 0.6631 0.697 0.6961 0.6859 0.6627 0.7211 0.7305 0.6626
2035.072 0.6706 0.6962 0.7792 0.7899 0.8101 0.8401 0.8028 0.8218 0.8267 0.8129
2054.362 0.8695 0.9144 0.8683 0.8593 0.8909 0.8926 0.925 0.8733 0.808 0.8876
2073.651 0.952 0.9303 0.8741 0.8914 0.9434 0.9523 0.9394 0.9354 0.8749 0.8261
2092.941 0.82 0.8419 0.833 0.7464 0.7239 0.7254 0.7578 0.7967 0.7161 0.7318
2112.231 0.7988 0.7397 0.6894 0.6965 0.6941 0.6955 0.6901 0.6251 0.6208 0.6198
2131.521 0.6081 0.6559 0.6723 0.6547 0.6604 0.6717 0.6571 0.6635 0.6474 0.6741
2150.810 0.65 0.5438 0.5438 0.5688 0.5825 0.6051 0.6505 0.6847 0.6599 0.5889
2170.100 0.5269 0.6327 0.744 0.7432 0.6832 0.639 0.6235 0.5511 0.6146 0.664
2189.390 0.6754 0.6702 0.6277 0.6217 0.5414 0.5517 0.5863 0.5095 0.5028 0.5344
2208.680 0.5322 0.53 0.4094 0.417 0.5044 0.5063 0.5041 0.4433 0.4358 0.453
2227.970 0.4065 0.3868 0.4084 0.4225 0.4167 0.4446 0.4627 0.4036 0.3828 0.3922
2247.259 0.4229 0.4143 0.4113 0.4264 0.4312 0.3886 0.3734 0.3945 0.4655 0.5087
2266.549 0.466 0.4721 0.4269 0.372 0.4435 0.5104 0.5326 0.5113 0.4706 0.4933
2285.839 0.5178 0.5871 0.6063 0.5547 0.4945 0.5095 0.5655 0.5751 0.5947 0.5912
2305.129 0.6466 0.6996 0.7008 0.6437 0.5489 0.5147 0.5546 0.639 0.598 0.5899
2324.418 0.577 0.5846 0.6522 0.6546 0.5994 0.5867 0.5886 0.5472 0.5673 0.5841
2343.708 0.5776 0.522 0.4853 0.484 0.454 0.4379 0.4121 0.3466 0.3641 0.3713
2362.998 0.3996 0.4402 0.4311 0.4358 0.4113 0.4148 0.4564 0.4741 0.4853 0.4962
2382.288 0.4819 0.477 0.4483 0.4681 0.531 0.4988 0.4951 0.4819 0.4832 0.5158
2401.578 0.4651 0.4576 0.4624 0.466 0.4941 0.4374 0.4368 0.4442 0.4301 0.4724
2420.867 0.524 0.5493 0.5387 0.5338 0.5346 0.5611 0.5074 0.4812 0.5832 0.617
2440.157 0.5481 0.585 0.6688 0.6272 0.5759 0.6009 0.5928 0.5419 0.5406 0.6048
2459.447 0.6009 0.5621 0.5624 0.5601 0.5988 0.6266 0.6499 0.65 0.6152 0.646
2478.737 0.689 0.678 0.669 0.6723 0.6718 0.7223 0.6853 0.6464 0.7465 0.785
2498.026 0.7968 0.7333 0.7233 0.7746 0.7337 0.7582 0.7464 0.701 0.7151 0.77
2517.316 0.7977 0.7502 0.7225 0.7582 0.7812 0.7751 0.7918 0.7975 0.7897 0.8042
2536.606 0.7934 0.7015 0.7226 0.8202 0.844 0.8274 0.7214 0.7379 0.8302 0.8032
2555.896 0.7642 0.7489 0.7465 0.819 0.8747 0.8933 0.9138 0.924 1.03 1.02
2575.186 0.9434 0.962 0.8982 0.9408 1.03 0.9822 1.03 1.08 1.1 1.22
2594.475 1.29 1.27 1.22 1.21 1.26 1.37 1.4 1.34 1.39 1.47
2613.765 1.51 1.53 1.55 1.67 1.73 1.77 1.84 1.87 1.89 1.89
2633.055 1.87 1.91 2.02 2.04 2.12 2.27 2.35 2.45 2.52 2.47
2652.345 2.42 2.53 2.66 2.73 2.84 2.89 2.91 2.94 2.92 3.05
2671.634 3.26 3.32 3.33 3.41 3.45 3.46 3.52 3.61 3.73 3.77
2690.924 3.8 3.89 3.97 4.2 4.32 4.41 4.54 4.58 4.72 4.96
2710.214 5.22 5.42 5.63 5.86 6.08 6.32 6.59 6.87 7.13 7.32
2729.504 7.48 7.75 8.09 8.33 8.58 8.89 9.17 9.43 9.57 9.64
2748.794 9.78 9.93 9.92 9.85 9.83 10.06 10.21 10.17 10.21 10.34
2768.083 10.41 10.39 10.48 10.62 10.79 10.92 11.04 11.2 11.41 11.74
2787.373 12.04 12.5 13.06 13.5 14.03 14.84 15.64 16.44 17.31 18.19
2806.663 19.21 20.38 21.68 23.01 24.43 25.91 27.46 29.04 30.68 32.42
2825.953 34.3 36.35 38.32 40.49 42.93 45.33 47.76 50.27 52.78 55.14
2845.242 57.42 59.71 62 63.97 65.93 68.03 70.01 71.75 73.3 74.69
2864.532 75.85 76.96 77.72 78.03 78.25 78.56 78.81 79.08 79.73 80.5
2883.822 81.33 82.39 83.32 84.19 85.42 86.79 88.13 89.57 91.09 92.87
2903.112 94.67 96.7 98.42 99.69 100.95 102.19 103.41 104.33 104.95 105.07
2922.401 104.85 104.4 103.41 102.04 100.64 99.44 98.39 97.05 95.36 93.74
2941.691 92.57 91.54 89.4 85.33 80.93 77.5 74.9 73.18 72.26 71.91
2960.981 71.59 71.35 71.41 71.55 71.47 70.86 69.75 68.5 67.9 68.32
2980.271 69 67.86 64.5 61.91 61.03 60.54 59.57 57.65 54.78 51.37
2999.561 47.81 44.2 40.69 37.54 34.73 32.16 29.8 27.66 25.63 23.84
3018.850 22.23 20.71 19.44 18.49 17.82 17.12 16.48 16.05 15.61 15.29
3038.140 15.41 15.47 15.57 15.9 16.4 17.16 18.11 19.46 21.08 22.83
3057.430 25.06 27.61 30.36 33.27 36.04 38.46 40.22 41.34 41.92 42.31
3076.720 43.12 44.67 45.9 44.72 42.76 42.68 42.61 41.57 40.25 38.58
3096.009 36.3 33.47 30.18 26.45 22.88 19.77 16.94 14.46 12.47 10.87
3115.299 9.34 7.93 6.85 5.86 5.04 4.59 4.26 3.86 3.54 3.33
3134.589 3.13 2.9 2.84 2.71 2.33 2.09 1.97 2.04 2 1.85
3153.879 1.75 1.7 1.66 1.58 1.61 1.5 1.56 1.57 1.47 1.47
3173.169 1.44 1.43 1.37 1.32 1.15 1.16 1.29 1.32 1.41 1.36
3192.458 1.35 1.46 1.41 1.19 1.03 1.1 1.2 1.23 1.15 1.09
3211.748 1.05 1.01 1.11 1.14 1.11 1.08 1.01 0.878 0.8206 0.8603
3231.038 0.8176 0.7489 0.8816 1 0.9943 1.02 0.8988 0.799 0.952 1.07
3250.328 0.9432 0.8785 1.03 0.9837 0.8592 0.8398 0.8535 0.8218 0.8286 0.888
3269.617 0.9096 1.01 0.9023 0.7214 0.8253 1.09 1.08 0.8809 0.8722 0.8319
3288.907 0.9194 1.07 0.9726 0.9548 1.02 0.9335 0.9031 0.9492 0.8457 0.8893
3308.197 1.03 1.2 1.33 1.09 1.02 1.18 1.3 1.44 1.48 1.63
3327.487 1.81 1.82 1.77 1.89 2.08 2.13 2.3 2.46 2.59 2.7
3346.777 2.78 2.7 2.54 2.51 2.71 2.83 2.68 2.49 2.45 2.46
3366.066 2.39 2.29 2.23 2.08 1.85 1.71 1.7 1.77 1.62 1.44
3385.356 1.34 1.44 1.51 1.41 1.41 1.53 1.58 1.5 1.54 1.66
3404.646 1.57 1.57 1.7 1.81 1.94 1.99 2.23 2.27 2.09 2.15
3423.936 2.06 1.86 1.89 1.85 1.68 1.63 1.67 1.59 1.3 1.24
3443.225 1.21 1.14 1.18 1.06 1.02 0.9837 0.869 0.8644 0.8917 0.8154
3462.515 0.7139 0.6762 0.6653 0.7747 0.6867 0.4879 0.6853 0.7617 0.6214 0.5599
3481.805 0.614 0.6898 0.792 0.8121 0.5933 0.6373 0.6482 0.5635 0.5682 0.6821
3501.095 0.8118 0.7055 0.7008 0.8016 0.8121 0.7903 0.8623 0.8666 0.8098 0.7842
3520.385 0.7258 0.7273 0.7597 0.7091 0.6167 0.6518 0.7216 0.6098 0.5308 0.5651
3539.674 0.6777 0.7241 0.6882 0.6561 0.6599 0.7274 0.6138 0.4495 0.3893 0.4715
3558.964 0.5557 0.4832 0.5416 0.654 0.6983 0.6056 0.5465 0.5433 0.5535 0.7213
3578.254 0.7188 0.5909 0.5077 0.5493 0.4178 0.2911 0.4835 0.6509 0.667 0.6895
3597.544 0.7722 0.7182 0.6052 0.5912 0.6058 0.4665 0.5398 0.6982 0.5553 0.5742
3616.833 0.5694 0.4293 0.5566 0.6257 0.6734 0.7004 0.6024 0.6702 0.6625 0.634
3636.123 0.749 0.7492 0.7521 0.6372 0.4532 0.4908 0.5728 0.5272 0.395 0.3227
3655.413 0.343 0.468 0.4057 0.3498 0.4569 0.5044 0.5833 0.5987 0.5166 0.3308
3674.703 0.1687 0.275 0.3038 0.3384 0.3869 0.3496 0.3709 0.4243 0.5453 0.4727
3693.993 0.2229 0.2669 0.5018 0.5318 0.4767 0.4196 0.3657 0.1553 0.224 0.3468
3713.282 0.3492 0.4973 0.5327 0.5886 0.4983 0.2193 0.1976 0.2937 0.1872 0.1451
3732.572 0.2432 0.3242 0.4598 0.5011 0.5008 0.5298 0.3761 0.4358 0.49 0.5963
3751.862 0.6969 0.5572 0.4997 0.4341 0.6457 0.8035 0.6045 0.4412 0.4406 0.6026
3771.152 0.5267 0.5161 0.5471 0.4055 0.4459 0.7192 0.8902 0.7494 0.6235 0.5779
3790.441 0.4533 0.4456 0.7154 0.5697 0.4321 0.6196 0.491 0.5277 0.4478 0.472
3809.731 0.7091 0.6288 0.4864 0.4897 0.5667 0.4662 0.3961 0.5179 0.6785 0.6821
3829.021 0.6962 0.5989 0.5213 0.5452 0.3674 0.2623 0.3736 0.5706 0.5765 0.417
3848.311 0.4867 0.5161 0.4414 0.5298 0.4827 0.5954 0.6797 0.6573 0.7124 0.7885
3867.601 0.7407 0.5985 0.6532 0.6728 0.6219 0.7766 0.9299 0.8874 0.8494 0.9005
3886.890 1.05 1 0.8795 0.7707 0.7565 0.681 0.6306 0.8962 1.12 0.8876
3906.180 0.7935 0.8639 0.818 0.9244 0.917 0.9086 1.02 1.15 1.05 0.9275
3925.470 1.01 1.19 1.29 1.16 1.03 0.9423 0.9337 0.7966 0.7419 1.02
3944.760 1.1 0.9573 1.04 1.13 1.14 1.16 1.09 0.8956 0.8805 1.01
3964.049 0.9328 0.8777 0.8949 0.9353 0.8888 0.9043 1.08 0.9614 0.702 0.8072
3983.339 1.01 0.8873 0.739 0.7191 0.8156 0.9097 0.9465 0.979 0.9772 1.01
##END=
