##TITLE=1-Trimethylsilylmethanol
##JCAMP-DX=4.24
##DATA TYPE=INFRARED SPECTRUM
##ORIGIN=EPA-IR VAPOR PHASE LIBRARY
##OWNER=SRD/NIST
Collection (C) 2018 copyright by the U.S. Secretary of Commerce
on behalf of the United States of America. All rights reserved.
##CAS REGISTRY NO=3219-63-4
##MOLFORM=C 4 H 12 O Si
##$NIST SOURCE=MSDC-IR
##STATE=gas
##XUNITS=1/CM
##YUNITS=ABSORBANCE
##XFACTOR=1.
##YFACTOR=0.001
##DELTAX=1.92898
##FIRSTX=549.8
##LASTX=4000.7
##FIRSTY=1.784
##MAXX=4000.7
##MINX=549.759
##MAXY=0.180404
##MINY=0
##NPOINTS=1790
##XYDATA=(X++(Y..Y))
549.759 1.784 1.954 1.824 0.9097 0.4937 0.612 0.8352 1.151 1.714 1.844
569.049 1.584 1.684 1.754 1.844 1.834 1.684 1.944 2.404 2.074 2.034
588.339 2.234 2.114 1.984 1.824 1.974 1.974 1.804 1.724 1.554 1.454
607.628 1.704 1.644 1.434 1.544 1.494 1.0014 0.9709 1.654 1.374 1.0356
626.918 1.614 1.864 1.704 1.784 1.694 1.804 2.234 2.684 3.044 3.334
646.208 4.084 4.794 5.514 6.214 6.594 7.174 7.434 8.214 9.214 9.854
665.498 10.514 10.994 11.884 12.984 13.954 14.514 15.304 16.584 17.564 18.364
684.787 19.484 20.624 21.804 23.134 24.204 25.254 25.994 25.774 25.184 24.534
704.077 23.624 23.094 22.744 21.604 20.254 19.254 18.134 16.924 15.534 14.254
723.367 13.754 13.434 13.074 12.834 12.874 13.244 13.314 13.404 13.794 14.004
742.657 14.274 14.864 15.354 15.704 15.904 16.424 17.244 17.684 17.974 17.934
761.947 17.884 18.164 17.974 17.674 17.654 17.434 17.014 16.744 16.264 15.684
781.236 15.674 15.994 15.904 15.704 16.104 16.434 16.634 16.964 17.504 17.994
800.526 18.394 19.044 19.914 20.904 21.794 22.934 24.354 26.234 28.464 30.454
819.816 33.294 36.994 41.514 46.294 51.934 58.754 65.954 74.034 83.304 93.044
839.106 103.404 114.994 126.524 137.894 148.474 158.134 167.384 174.454 178.904 180.404
858.395 177.664 170.754 161.074 150.064 138.344 126.224 113.784 101.514 89.954 80.104
877.685 71.744 63.764 56.844 50.834 45.844 42.404 38.764 35.274 32.554 29.834
896.975 27.734 25.894 23.844 21.884 20.144 18.714 17.444 16.324 15.074 14.084
916.265 13.074 12.094 11.354 10.404 9.684 9.204 8.824 8.304 7.764 7.694
935.555 7.384 6.684 6.184 5.844 5.714 5.774 5.854 5.584 5.334 5.544
954.844 5.824 6.114 6.604 6.694 7.024 7.754 8.354 9.204 10.304 11.524
974.134 12.884 14.504 16.184 18.474 21.344 23.874 26.254 28.464 30.174 31.744
993.424 32.934 33.674 34.814 36.564 37.004 35.614 33.754 31.874 30.114 27.714
1012.714 25.204 22.004 18.344 15.614 13.114 11.194 9.564 7.914 6.894 6.514
1032.003 6.254 5.684 5.114 4.584 4.544 4.394 3.774 3.744 3.704 3.324
1051.293 3.434 3.874 3.154 2.784 3.274 3.204 3.324 3.704 3.844 3.634
1070.583 3.414 3.394 3.844 3.964 4.024 3.864 3.494 3.864 3.764 4.054
1089.873 4.064 3.124 2.984 3.554 3.484 3.804 4.694 4.944 3.784 3.574
1109.163 4.834 5.634 5.844 5.964 6.454 5.744 5.244 5.134 4.934 5.784
1128.452 6.614 7.034 7.114 6.924 7.164 6.844 6.094 5.984 6.644 7.024
1147.742 7.104 7.324 6.664 6.004 6.554 7.054 6.964 7.474 8.334 8.294
1167.032 7.984 8.384 7.674 7.054 7.184 6.894 7.084 6.984 6.504 5.984
1186.322 5.244 5.134 5.204 4.904 5.024 4.384 3.734 3.574 3.034 3.474
1205.611 4.364 4.484 3.974 4.674 5.904 6.474 6.724 6.654 7.464 8.774
1224.901 9.654 10.904 13.334 16.704 19.904 22.854 25.674 29.414 33.484 37.194
1244.191 40.494 43.324 46.534 50.354 55.144 58.994 59.714 57.254 53.714 51.364
1263.481 50.194 49.024 47.214 43.924 39.794 35.944 32.844 30.454 27.884 25.274
1282.771 23.254 21.444 19.494 17.634 16.144 15.094 13.904 12.614 11.574 10.684
1302.060 9.864 9.194 8.634 8.094 7.714 7.524 7.224 6.894 6.834 6.814
1321.350 6.774 6.704 6.704 6.654 6.524 6.464 6.494 6.514 6.404 6.254
1340.640 6.104 6.014 5.964 5.934 5.794 5.564 5.404 5.244 5.074 5.094
1359.930 5.004 4.754 4.534 4.344 4.364 4.334 4.304 4.284 4.174 4.164
1379.219 4.194 4.164 4.174 4.254 4.364 4.504 4.714 4.834 5.004 5.214
1398.509 5.424 5.624 5.864 6.194 6.554 6.854 7.044 7.314 7.494 7.784
1417.799 8.114 8.194 8.344 8.534 8.424 8.294 8.214 8.124 8.014 7.854
1437.089 7.564 7.104 6.754 6.574 6.284 5.854 5.404 5.004 4.794 4.524
1456.378 4.324 4.214 3.964 3.694 3.524 3.374 3.234 3.104 3.044 3.044
1475.668 2.864 2.794 2.654 2.534 2.574 2.574 2.454 2.264 2.134 2.174
1494.958 2.214 2.134 2.154 2.114 1.984 1.884 1.844 1.704 1.524 1.554
1514.248 1.674 1.554 1.454 1.564 1.514 1.464 1.424 1.2012 1.2141 1.394
1533.538 1.334 1.304 1.324 1.2699 1.304 1.2367 1.1111 1.0821 1.1217 1.0977
1552.827 0.952 1.0112 0.9265 0.8806 0.8929 0.8361 1.0412 1.0066 0.8054 0.6683
1572.117 0.7894 0.9081 0.8549 0.8428 0.7813 0.8031 0.8043 0.5845 0.3966 0.711
1591.407 0.9377 0.7155 0.6777 0.7354 0.699 0.5747 0.5254 0.5857 0.6068 0.7402
1610.697 0.7265 0.5532 0.5209 0.5292 0.4774 0.5249 0.7688 0.7508 0.6343 0.5768
1629.986 0.4959 0.5282 0.5018 0.36828 0.34717 0.4422 0.5364 0.5748 0.5249 0.4637
1649.276 0.36061 0.38235 0.4742 0.4188 0.5104 0.5079 0.38002 0.3993 0.4175 0.4579
1668.566 0.4116 0.39356 0.3598 0.34083 0.37792 0.33776 0.30644 0.31846 0.2717 0.2512
1687.856 0.36663 0.29279 0.2074 0.2428 0.301735 0.2579 0.113 0.129 0.2096 0.14
1707.146 0.131 0.2385 0.31257 0.34377 0.2672 0.124 0.099 0.066 0.004 0
1726.435 0.134 0.2448 0.172 0.2664 0.2623 0.085 0.146 0.298198 0.2609 0.174
1745.725 0.125 0.148 0.2829 0.29071 0.2893 0.3981 0.303619 0.175 0.2278 0.32085
1765.015 0.3833 0.4003 0.266 0.2215 0.2493 0.2387 0.31132 0.35938 0.37882 0.2661
1784.305 0.28633 0.4267 0.4354 0.38286 0.35298 0.297199 0.28989 0.4439 0.4424 0.300234
1803.594 0.36117 0.4366 0.4118 0.4202 0.4799 0.501 0.4988 0.6309 0.6561 0.6578
1822.884 0.8295 0.8672 0.8616 0.9549 0.9042 0.8799 0.8786 0.8496 0.8765 0.9604
1842.174 0.9302 0.8796 0.9067 0.8674 0.9363 1.0198 0.9686 0.8659 0.7782 0.8066
1861.464 0.824 0.7452 0.7194 0.7693 0.7505 0.726 0.7193 0.6638 0.6487 0.652
1880.754 0.6165 0.6962 0.8111 0.73 0.6303 0.7296 0.7244 0.5824 0.679 0.7765
1900.043 0.7806 0.7808 0.7845 0.8468 0.8238 0.8146 0.9662 1.0975 1.1399 1.2192
1919.333 1.344 1.334 1.304 1.344 1.294 1.1717 1.1667 1.424 1.544 1.604
1938.623 1.644 1.674 1.734 1.744 1.774 1.784 1.814 1.794 1.834 1.814
1957.913 1.714 1.684 1.674 1.824 1.864 1.794 1.774 1.764 1.744 1.664
1977.202 1.704 1.684 1.594 1.704 1.654 1.504 1.474 1.484 1.504 1.364
1996.492 1.2239 1.2092 1.2324 1.268 1.241 1.0444 0.894 0.9225 0.8606 0.7601
2015.782 0.744 0.767 0.7421 0.7379 0.7123 0.6026 0.6157 0.7085 0.6943 0.6125
2035.072 0.68 0.7133 0.714 0.7348 0.649 0.6266 0.6923 0.722 0.7299 0.7022
2054.362 0.5931 0.5149 0.5983 0.7144 0.6695 0.585 0.5649 0.5218 0.5534 0.6932
2073.651 0.7059 0.7238 0.7941 0.7906 0.7821 0.7611 0.7629 0.8008 0.7992 0.7046
2092.941 0.6775 0.7668 0.7732 0.7834 0.7908 0.7899 0.793 0.8042 0.8559 0.8501
2112.231 0.8809 0.9756 0.9711 0.928 0.9579 0.9835 0.8742 0.7766 0.8328 0.9266
2131.521 0.873 0.7684 0.7808 0.8079 0.7429 0.7351 0.7991 0.6935 0.6633 0.6895
2150.810 0.6568 0.625 0.6193 0.6742 0.6205 0.5729 0.6407 0.6679 0.6902 0.6774
2170.100 0.5397 0.5217 0.5303 0.4333 0.38617 0.4387 0.5214 0.5498 0.546 0.6113
2189.390 0.6196 0.5462 0.515 0.4657 0.4162 0.4523 0.38687 0.34178 0.422 0.4599
2208.680 0.6147 0.651 0.5388 0.5297 0.5494 0.6113 0.6413 0.5426 0.5208 0.6068
2227.970 0.5801 0.4829 0.4046 0.4298 0.5338 0.5824 0.5421 0.5706 0.5935 0.5827
2247.259 0.5971 0.4112 0.34601 0.5047 0.5594 0.5854 0.6364 0.6745 0.6486 0.5937
2266.549 0.6378 0.6317 0.511 0.559 0.6828 0.653 0.5146 0.4357 0.5013 0.5547
2285.839 0.5881 0.5606 0.5457 0.595 0.6382 0.6427 0.6539 0.6069 0.5192 0.5176
2305.129 0.6362 0.7043 0.6261 0.6725 0.6708 0.7451 0.8555 0.7325 0.5645 0.5382
2324.418 0.6027 0.6467 0.6185 0.7079 0.831 0.7939 0.9509 0.9257 0.8132 0.7667
2343.708 0.7637 0.8073 0.7235 0.6466 0.5958 0.5075 0.4387 0.4722 0.442 0.5437
2362.998 0.6635 0.6899 0.648 0.5539 0.5491 0.5448 0.4367 0.34599 0.37617 0.34785
2382.288 0.33289 0.35486 0.2814 0.30538 0.3942 0.293549 0.31922 0.37364 0.4244 0.5302
2401.578 0.5732 0.6498 0.5471 0.4956 0.4442 0.37662 0.5339 0.6541 0.6123 0.5228
2420.867 0.4431 0.4354 0.37023 0.34418 0.4739 0.5054 0.5741 0.5824 0.4675 0.4222
2440.157 0.5669 0.6381 0.6013 0.6226 0.6711 0.5699 0.39213 0.6128 0.7234 0.4849
2459.447 0.4367 0.5461 0.5464 0.4964 0.6178 0.7324 0.7767 0.7174 0.6116 0.6292
2478.737 0.7051 0.6886 0.6454 0.5949 0.6124 0.7743 0.7075 0.5369 0.5957 0.6613
2498.026 0.5999 0.553 0.6967 0.8979 0.8919 0.9045 0.8175 0.686 0.6012 0.5422
2517.316 0.6212 0.5664 0.5747 0.6728 0.5428 0.3942 0.5279 0.5969 0.4234 0.3839
2536.606 0.4256 0.4664 0.4985 0.4573 0.2837 0.34328 0.4952 0.541 0.5798 0.4282
2555.896 0.28919 0.2507 0.4249 0.5475 0.4688 0.4637 0.3992 0.4349 0.4677 0.33266
2575.186 0.33429 0.3942 0.4462 0.4655 0.4785 0.5589 0.6375 0.5892 0.4471 0.4192
2594.475 0.488 0.4394 0.2395 0.301063 0.5197 0.6328 0.8145 0.868 0.6925 0.6915
2613.765 0.8353 0.8849 0.9622 1.0027 0.9927 0.8774 0.868 0.9881 0.9684 0.8274
2633.055 0.7565 0.8855 1.0007 1.0532 1.0411 1.0751 1.1006 1.1503 1.0969 0.9741
2652.345 0.8614 0.9565 1.1115 1.188 1.2103 1.0703 1.0531 1.0779 1.1543 1.1837
2671.634 1.239 1.2675 1.1592 1.0784 1.0894 1.1231 1.0923 1.1212 1.1044 1.1449
2690.924 1.0734 0.9825 1.1869 1.304 1.1675 0.9548 0.9742 1.0758 1.2138 1.2477
2710.214 1.1662 1.044 1.0695 1.1635 1.1328 1.2741 1.304 1.2196 1.354 1.384
2729.504 1.394 1.564 1.534 1.444 1.394 1.414 1.604 1.704 1.714 1.774
2748.794 1.794 1.764 1.814 1.864 1.874 2.034 2.244 2.364 2.264 2.294
2768.083 2.564 2.594 2.664 2.914 3.044 3.064 3.254 3.474 3.634 3.934
2787.373 4.404 4.824 5.134 5.574 5.894 6.144 6.624 7.294 7.924 8.574
2806.663 9.354 10.254 11.034 11.744 12.724 13.494 14.264 15.074 15.784 16.544
2825.953 17.234 17.704 17.764 17.614 17.604 17.514 17.254 17.164 17.054 16.934
2845.242 16.854 16.924 17.024 17.054 17.454 17.954 18.414 19.414 20.584 21.554
2864.532 22.554 23.764 25.264 26.894 28.434 29.684 30.884 32.044 32.884 33.404
2883.822 34.044 34.594 34.734 34.674 34.534 34.404 33.944 33.144 32.434 31.604
2903.112 30.564 29.464 28.284 27.114 25.594 24.114 22.654 21.224 19.854 18.524
2922.401 17.644 16.734 15.944 15.544 15.374 15.274 15.534 16.314 17.544 19.324
2941.691 21.624 24.424 27.334 30.464 33.914 36.854 39.514 42.134 44.664 47.184
2960.981 48.944 48.944 47.194 44.694 42.134 39.434 36.704 33.804 30.324 26.624
2980.271 22.754 19.114 16.184 13.474 11.134 9.454 7.974 6.904 6.344 5.754
2999.561 5.334 5.054 4.524 4.484 4.624 4.334 4.304 4.394 4.174 4.094
3018.850 4.304 4.334 4.294 4.294 4.284 4.324 4.324 4.424 4.784 4.864
3038.140 4.864 4.904 4.834 4.984 5.064 5.084 5.054 5.154 5.434 5.424
3057.430 5.284 5.294 5.444 5.464 5.304 5.364 5.334 5.214 5.184 5.144
3076.720 5.164 5.174 4.934 4.724 4.784 4.744 4.474 4.434 4.364 4.194
3096.009 4.124 3.914 3.894 3.854 3.524 3.524 3.604 3.374 3.204 3.154
3115.299 3.094 2.974 2.774 2.524 2.424 2.564 2.394 2.194 2.064 2.014
3134.589 2.084 1.874 1.814 1.784 1.704 1.474 1.454 1.544 1.574 1.754
3153.879 1.754 1.674 1.624 1.534 1.384 1.1504 1.1623 1.444 1.434 1.2097
3173.169 1.1634 1.1608 1.1688 1.344 1.424 1.304 1.2551 1.1626 1.2099 1.304
3192.458 1.2386 1.394 1.504 1.474 1.2622 1.1698 1.344 1.1487 1.1737 1.324
3211.748 1.1859 0.8858 0.6263 0.5349 0.4738 0.5515 0.5523 0.5716 0.5523 0.6132
3231.038 0.5305 0.414 0.4825 0.4353 0.4868 0.5362 0.61 0.6495 0.5335 0.6807
3250.328 0.8234 0.6709 0.6475 0.5407 0.4249 0.5158 0.5501 0.4833 0.34453 0.579
3269.617 0.7174 0.4848 0.603 0.6079 0.36824 0.38691 0.3098 0.4117 0.6413 0.7068
3288.907 0.7529 0.7101 0.7447 0.5505 0.36631 0.4268 0.5057 0.7927 0.9128 0.7138
3308.197 0.5915 0.474 0.6426 0.6692 0.5938 0.52 0.32243 0.4094 0.5599 0.4573
3327.487 0.28897 0.31385 0.408 0.5106 0.5029 0.5686 0.5052 0.66 0.7494 0.6109
3346.777 0.4824 0.36515 0.5228 0.6602 0.7226 0.5504 0.37883 0.4634 0.5571 0.6437
3366.066 0.6425 0.662 0.757 0.566 0.5148 0.6341 0.7181 0.5689 0.34698 0.4627
3385.356 0.36417 0.30756 0.5421 0.5485 0.5474 0.5496 0.5939 0.6214 0.4664 0.5693
3404.646 0.5855 0.6783 0.7703 0.6517 0.7149 0.736 0.6712 0.6545 0.7114 0.811
3423.936 0.8195 0.7341 0.5992 0.5672 0.9115 1.1044 0.7701 0.836 1.115 1.096
3443.225 1.0358 0.966 1.0637 0.914 0.7874 0.9098 0.8897 0.9296 0.9214 1.2029
3462.515 1.324 1.0788 1.0403 1.0676 1.354 1.2499 0.7355 0.8411 1.1711 1.1859
3481.805 1.0027 0.772 0.8321 1.0775 1.1263 1.1729 1.1949 0.9578 0.8649 0.9897
3501.095 0.914 0.8804 1.1684 1.264 1.1857 1.1409 1.0892 1.028 1.182 1.354
3520.385 1.2772 1.0905 0.9657 1.2018 1.2361 1.1572 1.1625 1.0257 1.2147 1.2855
3539.674 1.1581 1.2031 1.1607 1.1494 1.0081 0.9655 1.1181 1.19 1.1665 1.214
3558.964 1.1197 1.0491 1.1819 1.2515 1.544 1.534 1.454 1.2675 1.2129 1.394
3578.254 1.304 1.2274 1.414 1.594 1.664 1.694 1.614 1.474 1.404 1.574
3597.544 1.634 1.604 1.704 1.724 1.694 1.914 1.934 1.854 1.784 1.814
3616.833 2.004 1.964 2.154 2.374 2.454 2.714 3.074 3.314 3.724 3.884
3636.123 4.034 4.824 5.754 6.864 8.074 9.154 10.184 11.234 11.854 11.774
3655.413 11.814 12.744 14.174 14.094 12.424 11.414 11.154 10.844 10.274 9.284
3674.703 8.154 6.934 5.664 4.634 3.924 3.394 3.234 2.874 2.664 2.614
3693.993 2.494 2.334 2.124 2.144 2.024 1.994 2.034 1.994 2.024 2.094
3713.282 2.224 2.104 2.084 2.204 2.054 2.044 2.044 2.024 1.734 1.824
3732.572 2.094 1.864 1.824 1.764 1.804 1.784 1.694 1.794 2.124 2.134
3751.862 1.764 1.714 1.804 1.644 1.504 1.554 1.654 1.844 1.904 1.754
3771.152 1.584 1.384 1.2675 1.474 1.574 1.644 1.554 1.404 1.404 1.424
3790.441 1.474 1.434 1.304 1.454 1.494 1.1946 1.344 1.444 1.494 1.704
3809.731 1.694 1.2644 1.1595 1.444 1.534 1.494 1.414 1.2215 1.304 1.2002
3829.021 0.9829 1.324 1.424 1.434 1.564 1.384 1.354 1.2311 1.0698 1.2682
3848.311 1.314 1.2786 1.2909 1.354 1.334 1.0541 0.9646 1.202 1.394 1.254
3867.601 0.9048 0.8678 0.9674 0.8311 1.0729 1.2507 0.863 0.6873 0.8895 1.1111
3886.890 1.2307 1.1206 0.8696 0.9644 0.9576 0.9601 1.1274 0.9632 0.9476 1.1277
3906.180 1.199 1.0084 0.7285 0.8479 0.8639 0.6534 0.4009 0.443 0.7728 0.6371
3925.470 0.30525 0.6154 0.8023 0.5361 0.29189 0.2751 0.5824 0.6659 0.7502 0.92
3944.760 0.6441 0.4369 0.3948 0.4551 0.5819 0.4818 0.5985 0.5175 0.300979 0.5617
3964.049 0.8137 0.6167 0.4124 0.5454 0.8798 1.0193 0.7066 0.5415 0.8825 0.9415
3983.339 0.4861 0.36828 0.237 0.2313 0.5954 0.5564 0.6664 0.7394 0.5918 0.7007
##END=
