##TITLE=2-(Ethylthio)ethylamine
##JCAMP-DX=4.24
##DATA TYPE=INFRARED SPECTRUM
##ORIGIN=EPA-IR VAPOR PHASE LIBRARY
##OWNER=SRD/NIST
Collection (C) 2018 copyright by the U.S. Secretary of Commerce
on behalf of the United States of America. All rights reserved.
##CAS REGISTRY NO=36489-03-9
##MOLFORM=C 4 H 11 N S
##$NIST SOURCE=MSDC-IR
##STATE=gas
##XUNITS=1/CM
##YUNITS=ABSORBANCE
##XFACTOR=1.
##YFACTOR=0.001
##DELTAX=1.929
##FIRSTX=549.8
##LASTX=4000.8
##FIRSTY=5.261
##MAXX=4000.75
##MINX=549.766
##MAXY=0.108131
##MINY=0
##NPOINTS=1790
##XYDATA=(X++(Y..Y))
549.766 5.261 5.331 5.281 5.271 5.331 5.451 5.531 5.731 5.731 5.531
569.056 5.591 5.581 5.661 5.461 5.441 5.841 6.031 6.041 6.141 6.271
588.346 6.211 6.241 6.161 6.301 6.471 6.431 6.541 6.781 7.051 7.141
607.636 7.091 7.391 7.691 7.721 7.671 7.731 7.961 8.231 8.431 8.521
626.926 8.611 8.811 9.091 9.311 9.511 9.661 9.841 10.151 10.431 10.571
646.216 10.661 10.761 11.051 11.391 11.561 11.781 11.931 12.141 12.421 12.491
665.506 12.751 12.931 13.111 13.511 13.791 14.051 14.531 14.951 15.201 15.471
684.796 15.911 16.381 16.731 17.201 17.631 18.011 18.481 19.041 19.551 20.101
704.086 20.771 21.491 22.241 23.051 24.061 25.221 26.441 27.611 28.891 30.171
723.376 31.511 32.911 34.151 35.501 36.871 38.151 39.501 40.681 41.551 42.481
742.666 43.481 44.321 45.181 46.061 46.661 47.341 48.181 49.091 50.101 51.161
761.956 52.281 53.371 54.571 55.921 57.191 58.291 59.231 60.001 60.661 61.051
781.246 61.191 61.041 60.611 59.871 58.681 57.161 55.331 53.381 51.461 49.221
800.536 46.831 44.451 42.111 39.711 37.251 35.061 32.851 30.871 29.161 27.491
819.826 26.061 24.931 23.871 22.741 21.791 20.971 20.211 19.501 18.681 17.871
839.116 17.241 16.621 15.961 15.291 14.701 14.121 13.621 13.161 12.701 12.161
858.406 11.701 11.341 11.011 10.711 10.401 10.021 9.731 9.591 9.421 9.311
877.696 9.131 8.931 8.771 8.611 8.541 8.411 8.271 8.201 8.111 8.101
896.986 8.051 7.951 7.881 7.811 7.681 7.581 7.471 7.361 7.281 7.191
916.276 7.081 6.971 6.871 6.731 6.601 6.601 6.571 6.611 6.681 6.711
935.566 6.691 6.761 6.961 7.131 7.291 7.481 7.781 8.181 8.671 9.151
954.856 9.681 10.271 10.801 11.491 12.091 12.681 13.311 13.731 14.021 14.281
974.146 14.511 14.551 14.611 14.541 14.281 13.951 13.591 13.291 12.861 12.421
993.436 11.981 11.571 11.341 11.111 10.901 10.731 10.531 10.341 10.211 10.131
1012.726 10.071 9.931 9.801 9.871 9.981 9.991 10.031 10.221 10.451 10.741
1032.016 11.131 11.591 12.121 12.751 13.421 14.151 15.051 16.091 17.131 18.161
1051.306 19.181 20.211 21.201 22.031 22.641 23.011 23.131 23.101 22.861 22.351
1070.596 21.711 20.891 19.871 18.681 17.451 16.251 15.211 14.211 13.241 12.491
1089.886 11.751 11.091 10.541 9.941 9.351 8.871 8.451 7.951 7.511 7.161
1109.176 6.781 6.481 6.221 5.901 5.531 5.311 5.201 5.041 4.801 4.561
1128.467 4.391 4.191 4.011 3.941 3.771 3.581 3.461 3.281 3.241 3.231
1147.757 3.101 3.091 3.001 2.861 2.841 2.861 2.901 2.881 2.801 2.791
1167.047 2.871 2.911 2.981 3.051 3.041 3.081 3.201 3.341 3.361 3.441
1186.337 3.631 3.791 3.961 4.021 4.141 4.391 4.721 4.991 5.201 5.541
1205.627 5.981 6.401 6.841 7.411 7.901 8.331 9.001 9.731 10.341 10.901
1224.917 11.391 11.961 12.641 13.321 14.111 15.091 16.041 17.151 18.601 20.221
1244.207 22.091 24.291 26.671 28.951 31.021 32.821 34.171 35.091 35.671 35.861
1263.497 35.641 34.891 33.731 32.201 30.221 27.901 25.261 22.601 20.111 17.831
1282.787 15.911 14.461 13.371 12.531 11.831 11.261 10.771 10.341 10.001 9.701
1302.077 9.471 9.151 8.831 8.601 8.301 7.961 7.731 7.521 7.271 7.101
1321.367 6.971 6.861 6.831 6.811 6.871 7.031 7.211 7.451 7.731 8.071
1340.657 8.471 8.881 9.311 9.681 9.941 10.291 10.651 11.021 11.431 11.771
1359.947 12.111 12.391 12.721 13.151 13.591 14.081 14.491 14.831 15.151 15.381
1379.237 15.541 15.611 15.561 15.461 15.301 14.971 14.511 13.921 13.261 12.641
1398.527 12.161 11.801 11.601 11.491 11.471 11.491 11.611 11.821 12.091 12.401
1417.817 12.721 13.021 13.381 13.811 14.131 14.431 14.661 14.891 15.171 15.381
1437.107 15.641 15.951 16.141 16.271 16.371 16.391 16.431 16.481 16.451 16.431
1456.397 16.391 16.241 15.991 15.621 15.201 14.681 14.131 13.591 12.921 12.271
1475.687 11.671 10.991 10.341 9.701 9.101 8.461 7.851 7.411 7.051 6.751
1494.977 6.471 6.221 6.011 5.781 5.561 5.401 5.291 5.221 5.121 5.051
1514.267 5.021 4.931 4.831 4.741 4.671 4.671 4.661 4.651 4.601 4.541
1533.557 4.471 4.451 4.471 4.441 4.461 4.421 4.421 4.501 4.521 4.561
1552.847 4.541 4.571 4.671 4.741 4.871 5.011 5.081 5.171 5.311 5.471
1572.137 5.651 5.871 6.131 6.341 6.591 6.911 7.311 7.651 8.081 8.511
1591.427 8.931 9.461 10.011 10.551 11.101 11.851 12.641 13.421 14.191 14.891
1610.717 15.621 16.361 16.971 17.381 17.711 17.971 18.001 17.901 17.681 17.311
1630.007 16.831 16.121 15.301 14.421 13.491 12.551 11.601 10.771 9.911 9.071
1649.297 8.381 7.771 7.081 6.531 6.101 5.631 5.251 4.881 4.531 4.261
1668.587 3.951 3.751 3.571 3.341 3.181 3.031 2.871 2.761 2.651 2.581
1687.877 2.481 2.351 2.341 2.311 2.151 2.061 2.071 2.061 2.041 1.981
1707.167 1.971 1.891 1.831 1.831 1.731 1.711 1.721 1.681 1.681 1.701
1726.457 1.701 1.671 1.651 1.591 1.601 1.551 1.501 1.491 1.491 1.481
1745.747 1.431 1.461 1.481 1.471 1.451 1.401 1.391 1.411 1.411 1.401
1765.037 1.431 1.451 1.441 1.371 1.361 1.421 1.481 1.491 1.481 1.491
1784.327 1.531 1.551 1.531 1.501 1.551 1.621 1.571 1.551 1.511 1.491
1803.617 1.541 1.611 1.601 1.561 1.571 1.521 1.501 1.531 1.491 1.481
1822.907 1.501 1.481 1.471 1.421 1.421 1.401 1.381 1.401 1.391 1.401
1842.197 1.361 1.321 1.351 1.381 1.331 1.341 1.301 1.2258 1.251 1.251
1861.487 1.214 1.1997 1.1889 1.1131 1.068 1.065 1.0612 1.023 1.005 1.085
1880.777 1.1077 1.0254 0.9305 0.9296 0.9115 0.8563 0.8522 0.8308 0.7949 0.7639
1900.067 0.7828 0.7911 0.737 0.6911 0.6781 0.6849 0.6954 0.7312 0.7153 0.696
1919.357 0.637 0.5834 0.6281 0.5978 0.5859 0.6004 0.5804 0.5547 0.5293 0.5255
1938.647 0.5222 0.5284 0.5016 0.4773 0.4889 0.4917 0.4911 0.5281 0.5282 0.4833
1957.937 0.504 0.4871 0.495 0.4972 0.4409 0.4638 0.4626 0.4745 0.4791 0.4801
1977.227 0.5409 0.5736 0.5635 0.5064 0.4827 0.4504 0.4623 0.5266 0.5667 0.6148
1996.517 0.5944 0.5722 0.5767 0.5498 0.562 0.5662 0.5635 0.5744 0.58 0.627
2015.807 0.648 0.6654 0.7017 0.6569 0.6044 0.6467 0.6732 0.6467 0.5917 0.5838
2035.097 0.5886 0.5733 0.5784 0.5833 0.5843 0.5659 0.5808 0.589 0.571 0.5959
2054.387 0.6018 0.6162 0.5822 0.578 0.6204 0.6285 0.6074 0.566 0.5874 0.6016
2073.677 0.6031 0.6045 0.5832 0.5528 0.5717 0.5419 0.5078 0.5477 0.5495 0.4846
2092.967 0.4756 0.5208 0.5331 0.5259 0.5064 0.5085 0.5167 0.5289 0.5438 0.5103
2112.257 0.5077 0.5246 0.5053 0.5165 0.5288 0.5639 0.5729 0.5349 0.517 0.4814
2131.547 0.4929 0.5355 0.5293 0.5147 0.5342 0.5595 0.5481 0.5531 0.5828 0.5564
2150.837 0.6273 0.6527 0.6158 0.6288 0.6348 0.6559 0.6345 0.6242 0.6289 0.6387
2170.127 0.6464 0.6391 0.5989 0.6016 0.6034 0.592 0.6231 0.6357 0.5862 0.5453
2189.417 0.5245 0.5171 0.4957 0.5041 0.5056 0.5237 0.5325 0.4792 0.4745 0.5188
2208.707 0.5621 0.5783 0.5828 0.5911 0.6252 0.6156 0.606 0.6085 0.6288 0.624
2227.997 0.5711 0.5632 0.5879 0.6044 0.5856 0.5849 0.584 0.5041 0.4838 0.5437
2247.287 0.5446 0.5042 0.4795 0.4397 0.4339 0.4988 0.504 0.4338 0.4276 0.4428
2266.577 0.4358 0.4519 0.4035 0.32966 0.3633 0.4243 0.4084 0.3904 0.3677 0.30067
2285.868 0.28701 0.31395 0.3327 0.32865 0.28849 0.28969 0.27264 0.22137 0.233669 0.24873
2305.158 0.26736 0.3579 0.31559 0.28051 0.31926 0.29634 0.30635 0.32994 0.3406 0.3383
2324.448 0.3189 0.26514 0.29238 0.28157 0.232288 0.29087 0.3571 0.3964 0.3653 0.32423
2343.738 0.4366 0.5005 0.4589 0.4596 0.443 0.4343 0.4086 0.3726 0.4257 0.4883
2363.028 0.4705 0.4147 0.4152 0.4705 0.4605 0.4262 0.4275 0.416 0.4646 0.509
2382.318 0.4806 0.4492 0.421 0.4543 0.4857 0.4552 0.4473 0.4627 0.4749 0.4804
2401.608 0.511 0.5313 0.5477 0.6187 0.6548 0.6377 0.6177 0.597 0.5992 0.6255
2420.898 0.6244 0.6587 0.6817 0.6715 0.6588 0.6329 0.5945 0.5712 0.5229 0.5233
2440.188 0.5842 0.5744 0.5627 0.5632 0.5446 0.5018 0.4942 0.4901 0.4762 0.4469
2459.478 0.4507 0.5156 0.5007 0.4723 0.5009 0.5062 0.5216 0.4985 0.5019 0.5484
2478.768 0.5111 0.4628 0.4654 0.4833 0.4026 0.3713 0.3767 0.3316 0.3426 0.4107
2498.058 0.4226 0.4011 0.4118 0.397 0.454 0.4447 0.3411 0.31603 0.3594 0.4256
2517.348 0.4102 0.3876 0.3426 0.3364 0.3618 0.28083 0.24771 0.28329 0.30868 0.30811
2536.638 0.3485 0.3615 0.3518 0.4222 0.4185 0.4065 0.3957 0.3698 0.3653 0.4035
2555.928 0.4542 0.4386 0.454 0.5482 0.607 0.4785 0.4001 0.4388 0.5003 0.5401
2575.218 0.5197 0.5237 0.558 0.5143 0.4885 0.5717 0.5496 0.5179 0.6164 0.6461
2594.508 0.5814 0.5704 0.5821 0.5678 0.645 0.7179 0.7177 0.7422 0.719 0.7006
2613.798 0.7326 0.7552 0.7601 0.7872 0.8165 0.8128 0.821 0.8593 0.9184 1.0314
2633.088 1.0667 1.0494 1.1339 1.1721 1.1446 1.1611 1.231 1.351 1.431 1.451
2652.378 1.521 1.551 1.591 1.651 1.751 1.781 1.831 1.941 1.951 2.061
2671.668 2.251 2.301 2.331 2.401 2.481 2.511 2.561 2.631 2.601 2.681
2690.958 2.821 2.871 2.911 2.911 2.921 2.941 2.951 3.021 3.041 3.031
2710.248 3.131 3.241 3.231 3.201 3.251 3.331 3.381 3.441 3.601 3.721
2729.538 3.711 3.751 3.921 4.011 4.001 4.031 4.031 4.071 4.191 4.201
2748.828 4.111 4.011 3.851 3.811 3.771 3.601 3.561 3.581 3.601 3.501
2768.118 3.481 3.551 3.591 3.661 3.671 3.851 4.071 4.211 4.381 4.601
2787.408 4.751 4.891 5.121 5.351 5.711 6.101 6.411 6.731 7.101 7.601
2806.698 8.021 8.361 8.931 9.641 10.351 10.941 11.531 12.391 13.331 14.241
2825.988 15.111 16.141 17.371 18.601 19.891 21.151 22.471 23.931 25.311 26.781
2845.278 28.311 29.741 31.281 32.851 34.271 35.491 36.721 37.961 39.101 40.291
2864.568 41.401 42.481 43.551 44.621 45.641 46.571 47.351 47.911 48.151 48.331
2883.858 48.701 49.181 49.661 50.181 50.711 51.281 52.081 53.101 54.401 56.011
2903.148 57.841 60.111 63.001 66.141 69.361 72.851 76.571 80.361 84.231 88.241
2922.438 92.331 96.381 100.201 103.441 105.911 107.481 108.081 108.131 107.661 106.531
2941.728 104.891 102.921 100.711 97.971 94.611 90.811 87.161 84.111 81.671 79.841
2961.018 78.331 77.171 76.221 75.281 74.231 73.071 71.531 69.771 67.731 65.081
2980.308 61.851 58.191 54.401 50.371 46.251 42.341 38.671 35.161 31.781 28.541
2999.598 25.581 23.021 20.661 18.491 16.671 15.051 13.591 12.421 11.431 10.471
3018.888 9.781 9.151 8.511 8.001 7.481 7.031 6.701 6.301 6.051 5.921
3038.178 5.621 5.281 5.021 4.881 4.701 4.341 4.111 3.951 3.791 3.641
3057.468 3.431 3.211 3.091 3.061 3.041 2.931 2.831 2.771 2.681 2.631
3076.758 2.491 2.481 2.531 2.431 2.291 2.201 2.211 2.211 2.121 2.031
3096.048 2.031 2.061 2.041 1.981 1.931 1.921 1.921 1.891 1.831 1.861
3115.338 1.871 1.881 1.901 1.781 1.701 1.731 1.751 1.821 1.861 1.741
3134.628 1.671 1.711 1.641 1.611 1.631 1.591 1.531 1.521 1.581 1.631
3153.918 1.661 1.591 1.541 1.591 1.541 1.491 1.541 1.531 1.511 1.561
3173.208 1.551 1.511 1.531 1.491 1.461 1.531 1.501 1.461 1.531 1.491
3192.498 1.441 1.331 1.331 1.461 1.361 1.271 1.271 1.331 1.421 1.371
3211.788 1.251 1.1665 1.1882 1.2124 1.1219 1.1216 1.158 1.1362 1.0898 1.0137
3231.078 0.9158 0.8655 0.8886 0.7831 0.7089 0.7443 0.8941 0.9657 0.8632 0.7995
3250.368 0.8154 0.7662 0.6371 0.5723 0.5146 0.4949 0.6601 0.7703 0.6749 0.6471
3269.658 0.6683 0.6923 0.6541 0.5488 0.5906 0.6307 0.6171 0.642 0.6739 0.7429
3288.948 0.8155 0.8223 0.8448 0.8302 0.798 0.8324 0.7996 0.7811 0.9163 0.982
3308.238 0.8153 0.8134 0.8623 0.8658 0.8651 0.8656 0.9231 1.0226 1.1555 1.331
3327.528 1.461 1.491 1.491 1.661 1.791 1.791 1.911 1.851 1.801 1.941
3346.818 1.821 1.701 1.711 1.651 1.601 1.521 1.431 1.351 1.271 1.0907
3366.108 1.0278 0.988 1.0686 1.1707 1.0552 1.016 0.9606 0.9516 1.1226 1.281
3385.398 1.251 1.281 1.381 1.381 1.441 1.651 1.811 1.871 1.841 1.741
3404.688 1.911 2.011 2.031 2.051 1.921 1.931 1.871 1.891 1.801 1.581
3423.978 1.371 1.1586 1.241 1.2272 0.9988 0.8728 0.85 0.7991 0.7506 0.7021
3443.269 0.6687 0.7779 0.9282 0.825 0.6557 0.6303 0.4915 0.4118 0.4489 0.483
3462.559 0.4302 0.412 0.4567 0.4984 0.5292 0.5135 0.5399 0.6218 0.652 0.5805
3481.849 0.5067 0.4816 0.5836 0.5284 0.386 0.3628 0.3774 0.4253 0.3629 0.3421
3501.139 0.28793 0.30206 0.3547 0.365 0.4696 0.3947 0.26569 0.28851 0.3479 0.32168
3520.429 0.4021 0.4257 0.515 0.5651 0.4981 0.5002 0.31791 0.32229 0.4826 0.5389
3539.719 0.43 0.3655 0.4173 0.33018 0.3391 0.5248 0.5225 0.4082 0.552 0.5935
3559.009 0.5233 0.5651 0.4739 0.3872 0.4118 0.4946 0.4427 0.3549 0.5027 0.5536
3578.299 0.522 0.5489 0.5487 0.5792 0.6588 0.5961 0.4179 0.4678 0.5911 0.6023
3597.589 0.4937 0.3641 0.3447 0.3778 0.4204 0.4739 0.4609 0.4381 0.4666 0.5109
3616.879 0.6011 0.5011 0.428 0.371 0.31204 0.3423 0.4293 0.6033 0.5141 0.4248
3636.169 0.4826 0.4782 0.3707 0.4049 0.4229 0.4453 0.5258 0.484 0.3293 0.106
3655.459 0.1754 0.415 0.4351 0.3748 0.3741 0.4145 0.4528 0.497 0.4849 0.4044
3674.749 0.31631 0.25733 0.3593 0.4626 0.4816 0.4905 0.3672 0.32903 0.5024 0.5643
3694.039 0.4455 0.3585 0.3912 0.4317 0.5768 0.5328 0.3323 0.29656 0.3409 0.3831
3713.329 0.4261 0.3492 0.31885 0.3538 0.36 0.3512 0.3629 0.5003 0.4168 0.428
3732.619 0.4335 0.32716 0.4529 0.4457 0.4487 0.4016 0.3832 0.4654 0.3508 0.29686
3751.909 0.1953 0.2831 0.4753 0.3484 0.31183 0.3907 0.3369 0.30409 0.3723 0.4223
3771.199 0.3969 0.3772 0.4005 0.496 0.4902 0.418 0.3315 0.24399 0.3605 0.30999
3790.489 0.236877 0.2957 0.22638 0.1987 0.1946 0.1696 0.1655 0.201 0.24608 0.2178
3809.779 0.1991 0.22 0.1857 0.062 0 0.029 0.1908 0.3609 0.3977 0.32861
3829.069 0.31571 0.3377 0.2198 0.2109 0.29945 0.2592 0.127 0.046 0.2005 0.3464
3848.359 0.235097 0.238603 0.2089 0.1872 0.2183 0.29781 0.4983 0.511 0.42 0.3079
3867.649 0.26635 0.29457 0.4368 0.4972 0.3655 0.32763 0.28003 0.22851 0.3495 0.30619
3886.939 0.3503 0.4805 0.3982 0.4209 0.415 0.4052 0.4915 0.4697 0.4039 0.4543
3906.229 0.532 0.5653 0.5276 0.4917 0.4691 0.5128 0.5961 0.5847 0.5829 0.6194
3925.519 0.6079 0.4841 0.4611 0.4171 0.31198 0.5 0.7202 0.6326 0.547 0.5454
3944.809 0.5568 0.6189 0.5345 0.57 0.6227 0.5593 0.6123 0.5835 0.5881 0.5587
3964.099 0.5161 0.581 0.6159 0.5789 0.5482 0.6481 0.6124 0.5479 0.4422 0.5303
3983.389 0.7123 0.6516 0.6312 0.4511 0.4221 0.6222 0.5876 0.6314 0.6452 0.5554
##END=
