##TITLE=SULFONE, METHYL VINYL
##JCAMP-DX=4.24
##DATA TYPE=INFRARED SPECTRUM
##CLASS=COBLENTZ
##ORIGIN=TENNESSEE EASTMAN COMPANY, RESEARCH LABORATORIES
##OWNER=COBLENTZ SOCIETY
Collection (C) 2018 copyright by the U.S. Secretary of Commerce
on behalf of the United States of America. All rights reserved.
##DATE=Not specified, most likely prior to 1970
##NAMES=methyl vinyl sulfone
1-(methylsulfonyl)ethylene
##CAS REGISTRY NO=3680-02-2
##MOLFORM=C3 H6 O2 S
##SOURCE REFERENCE=COBLENTZ NO. 1254
##$NIST SOURCE=COBLENTZ
##$NIST IMAGE=cob1254
##SPECTROMETER/DATA SYSTEM=Not specified, most likely a prism, grating, or hybrid spectrometer.
##PATH LENGTH=0.01 CM
##SAMPLING PROCEDURE=TRANSMISSION
##RESOLUTION=4
##DATA PROCESSING=DIGITIZED BY NIST FROM HARD COPY
##XUNITS=MICROMETERS
##YUNITS=TRANSMITTANCE
##XFACTOR=1.000000
##YFACTOR=1
##DELTAX=000.006676
##FIRSTX=2
##LASTX=15.9864
##FIRSTY=0.949
##MAXX=15.9864
##MINX=2
##MAXY=0.949
##MINY=0
##NPOINTS=2096
##XYDATA=(X++(Y..Y))
2.000000 0.9490 0.9480 0.9480 0.9480 0.9480
2.033397 0.9480 0.9480 0.9490 0.9490 0.9490
2.067000 0.9490 0.9490 0.9480 0.9480 0.9410
2.100397 0.9260 0.8970 0.8860 0.8860 0.8890
2.134000 0.8910 0.8970 0.9010 0.9040 0.9080
2.167397 0.9110 0.9130 0.9140 0.9140 0.9130
2.200000 0.9110 0.9030 0.8910 0.8240 0.7440
2.233397 0.7290 0.7100 0.6920 0.6900 0.6730
2.267000 0.6450 0.6420 0.6450 0.7070 0.7350
2.300397 0.7370 0.7300 0.7090 0.6950 0.6920
2.334000 0.6880 0.6930 0.7290 0.7590 0.7920
2.367397 0.8060 0.8170 0.8220 0.8370 0.8420
2.401000 0.8440 0.8440 0.8420 0.8390 0.8290
2.434397 0.8090 0.7940 0.7720 0.7700 0.7690
2.467000 0.7640 0.7490 0.7470 0.7500 0.7540
2.500397 0.7620 0.7640 0.7600 0.7500 0.7340
2.534000 0.7000 0.6700 0.6580 0.6580 0.6730
2.567397 0.7590 0.7890 0.8360 0.8390 0.8360
2.601000 0.8160 0.8140 0.8170 0.8270 0.8390
2.634397 0.8490 0.8520 0.8560 0.8560 0.8560
2.668000 0.8620 0.8690 0.8720 0.8710 0.8690
2.701397 0.8620 0.8540 0.8520 0.8490 0.8310
2.734000 0.8020 0.7520 0.7120 0.6820 0.6520
2.767397 0.6330 0.6170 0.6120 0.6070 0.6050
2.801000 0.6020 0.6020 0.6020 0.6050 0.6070
2.834397 0.6130 0.6250 0.6280 0.6330 0.6450
2.868000 0.6700 0.7090 0.7570 0.7840 0.7950
2.901397 0.8060 0.8110 0.8120 0.8140 0.8160
2.935000 0.8160 0.8160 0.8140 0.8120 0.8110
2.968397 0.8090 0.8010 0.7920 0.7850 0.7790
3.001000 0.7750 0.7650 0.7570 0.7540 0.7520
3.034397 0.7520 0.7540 0.7520 0.7500 0.7450
3.068000 0.7400 0.7270 0.7120 0.6980 0.6850
3.101397 0.6650 0.6570 0.6480 0.6380 0.6270
3.135000 0.6080 0.5930 0.5730 0.5660 0.5630
3.168397 0.5560 0.5430 0.5210 0.4960 0.4680
3.202000 0.4340 0.4010 0.3620 0.3220 0.2800
3.235397 0.2390 0.1930 0.1500 0.1030 0.0830
3.268000 0.0800 0.0800 0.0780 0.0750 0.0610
3.301397 0.0510 0.0400 0.0330 0.0310 0.0280
3.335000 0.0260 0.0260 0.0260 0.0300 0.0800
3.368397 0.1300 0.1750 0.2250 0.2300 0.2390
3.402000 0.2390 0.2300 0.1600 0.1030 0.0860
3.435397 0.0850 0.0880 0.3160 0.3970 0.6230
3.469000 0.6230 0.6200 0.6180 0.6170 0.6150
3.502397 0.6130 0.6120 0.6100 0.6100 0.6130
3.536000 0.6350 0.6620 0.6750 0.6870 0.6970
3.569397 0.7050 0.7270 0.7440 0.7700 0.7790
3.602000 0.7850 0.7900 0.7940 0.7990 0.8060
3.635397 0.8140 0.8190 0.8220 0.8220 0.8220
3.669000 0.8220 0.8220 0.8220 0.8240 0.8240
3.702397 0.8260 0.8260 0.8290 0.8360 0.8390
3.736000 0.8390 0.8410 0.8410 0.8410 0.8410
3.769397 0.8410 0.8410 0.8410 0.8370 0.8320
3.803000 0.8170 0.7940 0.7570 0.7250 0.6950
3.836397 0.6670 0.6530 0.6420 0.6400 0.6420
3.869000 0.6870 0.7450 0.7850 0.7990 0.8010
3.902397 0.8040 0.8170 0.8310 0.8320 0.8340
3.936000 0.8360 0.8360 0.8360 0.8360 0.8360
3.969397 0.8360 0.8370 0.8390 0.8420 0.8460
4.003000 0.8490 0.8520 0.8560 0.8570 0.8590
4.036397 0.8590 0.8610 0.8610 0.8640 0.8660
4.070000 0.8670 0.8690 0.8710 0.8690 0.8670
4.103397 0.8510 0.8290 0.8010 0.7640 0.7250
4.136000 0.6880 0.6400 0.5910 0.5380 0.5200
4.169397 0.5200 0.5250 0.5830 0.6330 0.6750
4.203000 0.6850 0.6880 0.7000 0.7090 0.7150
4.236397 0.7190 0.7240 0.7250 0.7290 0.7300
4.270000 0.7340 0.7390 0.7440 0.7500 0.7550
4.303397 0.7620 0.7690 0.7690 0.7750 0.7750
4.337000 0.7720 0.7690 0.7490 0.7100 0.6630
4.370397 0.6100 0.5580 0.5100 0.4910 0.4840
4.403000 0.4710 0.4610 0.4530 0.4510 0.4530
4.436397 0.4690 0.5210 0.5980 0.6830 0.7450
4.470000 0.7840 0.8070 0.8310 0.8410 0.8490
4.503397 0.8570 0.8620 0.8660 0.8670 0.8670
4.537000 0.8670 0.8670 0.8690 0.8710 0.8740
4.570397 0.8740 0.8760 0.8760 0.8760 0.8760
4.604000 0.8770 0.8770 0.8770 0.8770 0.8770
4.637397 0.8770 0.8790 0.8790 0.8770 0.8760
4.670000 0.8660 0.8440 0.8070 0.7890 0.7600
4.703397 0.7390 0.7090 0.6820 0.6730 0.6730
4.737000 0.6750 0.6830 0.6920 0.7020 0.7140
4.770397 0.7250 0.7350 0.7370 0.7390 0.7400
4.804000 0.7400 0.7490 0.7600 0.7770 0.7920
4.837397 0.8020 0.8090 0.8120 0.8140 0.8140
4.871000 0.8120 0.8110 0.8070 0.8010 0.7970
4.904397 0.7940 0.7940 0.7940 0.7940 0.7940
4.938000 0.7920 0.7890 0.7820 0.7720 0.7640
4.971397 0.7490 0.7370 0.7220 0.7120 0.7070
5.004000 0.7020 0.6950 0.6820 0.6570 0.6400
5.037397 0.6230 0.6050 0.5800 0.5760 0.5700
5.071000 0.5610 0.5400 0.5250 0.5130 0.5030
5.104397 0.5000 0.5000 0.4980 0.4810 0.4790
5.138000 0.4780 0.4760 0.4760 0.4780 0.4830
5.171397 0.4930 0.5060 0.5250 0.5480 0.5750
5.205000 0.5960 0.6200 0.6430 0.6580 0.6750
5.238397 0.6920 0.7190 0.7390 0.7500 0.7620
5.271000 0.7790 0.7940 0.8040 0.8190 0.8310
5.304397 0.8340 0.8390 0.8470 0.8540 0.8610
5.338000 0.8640 0.8670 0.8690 0.8710 0.8720
5.371397 0.8720 0.8770 0.8810 0.8860 0.8870
5.405000 0.8890 0.8890 0.8890 0.8890 0.8890
5.438397 0.8870 0.8870 0.8860 0.8840 0.8820
5.472000 0.8790 0.8720 0.8670 0.8570 0.8520
5.505397 0.8490 0.8490 0.8490 0.8490 0.8490
5.538000 0.8490 0.8510 0.8540 0.8570 0.8610
5.571397 0.8620 0.8670 0.8690 0.8710 0.8710
5.605000 0.8720 0.8720 0.8720 0.8740 0.8740
5.638397 0.8720 0.8670 0.8610 0.8490 0.8390
5.672000 0.8360 0.8320 0.8290 0.8210 0.8120
5.705397 0.8070 0.8010 0.7970 0.7890 0.7850
5.739000 0.7850 0.7850 0.7850 0.7870 0.7870
5.772397 0.7870 0.7900 0.7990 0.8010 0.8020
5.805000 0.8120 0.8210 0.8210 0.8170 0.8120
5.838397 0.8090 0.8020 0.7990 0.7990 0.7990
5.872000 0.7990 0.7990 0.7970 0.7950 0.7890
5.905397 0.7820 0.7820 0.7820 0.7800 0.7800
5.939000 0.7820 0.7800 0.7770 0.7720 0.7600
5.972397 0.7570 0.7540 0.7520 0.7450 0.7340
6.006000 0.7190 0.7000 0.6950 0.6830 0.6750
6.039397 0.6620 0.6550 0.6500 0.6430 0.6350
6.072000 0.6230 0.6030 0.5850 0.5680 0.5550
6.105397 0.5450 0.5310 0.5250 0.5160 0.5030
6.139000 0.5000 0.4930 0.4790 0.4530 0.4240
6.172397 0.3990 0.3570 0.3270 0.2690 0.2150
6.206000 0.1780 0.1750 0.1720 0.1720 0.2350
6.239397 0.3790 0.4260 0.4460 0.4680 0.4910
6.273000 0.5010 0.5050 0.5050 0.5050 0.5050
6.306397 0.5050 0.5060 0.5080 0.5130 0.5210
6.340000 0.5280 0.5360 0.5480 0.5580 0.5750
6.373397 0.6000 0.6230 0.6330 0.6450 0.6520
6.406000 0.6580 0.6680 0.6830 0.7020 0.7140
6.439397 0.7240 0.7290 0.7300 0.7320 0.7320
6.473000 0.7320 0.7320 0.7320 0.7340 0.7390
6.506397 0.7400 0.7440 0.7500 0.7520 0.7540
6.540000 0.7540 0.7540 0.7540 0.7520 0.7520
6.573397 0.7520 0.7520 0.7520 0.7500 0.7500
6.607000 0.7490 0.7470 0.7420 0.7350 0.7300
6.640397 0.7270 0.7250 0.7240 0.7200 0.7100
6.673000 0.7090 0.7070 0.7020 0.6920 0.6750
6.706397 0.6450 0.6280 0.6150 0.6020 0.5950
6.740000 0.5800 0.5680 0.5460 0.5260 0.5010
6.773397 0.4960 0.4880 0.4810 0.4760 0.4740
6.807000 0.4760 0.4790 0.4860 0.4960 0.5010
6.840397 0.5030 0.5050 0.5050 0.5060 0.5060
6.874000 0.5050 0.5010 0.4980 0.4940 0.4780
6.907397 0.4560 0.4390 0.4330 0.4190 0.4010
6.940000 0.3770 0.3490 0.3190 0.2870 0.2570
6.973397 0.2270 0.2250 0.1950 0.1550 0.1150
7.007000 0.0910 0.0660 0.0580 0.0500 0.0430
7.040397 0.0380 0.0300 0.0260 0.0230 0.0180
7.074000 0.0130 0.0100 0.0080 0.0080 0.0060
7.107397 0.0060 0.0060 0.0060 0.0060 0.0060
7.141000 0.0080 0.0080 0.0080 0.0080 0.0060
7.174397 0.0060 0.0060 0.0050 0.0030 0.0010
7.207000 0.0010 0.0010 0.0010 0.0010 0.0010
7.240397 0.0010 0.0010 0.0010 0.0030 0.0030
7.274000 0.0030 0.0050 0.0060 0.0080 0.0100
7.307397 0.0150 0.0180 0.0200 0.0200 0.0210
7.341000 0.0260 0.0300 0.0350 0.0410 0.0460
7.374397 0.0500 0.0510 0.0550 0.0550 0.0560
7.408000 0.0560 0.0560 0.0560 0.0550 0.0530
7.441397 0.0500 0.0430 0.0380 0.0330 0.0300
7.474000 0.0250 0.0230 0.0200 0.0180 0.0110
7.507397 0.0080 0.0060 0.0060 0.0050 0.0030
7.541000 0.0010 0.0010 0.0010 0.0010 0.0010
7.574397 0.0010 0.0010 0.0010 0.0010 0.0010
7.608000 0.0010 0.0010 0.0010 0.0010 0.0010
7.641397 0.0010 0.0010 0.0010 0.0010 0.0010
7.675000 0.0010 0.0010 0.0010 0.0010 0.0010
7.708397 0.0010 0.0010 0.0010 0.0010 0.0010
7.742000 0.0010 0.0010 0.0010 0.0010 0.0010
7.775397 0.0010 0.0010 0.0010 0.0010 0.0010
7.808000 0.0010 0.0010 0.0010 0.0010 0.0000
7.841397 0.0000 0.0000 0.0000 0.0000 0.0000
7.875000 0.0000 0.0000 0.0000 0.0000 0.0000
7.908397 0.0000 0.0000 0.0000 0.0000 0.0000
7.942000 0.0000 0.0000 0.0000 0.0000 0.0000
7.975397 0.0000 0.0000 0.0000 0.0000 0.0000
8.009000 0.0000 0.0000 0.0000 0.0000 0.0000
8.042397 0.0000 0.0000 0.0000 0.0000 0.0010
8.075000 0.0060 0.0100 0.0150 0.0230 0.0310
8.108397 0.0450 0.0560 0.0650 0.0760 0.0860
8.142000 0.1030 0.1180 0.1230 0.1330 0.1420
8.175397 0.1520 0.1620 0.1670 0.1770 0.1830
8.209000 0.1870 0.1950 0.1970 0.1980 0.1980
8.242397 0.2000 0.2020 0.2020 0.2020 0.2020
8.276000 0.2020 0.2020 0.2020 0.2000 0.1980
8.309397 0.1970 0.1970 0.1950 0.1930 0.1920
8.342000 0.1920 0.1920 0.1920 0.1920 0.1920
8.375397 0.1920 0.1920 0.1920 0.1920 0.1920
8.409000 0.1900 0.1880 0.1800 0.1730 0.1700
8.442397 0.1670 0.1620 0.1600 0.1530 0.1470
8.476000 0.1400 0.1330 0.1250 0.1170 0.1050
8.509397 0.1000 0.0980 0.0900 0.0810 0.0750
8.543000 0.0700 0.0650 0.0610 0.0560 0.0510
8.576397 0.0480 0.0450 0.0400 0.0330 0.0310
8.609000 0.0300 0.0260 0.0250 0.0210 0.0200
8.642397 0.0180 0.0160 0.0130 0.0110 0.0100
8.676000 0.0080 0.0080 0.0080 0.0080 0.0080
8.709397 0.0080 0.0080 0.0080 0.0080 0.0080
8.743000 0.0080 0.0080 0.0080 0.0080 0.0080
8.776397 0.0080 0.0080 0.0080 0.0080 0.0080
8.810000 0.0080 0.0080 0.0080 0.0080 0.0080
8.843397 0.0080 0.0080 0.0080 0.0080 0.0080
8.876000 0.0080 0.0080 0.0080 0.0100 0.0100
8.909397 0.0100 0.0100 0.0100 0.0100 0.0100
8.943000 0.0100 0.0100 0.0100 0.0100 0.0110
8.976397 0.0100 0.0100 0.0110 0.0130 0.0160
9.010000 0.0210 0.0280 0.0360 0.0450 0.0510
9.043397 0.0600 0.0680 0.0810 0.0950 0.1050
9.077000 0.1130 0.1180 0.1230 0.1330 0.1450
9.110397 0.1550 0.1670 0.1720 0.1730 0.1820
9.144000 0.1880 0.1970 0.2040 0.2100 0.2190
9.177397 0.2250 0.2340 0.2420 0.2470 0.2520
9.210000 0.2570 0.2620 0.2670 0.2690 0.2720
9.243397 0.2740 0.2790 0.2870 0.2950 0.2950
9.277000 0.2970 0.2990 0.3010 0.3040 0.3070
9.310397 0.3120 0.3170 0.3210 0.3210 0.3260
9.344000 0.3260 0.3270 0.3270 0.3270 0.3270
9.377397 0.3270 0.3270 0.3270 0.3290 0.3290
9.411000 0.3290 0.3310 0.3310 0.3310 0.3310
9.444397 0.3310 0.3310 0.3310 0.3310 0.3310
9.477000 0.3310 0.3270 0.3260 0.3220 0.3170
9.510397 0.3140 0.3110 0.3090 0.3020 0.3020
9.544000 0.3010 0.2970 0.2900 0.2870 0.2800
9.577397 0.2720 0.2690 0.2650 0.2520 0.2470
9.611000 0.2390 0.2320 0.2270 0.2240 0.2170
9.644397 0.2050 0.2000 0.1900 0.1800 0.1700
9.678000 0.1620 0.1580 0.1500 0.1430 0.1330
9.711397 0.1250 0.1150 0.1080 0.1000 0.0960
9.744000 0.0830 0.0760 0.0710 0.0680 0.0650
9.777397 0.0610 0.0580 0.0530 0.0480 0.0400
9.811000 0.0400 0.0380 0.0380 0.0360 0.0350
9.844397 0.0330 0.0330 0.0350 0.0350 0.0350
9.878000 0.0350 0.0350 0.0350 0.0350 0.0350
9.911397 0.0330 0.0330 0.0310 0.0300 0.0280
9.945000 0.0250 0.0230 0.0200 0.0200 0.0180
9.978397 0.0160 0.0160 0.0150 0.0130 0.0130
10.011000 0.0130 0.0130 0.0130 0.0130 0.0130
10.044397 0.0130 0.0130 0.0110 0.0110 0.0110
10.078000 0.0110 0.0110 0.0110 0.0110 0.0130
10.111397 0.0130 0.0130 0.0130 0.0130 0.0130
10.145000 0.0130 0.0130 0.0110 0.0110 0.0100
10.178397 0.0100 0.0080 0.0080 0.0080 0.0080
10.212000 0.0080 0.0080 0.0080 0.0080 0.0080
10.245397 0.0080 0.0080 0.0080 0.0080 0.0080
10.278000 0.0080 0.0080 0.0080 0.0080 0.0080
10.311397 0.0080 0.0080 0.0080 0.0080 0.0080
10.345000 0.0080 0.0080 0.0080 0.0080 0.0080
10.378397 0.0080 0.0080 0.0080 0.0080 0.0080
10.412000 0.0080 0.0080 0.0080 0.0080 0.0080
10.445397 0.0080 0.0080 0.0080 0.0080 0.0080
10.479000 0.0080 0.0080 0.0080 0.0080 0.0080
10.512397 0.0080 0.0080 0.0080 0.0100 0.0100
10.546000 0.0100 0.0100 0.0100 0.0100 0.0100
10.579397 0.0100 0.0100 0.0100 0.0100 0.0100
10.612000 0.0100 0.0100 0.0100 0.0100 0.0100
10.645397 0.0130 0.0150 0.0200 0.0250 0.0280
10.679000 0.0330 0.0400 0.0480 0.0560 0.0680
10.712397 0.0800 0.0880 0.0960 0.1030 0.1100
10.746000 0.1200 0.1280 0.1350 0.1430 0.1580
10.779397 0.1730 0.1780 0.1830 0.2070 0.2120
10.813000 0.2240 0.2350 0.2440 0.2540 0.2650
10.846397 0.2720 0.2790 0.2820 0.2890 0.2970
10.879000 0.3060 0.3140 0.3240 0.3370 0.3440
10.912397 0.3510 0.3540 0.3610 0.3640 0.3710
10.946000 0.3740 0.3810 0.3870 0.3920 0.3990
10.979397 0.4010 0.4080 0.4080 0.4190 0.4230
11.013000 0.4260 0.4280 0.4310 0.4380 0.4410
11.046397 0.4480 0.4490 0.4530 0.4580 0.4630
11.080000 0.4640 0.4660 0.4680 0.4710 0.4760
11.113397 0.4830 0.4880 0.4980 0.5000 0.5000
11.146000 0.5010 0.5030 0.5030 0.5030 0.5060
11.179397 0.5060 0.5130 0.5150 0.5150 0.5150
11.213000 0.5160 0.5180 0.5180 0.5180 0.5200
11.246397 0.5230 0.5280 0.5310 0.5330 0.5350
11.280000 0.5350 0.5350 0.5350 0.5380 0.5400
11.313397 0.5410 0.5460 0.5500 0.5510 0.5550
11.347000 0.5560 0.5580 0.5600 0.5610 0.5630
11.380397 0.5630 0.5650 0.5660 0.5680 0.5700
11.413000 0.5710 0.5730 0.5750 0.5780 0.5800
11.446397 0.5810 0.5810 0.5810 0.5850 0.5860
11.480000 0.5860 0.5860 0.5860 0.5860 0.5880
11.513397 0.5900 0.5900 0.5900 0.5900 0.5900
11.547000 0.5900 0.5900 0.5900 0.5900 0.5900
11.580397 0.5900 0.5900 0.5900 0.5900 0.5900
11.614000 0.5900 0.5900 0.5900 0.5900 0.5900
11.647397 0.5880 0.5880 0.5860 0.5860 0.5850
11.680000 0.5830 0.5780 0.5750 0.5730 0.5680
11.713397 0.5660 0.5650 0.5610 0.5600 0.5580
11.747000 0.5580 0.5550 0.5530 0.5510 0.5510
11.780397 0.5510 0.5510 0.5480 0.5450 0.5410
11.814000 0.5380 0.5360 0.5350 0.5310 0.5260
11.847397 0.5210 0.5180 0.5160 0.5160 0.5160
11.881000 0.5150 0.5130 0.5130 0.5110 0.5080
11.914397 0.5080 0.5060 0.5050 0.5030 0.5030
11.948000 0.5010 0.5000 0.4980 0.4930 0.4880
11.981397 0.4840 0.4810 0.4740 0.4710 0.4680
12.014000 0.4630 0.4590 0.4580 0.4540 0.4510
12.047397 0.4480 0.4430 0.4380 0.4330 0.4290
12.081000 0.4260 0.4180 0.4130 0.4080 0.4010
12.114397 0.3970 0.3910 0.3840 0.3770 0.3710
12.148000 0.3640 0.3590 0.3520 0.3470 0.3370
12.181397 0.3310 0.3290 0.3220 0.3120 0.3070
12.215000 0.3010 0.2900 0.2800 0.2720 0.2620
12.248397 0.2540 0.2450 0.2370 0.2270 0.2190
12.281000 0.2090 0.2000 0.1880 0.1770 0.1680
12.314397 0.1580 0.1550 0.1480 0.1400 0.1230
12.348000 0.1180 0.1050 0.0980 0.0880 0.0830
12.381397 0.0760 0.0710 0.0700 0.0600 0.0510
12.415000 0.0450 0.0380 0.0350 0.0330 0.0300
12.448397 0.0260 0.0230 0.0210 0.0180 0.0180
12.482000 0.0160 0.0150 0.0150 0.0110 0.0110
12.515397 0.0110 0.0110 0.0110 0.0110 0.0110
12.548000 0.0110 0.0110 0.0110 0.0110 0.0110
12.581397 0.0110 0.0110 0.0110 0.0110 0.0110
12.615000 0.0110 0.0110 0.0110 0.0100 0.0100
12.648397 0.0100 0.0100 0.0100 0.0100 0.0100
12.682000 0.0100 0.0100 0.0100 0.0100 0.0100
12.715397 0.0100 0.0100 0.0100 0.0100 0.0100
12.749000 0.0100 0.0100 0.0100 0.0100 0.0100
12.782397 0.0100 0.0100 0.0100 0.0100 0.0100
12.815000 0.0100 0.0100 0.0100 0.0100 0.0100
12.848397 0.0100 0.0080 0.0080 0.0080 0.0080
12.882000 0.0080 0.0080 0.0080 0.0080 0.0080
12.915397 0.0080 0.0080 0.0080 0.0080 0.0080
12.949000 0.0080 0.0080 0.0100 0.0110 0.0110
12.982397 0.0110 0.0110 0.0130 0.0210 0.0260
13.016000 0.0280 0.0300 0.0310 0.0350 0.0400
13.049397 0.0430 0.0480 0.0510 0.0550 0.0600
13.082000 0.0650 0.0700 0.0760 0.0830 0.0860
13.115397 0.0900 0.0930 0.0980 0.1050 0.1120
13.149000 0.1230 0.1300 0.1330 0.1380 0.1480
13.182397 0.1520 0.1600 0.1670 0.1720 0.1750
13.216000 0.1780 0.1830 0.1900 0.1980 0.2020
13.249397 0.2090 0.2120 0.2200 0.2240 0.2290
13.283000 0.2340 0.2390 0.2490 0.2500 0.2540
13.316397 0.2600 0.2640 0.2670 0.2720 0.2790
13.350000 0.2820 0.2850 0.2900 0.2940 0.2990
13.383397 0.3040 0.3070 0.3120 0.3210 0.3210
13.416000 0.3260 0.3290 0.3340 0.3340 0.3370
13.449397 0.3420 0.3470 0.3490 0.3510 0.3520
13.483000 0.3540 0.3560 0.3590 0.3610 0.3620
13.516397 0.3660 0.3690 0.3710 0.3740 0.3760
13.550000 0.3840 0.3870 0.3890 0.3910 0.3920
13.583397 0.3940 0.3960 0.3970 0.3990 0.4010
13.617000 0.4010 0.4030 0.4060 0.4130 0.4140
13.650397 0.4160 0.4230 0.4240 0.4240 0.4260
13.683000 0.4280 0.4310 0.4310 0.4310 0.4340
13.716397 0.4340 0.4360 0.4390 0.4410 0.4430
13.750000 0.4440 0.4460 0.4480 0.4480 0.4480
13.783397 0.4490 0.4490 0.4490 0.4490 0.4490
13.817000 0.4490 0.4480 0.4480 0.4480 0.4460
13.850397 0.4460 0.4460 0.4460 0.4460 0.4440
13.884000 0.4440 0.4430 0.4430 0.4430 0.4410
13.917397 0.4390 0.4390 0.4390 0.4390 0.4380
13.950000 0.4380 0.4380 0.4380 0.4380 0.4380
13.983397 0.4380 0.4380 0.4380 0.4380 0.4360
14.017000 0.4360 0.4360 0.4360 0.4340 0.4340
14.050397 0.4340 0.4340 0.4330 0.4330 0.4330
14.084000 0.4310 0.4310 0.4210 0.4180 0.4160
14.117397 0.4130 0.4090 0.4080 0.4030 0.3990
14.151000 0.3960 0.3940 0.3870 0.3820 0.3810
14.184397 0.3790 0.3720 0.3670 0.3560 0.3540
14.217000 0.3470 0.3410 0.3370 0.3340 0.3310
14.250397 0.3270 0.3220 0.3170 0.3110 0.3040
14.284000 0.2990 0.2900 0.2820 0.2790 0.2720
14.317397 0.2600 0.2550 0.2470 0.2370 0.2300
14.351000 0.2170 0.2140 0.2040 0.1970 0.1830
14.384397 0.1750 0.1680 0.1620 0.1530 0.1480
14.418000 0.1400 0.1320 0.1220 0.1120 0.1030
14.451397 0.0960 0.0900 0.0850 0.0800 0.0730
14.485000 0.0710 0.0680 0.0630 0.0580 0.0560
14.518397 0.0530 0.0500 0.0500 0.0480 0.0480
14.551000 0.0460 0.0460 0.0450 0.0450 0.0430
14.584397 0.0430 0.0410 0.0410 0.0410 0.0410
14.618000 0.0410 0.0410 0.0410 0.0410 0.0410
14.651397 0.0410 0.0410 0.0410 0.0410 0.0430
14.685000 0.0430 0.0430 0.0430 0.0450 0.0450
14.718397 0.0450 0.0450 0.0460 0.0480 0.0480
14.752000 0.0500 0.0510 0.0530 0.0530 0.0550
14.785397 0.0550 0.0560 0.0580 0.0610 0.0630
14.818000 0.0650 0.0680 0.0730 0.0750 0.0800
14.851397 0.0850 0.0860 0.0930 0.1000 0.1100
14.885000 0.1120 0.1170 0.1220 0.1250 0.1280
14.918397 0.1300 0.1330 0.1420 0.1470 0.1580
14.952000 0.1620 0.1650 0.1680 0.1720 0.1770
14.985397 0.1800 0.1830 0.1880 0.1970 0.2020
15.019000 0.2090 0.2150 0.2200 0.2250 0.2290
15.052397 0.2290 0.2290 0.2290 0.2290 0.2290
15.085000 0.2290 0.2300 0.2300 0.2300 0.2320
15.118397 0.2320 0.2320 0.2320 0.2320 0.2320
15.152000 0.2320 0.2320 0.2320 0.2340 0.2350
15.185397 0.2350 0.2370 0.2370 0.2370 0.2400
15.219000 0.2420 0.2440 0.2440 0.2440 0.2440
15.252397 0.2440 0.2440 0.2440 0.2440 0.2440
15.286000 0.2440 0.2440 0.2440 0.2440 0.2440
15.319397 0.2440 0.2440 0.2440 0.2440 0.2440
15.352000 0.2440 0.2440 0.2420 0.2420 0.2420
15.385397 0.2400 0.2390 0.2370 0.2350 0.2350
15.419000 0.2340 0.2320 0.2300 0.2290 0.2250
15.452397 0.2240 0.2240 0.2220 0.2200 0.2190
15.486000 0.2170 0.2170 0.2150 0.2140 0.2120
15.519397 0.2120 0.2100 0.2090 0.2090 0.2070
15.553000 0.2050 0.2040 0.2000 0.1980 0.1950
15.586397 0.1950 0.1930 0.1930 0.1920 0.1900
15.619000 0.1900 0.1900 0.1900 0.1900 0.1880
15.652397 0.1880 0.1880 0.1870 0.1870 0.1870
15.686000 0.1870 0.1870 0.1870 0.1870 0.1870
15.719397 0.1870 0.1870 0.1850 0.1850 0.1850
15.753000 0.1850 0.1850 0.1850 0.1850 0.1850
15.786397 0.1850 0.1850 0.1850 0.1850 0.1870
15.820000 0.1870 0.1870 0.1870 0.1880 0.1900
15.853397 0.1920 0.1950 0.1970 0.1980 0.2000
15.887000 0.2000 0.2000 0.2000 0.2000 0.2000
15.920397 0.2000 0.2020 0.2020 0.2050 0.2120
15.953000 0.2120 0.2120 0.2120 0.2120 0.2120
15.986397 0.2120
##END=
