##TITLE=Hydroxylamine, N,N-diethyl-
##JCAMP-DX=4.24
##DATA TYPE=INFRARED SPECTRUM
##CLASS=COBLENTZ III
##ORIGIN=WESTERN REGIONAL RES. USDA
##OWNER=Copyright (C) 1987 by the Coblentz Society
Collection (C) 2018 copyright by the U.S. Secretary of Commerce
on behalf of the United States of America. All rights reserved.
##DATE=1967/04/19
##NAMES=N,N-diethylhydroxylamine
1-[ethyl(hydroxy)amino]ethane
##CAS REGISTRY NO=3710-84-7
##MOLFORM=C4 H11 N O
##SOURCE REFERENCE=COBLENTZ NO. 9886
##$NIST SOURCE=COBLENTZ
##$NIST IMAGE=cob9886
##SPECTROMETER/DATA SYSTEM=CARY 90 (GRATING)
##INSTRUMENT PARAMETERS=GRATING CHANGES: 3000, 2000, 1200 CM^-^1
##PATH LENGTH=CAPILLARY
##SAMPLING PROCEDURE=TRANSMISSION
##RESOLUTION=LIQUID (NEAT)
##DATA PROCESSING=DIGITIZED BY COBLENTZ SOCIETY (BATCH II) FROM HARD COPY
##XUNITS=1/CM
##YUNITS=TRANSMITTANCE
##XFACTOR=1.0
##YFACTOR=1
##FIRSTX=463
##LASTX=4000
##FIRSTY=0.7165
##MAXX=4000
##MINX=463
##MAXY=0.9122
##MINY=0.0642
##NPOINTS=3538
##XYDATA=(X++(Y..Y))
463.000000 0.7165 0.7149 0.7133 0.7117 0.7101
468.000000 0.7079 0.7051 0.7022 0.6993 0.6965
473.000000 0.6936 0.6908 0.6879 0.6839 0.6765
478.000000 0.6691 0.6618 0.6544 0.6470 0.6397
483.000000 0.6323 0.6250 0.6176 0.6102 0.6094
488.000000 0.6057 0.6134 0.6300 0.6467 0.6633
493.000000 0.6799 0.6966 0.7132 0.7298 0.7465
498.000000 0.7514 0.7558 0.7549 0.7528 0.7398
503.000000 0.7268 0.7138 0.7008 0.6878 0.6748
508.000000 0.6624 0.6651 0.6724 0.6804 0.6883
513.000000 0.6963 0.7043 0.7123 0.7203 0.7282
518.000000 0.7362 0.7442 0.7522 0.7602 0.7682
523.000000 0.7761 0.7841 0.7921 0.8001 0.8072
528.000000 0.8116 0.8198 0.8261 0.8313 0.8350
533.000000 0.8367 0.8377 0.8349 0.8380 0.8379
538.000000 0.8378 0.8377 0.8369 0.8361 0.8353
543.000000 0.8342 0.8330 0.8318 0.8305 0.8292
548.000000 0.8279 0.8266 0.8252 0.8232 0.8212
553.000000 0.8192 0.8172 0.8152 0.8133 0.8113
558.000000 0.8094 0.8075 0.8055 0.8036 0.8016
563.000000 0.7995 0.7975 0.7954 0.7934 0.7913
568.000000 0.7893 0.7872 0.7848 0.7824 0.7800
573.000000 0.7776 0.7752 0.7729 0.7705 0.7681
578.000000 0.7656 0.7632 0.7608 0.7584 0.7559
583.000000 0.7534 0.7510 0.7485 0.7460 0.7442
588.000000 0.7430 0.7418 0.7405 0.7393 0.7385
593.000000 0.7368 0.7390 0.7398 0.7412 0.7435
598.000000 0.7471 0.7508 0.7547 0.7591 0.7623
603.000000 0.7647 0.7665 0.7676 0.7684 0.7689
608.000000 0.7693 0.7696 0.7700 0.7702 0.7704
613.000000 0.7705 0.7706 0.7708 0.7709 0.7712
618.000000 0.7716 0.7720 0.7724 0.7728 0.7731
623.000000 0.7734 0.7736 0.7738 0.7741 0.7743
628.000000 0.7745 0.7747 0.7749 0.7752 0.7754
633.000000 0.7756 0.7758 0.7761 0.7764 0.7768
638.000000 0.7771 0.7774 0.7777 0.7775 0.7783
643.000000 0.7787 0.7790 0.7793 0.7796 0.7799
648.000000 0.7803 0.7806 0.7809 0.7812 0.7813
653.000000 0.7813 0.7812 0.7811 0.7810 0.7809
658.000000 0.7807 0.7805 0.7803 0.7800 0.7798
663.000000 0.7795 0.7793 0.7791 0.7788 0.7786
668.000000 0.7784 0.7782 0.7779 0.7777 0.7775
673.000000 0.7772 0.7770 0.7768 0.7765 0.7763
678.000000 0.7760 0.7758 0.7754 0.7750 0.7745
683.000000 0.7741 0.7736 0.7732 0.7728 0.7723
688.000000 0.7719 0.7714 0.7710 0.7706 0.7702
693.000000 0.7698 0.7694 0.7690 0.7685 0.7681
698.000000 0.7677 0.7673 0.7669 0.7665 0.7662
703.000000 0.7659 0.7655 0.7652 0.7649 0.7646
708.000000 0.7642 0.7639 0.7636 0.7633 0.7628
713.000000 0.7622 0.7616 0.7611 0.7605 0.7599
718.000000 0.7593 0.7588 0.7582 0.7576 0.7566
723.000000 0.7554 0.7543 0.7531 0.7520 0.7507
728.000000 0.7494 0.7480 0.7467 0.7454 0.7440
733.000000 0.7422 0.7404 0.7387 0.7363 0.7334
738.000000 0.7300 0.7244 0.7177 0.7106 0.7032
743.000000 0.6943 0.6786 0.6678 0.6578 0.6477
748.000000 0.6225 0.5978 0.5780 0.5578 0.5309
753.000000 0.5040 0.4771 0.4502 0.4233 0.3964
758.000000 0.3884 0.3900 0.3954 0.4164 0.4373
763.000000 0.4583 0.4793 0.5002 0.5212 0.5422
768.000000 0.5632 0.5841 0.6021 0.6125 0.6218
773.000000 0.6300 0.6413 0.6541 0.6742 0.6910
778.000000 0.7059 0.7154 0.7235 0.7302 0.7342
783.000000 0.7379 0.7403 0.7416 0.7428 0.7448
788.000000 0.7476 0.7506 0.7573 0.7593 0.7613
793.000000 0.7634 0.7654 0.7665 0.7677 0.7689
798.000000 0.7699 0.7709 0.7719 0.7729 0.7739
803.000000 0.7747 0.7755 0.7764 0.7771 0.7780
808.000000 0.7781 0.7787 0.7791 0.7789 0.7788
813.000000 0.7786 0.7784 0.7777 0.7769 0.7751
818.000000 0.7733 0.7714 0.7694 0.7673 0.7657
823.000000 0.7641 0.7622 0.7646 0.7651 0.7660
828.000000 0.7674 0.7693 0.7721 0.7764 0.7819
833.000000 0.7885 0.7954 0.8029 0.8101 0.8158
838.000000 0.8215 0.8270 0.8325 0.8354 0.8377
843.000000 0.8399 0.8409 0.8419 0.8429 0.8437
848.000000 0.8443 0.8449 0.8455 0.8459 0.8464
853.000000 0.8469 0.8474 0.8478 0.8484 0.8489
858.000000 0.8494 0.8500 0.8505 0.8510 0.8516
863.000000 0.8521 0.8526 0.8532 0.8537 0.8543
868.000000 0.8547 0.8551 0.8555 0.8559 0.8564
873.000000 0.8545 0.8563 0.8561 0.8560 0.8555
878.000000 0.8550 0.8546 0.8541 0.8536 0.8524
883.000000 0.8512 0.8494 0.8470 0.8416 0.8313
888.000000 0.8217 0.8130 0.8035 0.7940 0.7811
893.000000 0.7651 0.7404 0.7157 0.6911 0.6664
898.000000 0.6417 0.6170 0.5923 0.5677 0.5430
903.000000 0.5183 0.4936 0.4690 0.4443 0.4196
908.000000 0.3961 0.3926 0.3918 0.3922 0.3931
913.000000 0.4133 0.4420 0.4683 0.4946 0.5209
918.000000 0.5472 0.5735 0.5998 0.6261 0.6524
923.000000 0.6787 0.6950 0.6993 0.7017 0.7041
928.000000 0.7065 0.7101 0.7140 0.7314 0.7491
933.000000 0.7667 0.7844 0.8020 0.8197 0.8397
938.000000 0.8500 0.8609 0.8693 0.8738 0.8774
943.000000 0.8795 0.8808 0.8822 0.8832 0.8840
948.000000 0.8847 0.8852 0.8856 0.8860 0.8865
953.000000 0.8869 0.8873 0.8877 0.8881 0.8883
958.000000 0.8884 0.8885 0.8885 0.8886 0.8887
963.000000 0.8887 0.8887 0.8887 0.8888 0.8871
968.000000 0.8887 0.8886 0.8885 0.8884 0.8883
973.000000 0.8883 0.8882 0.8880 0.8879 0.8877
978.000000 0.8876 0.8873 0.8869 0.8866 0.8863
983.000000 0.8859 0.8856 0.8852 0.8848 0.8843
988.000000 0.8838 0.8833 0.8828 0.8823 0.8812
993.000000 0.8801 0.8790 0.8779 0.8768 0.8751
998.000000 0.8734 0.8713 0.8682 0.8652 0.8620
1003.000000 0.8582 0.8553 0.8533 0.8514 0.8497
1008.000000 0.8480 0.8456 0.8432 0.8411 0.8390
1013.000000 0.8359 0.8327 0.8293 0.8252 0.8189
1018.000000 0.8117 0.8038 0.7956 0.7870 0.7784
1023.000000 0.7704 0.7618 0.7524 0.7393 0.7225
1028.000000 0.7035 0.6822 0.6609 0.6397 0.6210
1033.000000 0.6210 0.6256 0.6349 0.6442 0.6535
1038.000000 0.6558 0.6423 0.6222 0.6021 0.5820
1043.000000 0.5619 0.5418 0.5216 0.5015 0.4814
1048.000000 0.4580 0.4516 0.4547 0.4494 0.4652
1053.000000 0.4889 0.5125 0.5362 0.5599 0.5835
1058.000000 0.6072 0.6308 0.6545 0.6782 0.7018
1063.000000 0.7199 0.7261 0.7336 0.7412 0.7479
1068.000000 0.7518 0.7527 0.7524 0.7281 0.7128
1073.000000 0.6976 0.6823 0.6735 0.6729 0.6753
1078.000000 0.7013 0.7304 0.7595 0.7887 0.8033
1083.000000 0.8049 0.8063 0.8078 0.8121 0.8188
1088.000000 0.8298 0.8415 0.8485 0.8485 0.8481
1093.000000 0.8478 0.8477 0.8460 0.8445 0.8415
1098.000000 0.8377 0.8332 0.8252 0.8149 0.8019
1103.000000 0.7889 0.7760 0.7630 0.7574 0.7578
1108.000000 0.7667 0.7763 0.7858 0.7954 0.8049
1113.000000 0.8101 0.8087 0.7987 0.7888 0.7814
1118.000000 0.7794 0.7772 0.7747 0.7707 0.7414
1123.000000 0.7111 0.6807 0.6504 0.6201 0.5897
1128.000000 0.5594 0.5290 0.4987 0.4818 0.4773
1133.000000 0.4774 0.4784 0.4799 0.4847 0.4880
1138.000000 0.5067 0.5350 0.5633 0.5916 0.6199
1143.000000 0.6482 0.6765 0.7048 0.7332 0.7601
1148.000000 0.7588 0.7583 0.7565 0.7508 0.7406
1153.000000 0.7206 0.6995 0.6849 0.6816 0.6789
1158.000000 0.6784 0.6756 0.6930 0.7012 0.7094
1163.000000 0.7176 0.7242 0.7254 0.7267 0.7270
1168.000000 0.7063 0.6948 0.6833 0.6718 0.6604
1173.000000 0.6489 0.6374 0.6259 0.6209 0.6216
1178.000000 0.6307 0.6569 0.6831 0.7093 0.7356
1183.000000 0.7618 0.7706 0.7736 0.7776 0.7822
1188.000000 0.7880 0.8062 0.8300 0.8356 0.8373
1193.000000 0.8374 0.8364 0.8341 0.8336 0.8336
1198.000000 0.8359 0.8415 0.8526 0.8552 0.8573
1203.000000 0.8576 0.8579 0.8579 0.8577 0.8575
1208.000000 0.8573 0.8572 0.8570 0.8577 0.8583
1213.000000 0.8590 0.8596 0.8606 0.8618 0.8629
1218.000000 0.8641 0.8652 0.8665 0.8680 0.8696
1223.000000 0.8711 0.8724 0.8733 0.8747 0.8750
1228.000000 0.8752 0.8753 0.8754 0.8750 0.8742
1233.000000 0.8732 0.8719 0.8706 0.8693 0.8667
1238.000000 0.8629 0.8590 0.8556 0.8529 0.8504
1243.000000 0.8485 0.8478 0.8480 0.8486 0.8503
1248.000000 0.8527 0.8544 0.8542 0.8530 0.8518
1253.000000 0.8486 0.8445 0.8396 0.8319 0.8237
1258.000000 0.8151 0.8045 0.7928 0.7809 0.7657
1263.000000 0.7438 0.7318 0.7198 0.7037 0.7043
1268.000000 0.6991 0.7005 0.7087 0.7293 0.7388
1273.000000 0.7458 0.7530 0.7606 0.7683 0.7753
1278.000000 0.7816 0.7829 0.7854 0.7819 0.7797
1283.000000 0.7768 0.7729 0.7682 0.7640 0.7585
1288.000000 0.7528 0.7474 0.7422 0.7370 0.7321
1293.000000 0.7273 0.7252 0.7286 0.7313 0.7348
1298.000000 0.7386 0.7394 0.7389 0.7389 0.7359
1303.000000 0.7333 0.7281 0.7247 0.7235 0.7237
1308.000000 0.7243 0.7274 0.7309 0.7345 0.7395
1313.000000 0.7446 0.7498 0.7552 0.7598 0.7642
1318.000000 0.7667 0.7684 0.7688 0.7683 0.7675
1323.000000 0.7663 0.7647 0.7628 0.7608 0.7584
1328.000000 0.7551 0.7493 0.7398 0.7316 0.7237
1333.000000 0.7149 0.7016 0.6885 0.6737 0.6385
1338.000000 0.6196 0.5746 0.5204 0.4663 0.4525
1343.000000 0.4528 0.4673 0.4909 0.5145 0.5381
1348.000000 0.5618 0.5854 0.6090 0.6206 0.6230
1353.000000 0.6158 0.6092 0.6026 0.5960 0.5893
1358.000000 0.5827 0.5761 0.5695 0.5629 0.5563
1363.000000 0.5496 0.5430 0.5350 0.5255 0.5138
1368.000000 0.4885 0.4511 0.4137 0.3763 0.3390
1373.000000 0.3116 0.3020 0.2970 0.2961 0.2951
1378.000000 0.2972 0.2968 0.3149 0.3475 0.3812
1383.000000 0.4150 0.4487 0.4825 0.5345 0.5658
1388.000000 0.5765 0.5873 0.5980 0.6064 0.6135
1393.000000 0.6193 0.6227 0.6261 0.6295 0.6329
1398.000000 0.6356 0.6379 0.6402 0.6422 0.6429
1403.000000 0.6435 0.6433 0.6470 0.6428 0.6421
1408.000000 0.6408 0.6395 0.6381 0.6369 0.6357
1413.000000 0.6345 0.6333 0.6317 0.6295 0.6273
1418.000000 0.6251 0.6229 0.6202 0.6176 0.6150
1423.000000 0.6123 0.6085 0.6042 0.5999 0.5939
1428.000000 0.5865 0.5791 0.5681 0.5564 0.5442
1433.000000 0.5310 0.5168 0.5016 0.4863 0.4711
1438.000000 0.4558 0.4406 0.4253 0.4101 0.3948
1443.000000 0.3796 0.3643 0.3491 0.3338 0.3188
1448.000000 0.3174 0.3153 0.3198 0.3291 0.3383
1453.000000 0.3476 0.3568 0.3661 0.3753 0.3774
1458.000000 0.3770 0.3759 0.3700 0.3641 0.3582
1463.000000 0.3523 0.3464 0.3426 0.3423 0.3423
1468.000000 0.3734 0.3944 0.4154 0.4365 0.4724
1473.000000 0.4878 0.4986 0.5111 0.5241 0.5386
1478.000000 0.5531 0.5676 0.5821 0.5926 0.6031
1483.000000 0.6116 0.6184 0.6251 0.6319 0.6406
1488.000000 0.6502 0.6598 0.6665 0.6730 0.6795
1493.000000 0.6860 0.6908 0.6952 0.6997 0.7042
1498.000000 0.7086 0.7130 0.7173 0.7217 0.7260
1503.000000 0.7304 0.7347 0.7391 0.7435 0.7479
1508.000000 0.7522 0.7561 0.7594 0.7627 0.7659
1513.000000 0.7692 0.7724 0.7755 0.7782 0.7809
1518.000000 0.7835 0.7862 0.7889 0.7916 0.7942
1523.000000 0.7976 0.8010 0.8036 0.8051 0.8066
1528.000000 0.8082 0.8097 0.8112 0.8128 0.8143
1533.000000 0.8158 0.8170 0.8183 0.8195 0.8207
1538.000000 0.8220 0.8232 0.8246 0.8263 0.8279
1543.000000 0.8296 0.8306 0.8315 0.8324 0.8333
1548.000000 0.8340 0.8347 0.8354 0.8361 0.8368
1553.000000 0.8375 0.8382 0.8389 0.8396 0.8403
1558.000000 0.8410 0.8417 0.8425 0.8432 0.8439
1563.000000 0.8445 0.8451 0.8458 0.8464 0.8471
1568.000000 0.8477 0.8484 0.8490 0.8496 0.8503
1573.000000 0.8509 0.8516 0.8522 0.8529 0.8534
1578.000000 0.8538 0.8542 0.8546 0.8550 0.8554
1583.000000 0.8558 0.8563 0.8567 0.8570 0.8574
1588.000000 0.8577 0.8581 0.8585 0.8588 0.8592
1593.000000 0.8595 0.8599 0.8602 0.8606 0.8609
1598.000000 0.8613 0.8617 0.8620 0.8624 0.8630
1603.000000 0.8638 0.8646 0.8653 0.8661 0.8669
1608.000000 0.8677 0.8685 0.8692 0.8695 0.8696
1613.000000 0.8697 0.8698 0.8699 0.8700 0.8701
1618.000000 0.8702 0.8703 0.8704 0.8704 0.8705
1623.000000 0.8706 0.8707 0.8706 0.8705 0.8704
1628.000000 0.8703 0.8702 0.8701 0.8701 0.8700
1633.000000 0.8699 0.8698 0.8698 0.8699 0.8699
1638.000000 0.8699 0.8699 0.8699 0.8699 0.8699
1643.000000 0.8700 0.8700 0.8700 0.8700 0.8700
1648.000000 0.8700 0.8701 0.8701 0.8701 0.8703
1653.000000 0.8704 0.8706 0.8708 0.8709 0.8711
1658.000000 0.8713 0.8714 0.8716 0.8718 0.8720
1663.000000 0.8722 0.8724 0.8726 0.8728 0.8730
1668.000000 0.8732 0.8734 0.8736 0.8738 0.8740
1673.000000 0.8742 0.8744 0.8746 0.8748 0.8750
1678.000000 0.8752 0.8754 0.8756 0.8758 0.8760
1683.000000 0.8762 0.8765 0.8768 0.8772 0.8775
1688.000000 0.8778 0.8781 0.8784 0.8787 0.8790
1693.000000 0.8793 0.8796 0.8799 0.8802 0.8805
1698.000000 0.8808 0.8812 0.8815 0.8818 0.8821
1703.000000 0.8824 0.8827 0.8830 0.8833 0.8836
1708.000000 0.8838 0.8841 0.8843 0.8845 0.8848
1713.000000 0.8850 0.8852 0.8854 0.8857 0.8859
1718.000000 0.8861 0.8863 0.8866 0.8868 0.8870
1723.000000 0.8873 0.8875 0.8877 0.8879 0.8882
1728.000000 0.8884 0.8886 0.8888 0.8891 0.8893
1733.000000 0.8895 0.8898 0.8900 0.8902 0.8904
1738.000000 0.8906 0.8907 0.8907 0.8908 0.8908
1743.000000 0.8909 0.8910 0.8910 0.8911 0.8912
1748.000000 0.8912 0.8913 0.8914 0.8914 0.8915
1753.000000 0.8915 0.8916 0.8917 0.8917 0.8918
1758.000000 0.8919 0.8919 0.8920 0.8920 0.8921
1763.000000 0.8922 0.8922 0.8923 0.8924 0.8924
1768.000000 0.8925 0.8925 0.8926 0.8927 0.8927
1773.000000 0.8928 0.8929 0.8929 0.8930 0.8930
1778.000000 0.8931 0.8932 0.8932 0.8933 0.8933
1783.000000 0.8934 0.8935 0.8935 0.8936 0.8936
1788.000000 0.8937 0.8938 0.8938 0.8939 0.8939
1793.000000 0.8940 0.8941 0.8941 0.8942 0.8942
1798.000000 0.8941 0.8941 0.8940 0.8940 0.8940
1803.000000 0.8939 0.8939 0.8938 0.8938 0.8937
1808.000000 0.8937 0.8937 0.8936 0.8936 0.8935
1813.000000 0.8935 0.8934 0.8934 0.8934 0.8933
1818.000000 0.8933 0.8932 0.8932 0.8931 0.8931
1823.000000 0.8931 0.8930 0.8930 0.8929 0.8929
1828.000000 0.8916 0.8928 0.8928 0.8927 0.8927
1833.000000 0.8926 0.8926 0.8926 0.8926 0.8925
1838.000000 0.8925 0.8925 0.8924 0.8924 0.8924
1843.000000 0.8923 0.8923 0.8923 0.8922 0.8922
1848.000000 0.8922 0.8921 0.8921 0.8921 0.8920
1853.000000 0.8918 0.8916 0.8913 0.8910 0.8907
1858.000000 0.8904 0.8901 0.8898 0.8896 0.8894
1863.000000 0.8894 0.8894 0.8894 0.8894 0.8894
1868.000000 0.8894 0.8894 0.8894 0.8894 0.8894
1873.000000 0.8894 0.8894 0.8894 0.8894 0.8894
1878.000000 0.8894 0.8894 0.8894 0.8894 0.8894
1883.000000 0.8894 0.8895 0.8896 0.8898 0.8899
1888.000000 0.8900 0.8902 0.8903 0.8904 0.8906
1893.000000 0.8907 0.8909 0.8910 0.8911 0.8913
1898.000000 0.8914 0.8915 0.8917 0.8918 0.8919
1903.000000 0.8921 0.8922 0.8924 0.8925 0.8926
1908.000000 0.8927 0.8928 0.8928 0.8929 0.8930
1913.000000 0.8931 0.8932 0.8933 0.8934 0.8935
1918.000000 0.8935 0.8936 0.8937 0.8938 0.8939
1923.000000 0.8940 0.8941 0.8941 0.8940 0.8938
1928.000000 0.8935 0.8933 0.8930 0.8928 0.8925
1933.000000 0.8922 0.8920 0.8917 0.8915 0.8912
1938.000000 0.8910 0.8902 0.8894 0.8886 0.8878
1943.000000 0.8870 0.8862 0.8854 0.8847 0.8839
1948.000000 0.8831 0.8823 0.8819 0.8815 0.8811
1953.000000 0.8807 0.8803 0.8799 0.8796 0.8792
1958.000000 0.8788 0.8784 0.8787 0.8792 0.8797
1963.000000 0.8801 0.8806 0.8811 0.8816 0.8820
1968.000000 0.8830 0.8842 0.8855 0.8867 0.8879
1973.000000 0.8892 0.8904 0.8909 0.8909 0.8910
1978.000000 0.8911 0.8911 0.8912 0.8912 0.8913
1983.000000 0.8913 0.8910 0.8906 0.8901 0.8897
1988.000000 0.8893 0.8889 0.8885 0.8881 0.8877
1993.000000 0.8871 0.8866 0.8865 0.8868 0.8870
1998.000000 0.8873 0.8875 0.8878 0.8884 0.8891
2003.000000 0.8895 0.8899 0.8903 0.8907 0.8908
2008.000000 0.8910 0.8911 0.8913 0.8915 0.8917
2013.000000 0.8918 0.8920 0.8922 0.8924 0.8925
2018.000000 0.8927 0.8928 0.8930 0.8931 0.8932
2023.000000 0.8933 0.8934 0.8935 0.8936 0.8936
2028.000000 0.8937 0.8938 0.8939 0.8939 0.8940
2033.000000 0.8941 0.8942 0.8942 0.8943 0.8944
2038.000000 0.8945 0.8945 0.8946 0.8947 0.8948
2043.000000 0.8948 0.8949 0.8950 0.8951 0.8951
2048.000000 0.8952 0.8953 0.8954 0.8954 0.8955
2053.000000 0.8956 0.8957 0.8957 0.8958 0.8959
2058.000000 0.8960 0.8961 0.8962 0.8963 0.8964
2063.000000 0.8965 0.8966 0.8967 0.8968 0.8969
2068.000000 0.8970 0.8971 0.8972 0.8973 0.8974
2073.000000 0.8974 0.8975 0.8976 0.8977 0.8978
2078.000000 0.8979 0.8980 0.8981 0.8982 0.8983
2083.000000 0.8984 0.8985 0.8986 0.8987 0.8988
2088.000000 0.8989 0.8990 0.8991 0.8992 0.8993
2093.000000 0.8994 0.8995 0.8995 0.8996 0.8996
2098.000000 0.8997 0.8997 0.8998 0.8998 0.8999
2103.000000 0.8999 0.9000 0.9000 0.9001 0.9001
2108.000000 0.9002 0.9002 0.9003 0.9004 0.9005
2113.000000 0.9005 0.9006 0.9006 0.9007 0.9007
2118.000000 0.9008 0.9008 0.9009 0.9009 0.9010
2123.000000 0.9010 0.9011 0.9011 0.9012 0.9012
2128.000000 0.9013 0.9013 0.9014 0.9014 0.9015
2133.000000 0.9015 0.9016 0.9016 0.9017 0.9017
2138.000000 0.9018 0.9018 0.9019 0.9018 0.9018
2143.000000 0.9017 0.9017 0.9016 0.9016 0.9015
2148.000000 0.9015 0.9014 0.9014 0.9013 0.9013
2153.000000 0.9012 0.9011 0.9010 0.9010 0.9009
2158.000000 0.9009 0.9008 0.9008 0.9007 0.9007
2163.000000 0.9006 0.9006 0.9005 0.9005 0.9004
2168.000000 0.9004 0.9003 0.9003 0.9002 0.9001
2173.000000 0.9000 0.9000 0.8999 0.8999 0.8998
2178.000000 0.8998 0.8997 0.8997 0.8996 0.8996
2183.000000 0.8995 0.8995 0.8994 0.8994 0.8993
2188.000000 0.8993 0.8992 0.8991 0.8990 0.8990
2193.000000 0.8989 0.8989 0.8989 0.8989 0.8989
2198.000000 0.8989 0.8988 0.8988 0.8988 0.8988
2203.000000 0.8988 0.8988 0.8988 0.8988 0.8987
2208.000000 0.8987 0.8987 0.8987 0.8987 0.8987
2213.000000 0.8986 0.8986 0.8986 0.8986 0.8986
2218.000000 0.8986 0.8986 0.8986 0.8985 0.8985
2223.000000 0.8985 0.8985 0.8985 0.8985 0.8985
2228.000000 0.8985 0.8984 0.8984 0.8984 0.8984
2233.000000 0.8984 0.8984 0.8983 0.8983 0.8983
2238.000000 0.8983 0.8983 0.8983 0.8982 0.8982
2243.000000 0.8981 0.8980 0.8979 0.8978 0.8977
2248.000000 0.8976 0.8974 0.8973 0.8972 0.8971
2253.000000 0.8970 0.8969 0.8968 0.8967 0.8966
2258.000000 0.8965 0.8963 0.8962 0.8961 0.8960
2263.000000 0.8959 0.8958 0.8957 0.8956 0.8955
2268.000000 0.8954 0.8952 0.8951 0.8950 0.8949
2273.000000 0.8948 0.8947 0.8946 0.8945 0.8944
2278.000000 0.8943 0.8941 0.8940 0.8939 0.8938
2283.000000 0.8937 0.8936 0.8935 0.8934 0.8933
2288.000000 0.8932 0.8931 0.8930 0.8928 0.8927
2293.000000 0.8926 0.8925 0.8924 0.8923 0.8922
2298.000000 0.8921 0.8919 0.8918 0.8916 0.8915
2303.000000 0.8913 0.8912 0.8910 0.8908 0.8906
2308.000000 0.8905 0.8903 0.8902 0.8900 0.8899
2313.000000 0.8897 0.8895 0.8893 0.8892 0.8890
2318.000000 0.8889 0.8887 0.8886 0.8884 0.8882
2323.000000 0.8880 0.8879 0.8877 0.8876 0.8874
2328.000000 0.8873 0.8871 0.8869 0.8867 0.8866
2333.000000 0.8864 0.8863 0.8861 0.8860 0.8858
2338.000000 0.8856 0.8854 0.8853 0.8851 0.8850
2343.000000 0.8848 0.8847 0.8845 0.8843 0.8841
2348.000000 0.8840 0.8838 0.8837 0.8835 0.8834
2353.000000 0.8832 0.8830 0.8828 0.8827 0.8826
2358.000000 0.8825 0.8823 0.8822 0.8820 0.8819
2363.000000 0.8818 0.8817 0.8815 0.8814 0.8813
2368.000000 0.8812 0.8810 0.8809 0.8807 0.8806
2373.000000 0.8805 0.8804 0.8802 0.8801 0.8800
2378.000000 0.8799 0.8797 0.8796 0.8794 0.8793
2383.000000 0.8792 0.8791 0.8789 0.8788 0.8787
2388.000000 0.8786 0.8784 0.8783 0.8781 0.8780
2393.000000 0.8779 0.8778 0.8776 0.8775 0.8774
2398.000000 0.8773 0.8771 0.8770 0.8768 0.8767
2403.000000 0.8766 0.8765 0.8763 0.8762 0.8761
2408.000000 0.8760 0.8759 0.8758 0.8757 0.8756
2413.000000 0.8755 0.8754 0.8753 0.8752 0.8751
2418.000000 0.8751 0.8750 0.8749 0.8748 0.8747
2423.000000 0.8746 0.8745 0.8744 0.8743 0.8742
2428.000000 0.8741 0.8740 0.8740 0.8739 0.8738
2433.000000 0.8737 0.8736 0.8735 0.8734 0.8733
2438.000000 0.8732 0.8731 0.8731 0.8730 0.8729
2443.000000 0.8728 0.8727 0.8726 0.8725 0.8724
2448.000000 0.8723 0.8722 0.8721 0.8720 0.8719
2453.000000 0.8718 0.8718 0.8717 0.8716 0.8715
2458.000000 0.8714 0.8713 0.8712 0.8711 0.8710
2463.000000 0.8709 0.8708 0.8707 0.8707 0.8706
2468.000000 0.8705 0.8704 0.8703 0.8702 0.8701
2473.000000 0.8696 0.8691 0.8682 0.8674 0.8666
2478.000000 0.8658 0.8649 0.8641 0.8632 0.8624
2483.000000 0.8616 0.8608 0.8599 0.8591 0.8586
2488.000000 0.8581 0.8578 0.8575 0.8572 0.8569
2493.000000 0.8566 0.8563 0.8560 0.8557 0.8554
2498.000000 0.8551 0.8548 0.8545 0.8542 0.8539
2503.000000 0.8536 0.8534 0.8532 0.8531 0.8529
2508.000000 0.8528 0.8526 0.8525 0.8523 0.8522
2513.000000 0.8520 0.8519 0.8512 0.8506 0.8498
2518.000000 0.8491 0.8483 0.8475 0.8467 0.8460
2523.000000 0.8452 0.8445 0.8437 0.8430 0.8422
2528.000000 0.8414 0.8406 0.8399 0.8391 0.8384
2533.000000 0.8375 0.8367 0.8358 0.8350 0.8341
2538.000000 0.8333 0.8324 0.8316 0.8307 0.8299
2543.000000 0.8288 0.8278 0.8265 0.8253 0.8240
2548.000000 0.8228 0.8215 0.8202 0.8189 0.8177
2553.000000 0.8164 0.8152 0.8139 0.8126 0.8113
2558.000000 0.8101 0.8088 0.8076 0.8063 0.8050
2563.000000 0.8037 0.8025 0.8012 0.8000 0.7988
2568.000000 0.7977 0.7967 0.7958 0.7949 0.7940
2573.000000 0.7930 0.7921 0.7911 0.7902 0.7893
2578.000000 0.7884 0.7874 0.7865 0.7855 0.7846
2583.000000 0.7837 0.7828 0.7818 0.7809 0.7799
2588.000000 0.7790 0.7781 0.7772 0.7762 0.7753
2593.000000 0.7744 0.7736 0.7727 0.7718 0.7709
2598.000000 0.7701 0.7692 0.7684 0.7675 0.7667
2603.000000 0.7658 0.7649 0.7640 0.7632 0.7623
2608.000000 0.7615 0.7606 0.7598 0.7589 0.7580
2613.000000 0.7571 0.7563 0.7554 0.7546 0.7537
2618.000000 0.7529 0.7520 0.7511 0.7503 0.7496
2623.000000 0.7488 0.7481 0.7473 0.7466 0.7458
2628.000000 0.7451 0.7443 0.7436 0.7428 0.7421
2633.000000 0.7413 0.7406 0.7398 0.7390 0.7379
2638.000000 0.7368 0.7356 0.7345 0.7333 0.7321
2643.000000 0.7309 0.7297 0.7285 0.7274 0.7262
2648.000000 0.7250 0.7238 0.7227 0.7215 0.7203
2653.000000 0.7191 0.7180 0.7168 0.7156 0.7142
2658.000000 0.7128 0.7113 0.7099 0.7084 0.7069
2663.000000 0.7054 0.7040 0.7025 0.7010 0.6995
2668.000000 0.6981 0.6966 0.6951 0.6932 0.6913
2673.000000 0.6892 0.6871 0.6850 0.6829 0.6808
2678.000000 0.6787 0.6766 0.6745 0.6724 0.6704
2683.000000 0.6683 0.6662 0.6641 0.6621 0.6601
2688.000000 0.6582 0.6569 0.6556 0.6543 0.6530
2693.000000 0.6517 0.6504 0.6490 0.6477 0.6464
2698.000000 0.6451 0.6438 0.6425 0.6411 0.6398
2703.000000 0.6382 0.6366 0.6350 0.6334 0.6318
2708.000000 0.6303 0.6287 0.6271 0.6255 0.6239
2713.000000 0.6223 0.6207 0.6189 0.6172 0.6153
2718.000000 0.6135 0.6117 0.6099 0.6080 0.6062
2723.000000 0.6044 0.6026 0.6007 0.5989 0.5971
2728.000000 0.5953 0.5934 0.5916 0.5898 0.5880
2733.000000 0.5861 0.5843 0.5825 0.5807 0.5786
2738.000000 0.5765 0.5744 0.5723 0.5701 0.5680
2743.000000 0.5659 0.5638 0.5617 0.5596 0.5574
2748.000000 0.5553 0.5532 0.5511 0.5488 0.5465
2753.000000 0.5433 0.5401 0.5368 0.5336 0.5304
2758.000000 0.5272 0.5242 0.5213 0.5189 0.5166
2763.000000 0.5142 0.5118 0.5094 0.5071 0.5047
2768.000000 0.5024 0.5000 0.4976 0.4956 0.4936
2773.000000 0.4918 0.4901 0.4883 0.4866 0.4848
2778.000000 0.4830 0.4812 0.4795 0.4777 0.4760
2783.000000 0.4742 0.4725 0.4707 0.4690 0.4658
2788.000000 0.4626 0.4587 0.4548 0.4509 0.4470
2793.000000 0.4418 0.4367 0.4296 0.4226 0.4179
2798.000000 0.4132 0.4091 0.4051 0.4011 0.3971
2803.000000 0.3937 0.3903 0.3869 0.3835 0.3801
2808.000000 0.3767 0.3724 0.3682 0.3620 0.3558
2813.000000 0.3499 0.3440 0.3384 0.3329 0.3279
2818.000000 0.3229 0.3192 0.3156 0.3119 0.3083
2823.000000 0.3046 0.3010 0.2944 0.2878 0.2801
2828.000000 0.2725 0.2621 0.2517 0.2417 0.2318
2833.000000 0.2234 0.2150 0.2028 0.1906 0.1838
2838.000000 0.1771 0.1725 0.1680 0.1628 0.1577
2843.000000 0.1521 0.1465 0.1419 0.1373 0.1356
2848.000000 0.1339 0.1336 0.1353 0.1338 0.1342
2853.000000 0.1365 0.1389 0.1449 0.1509 0.1572
2858.000000 0.1635 0.1698 0.1762 0.1825 0.1889
2863.000000 0.1952 0.2016 0.2068 0.2121 0.2123
2868.000000 0.2126 0.2128 0.2140 0.2074 0.2019
2873.000000 0.1963 0.1908 0.1852 0.1796 0.1740
2878.000000 0.1685 0.1629 0.1574 0.1518 0.1462
2883.000000 0.1463 0.1465 0.1501 0.1537 0.1584
2888.000000 0.1462 0.1679 0.1726 0.1773 0.1821
2893.000000 0.1868 0.1915 0.1962 0.2009 0.2056
2898.000000 0.2104 0.2151 0.2198 0.2245 0.2293
2903.000000 0.2340 0.2387 0.2434 0.2482 0.2515
2908.000000 0.2557 0.2545 0.2542 0.2529 0.2517
2913.000000 0.2484 0.2452 0.2419 0.2387 0.2365
2918.000000 0.2344 0.2356 0.2366 0.2416 0.2464
2923.000000 0.2494 0.2524 0.2519 0.2503 0.2443
2928.000000 0.2373 0.2299 0.2225 0.2150 0.2076
2933.000000 0.2001 0.1927 0.1852 0.1778 0.1703
2938.000000 0.1629 0.1554 0.1480 0.1405 0.1331
2943.000000 0.1256 0.1182 0.1178 0.1175 0.1231
2948.000000 0.1187 0.1382 0.1476 0.1570 0.1664
2953.000000 0.1758 0.1853 0.1947 0.2041 0.2135
2958.000000 0.2229 0.2323 0.2417 0.2511 0.2605
2963.000000 0.2650 0.2696 0.2628 0.2681 0.2401
2968.000000 0.2241 0.2081 0.1922 0.1762 0.1603
2973.000000 0.1443 0.1283 0.1123 0.0964 0.0804
2978.000000 0.0644 0.0643 0.0642 0.0659 0.0664
2983.000000 0.0723 0.0771 0.0817 0.0863 0.0902
2988.000000 0.0941 0.0976 0.1012 0.1060 0.1108
2993.000000 0.1238 0.1369 0.1432 0.1495 0.1663
2998.000000 0.1831 0.2126 0.2421 0.2715 0.3010
3003.000000 0.3305 0.3600 0.3853 0.4107 0.4182
3008.000000 0.4258 0.4314 0.4371 0.4419 0.4467
3013.000000 0.4527 0.4587 0.4640 0.4693 0.4738
3018.000000 0.4783 0.4818 0.4854 0.4888 0.4923
3023.000000 0.4956 0.4990 0.5014 0.5039 0.5053
3028.000000 0.5068 0.5082 0.5097 0.5109 0.5122
3033.000000 0.5132 0.5142 0.5150 0.5159 0.5160
3038.000000 0.5161 0.5154 0.5148 0.5132 0.5117
3043.000000 0.5101 0.5086 0.5070 0.5055 0.5035
3048.000000 0.5015 0.4994 0.4974 0.4956 0.4939
3053.000000 0.4921 0.4904 0.4886 0.4868 0.4850
3058.000000 0.4833 0.4817 0.4801 0.4785 0.4770
3063.000000 0.4754 0.4739 0.4724 0.4709 0.4693
3068.000000 0.4678 0.4662 0.4647 0.4632 0.4617
3073.000000 0.4601 0.4586 0.4570 0.4555 0.4540
3078.000000 0.4525 0.4510 0.4496 0.4481 0.4466
3083.000000 0.4451 0.4437 0.4422 0.4408 0.4393
3088.000000 0.4378 0.4363 0.4349 0.4334 0.4319
3093.000000 0.4304 0.4290 0.4274 0.4259 0.4240
3098.000000 0.4222 0.4203 0.4184 0.4165 0.4147
3103.000000 0.4128 0.4110 0.4091 0.4073 0.4054
3108.000000 0.4036 0.4017 0.3999 0.3980 0.3962
3113.000000 0.3945 0.3928 0.3912 0.3896 0.3880
3118.000000 0.3864 0.3848 0.3833 0.3817 0.3801
3123.000000 0.3785 0.3769 0.3753 0.3737 0.3721
3128.000000 0.3705 0.3689 0.3673 0.3657 0.3641
3133.000000 0.3626 0.3611 0.3596 0.3582 0.3567
3138.000000 0.3553 0.3538 0.3524 0.3509 0.3495
3143.000000 0.3480 0.3466 0.3451 0.3436 0.3421
3148.000000 0.3407 0.3392 0.3378 0.3363 0.3349
3153.000000 0.3332 0.3316 0.3298 0.3281 0.3263
3158.000000 0.3246 0.3228 0.3211 0.3193 0.3176
3163.000000 0.3158 0.3141 0.3124 0.3107 0.3089
3168.000000 0.3072 0.3054 0.3037 0.3018 0.3000
3173.000000 0.2981 0.2963 0.2944 0.2925 0.2906
3178.000000 0.2888 0.2873 0.2858 0.2849 0.2840
3183.000000 0.2831 0.2823 0.2814 0.2805 0.2796
3188.000000 0.2788 0.2779 0.2770 0.2761 0.2752
3193.000000 0.2743 0.2735 0.2727 0.2720 0.2715
3198.000000 0.2710 0.2705 0.2700 0.2695 0.2691
3203.000000 0.2686 0.2681 0.2676 0.2671 0.2666
3208.000000 0.2662 0.2657 0.2652 0.2647 0.2643
3213.000000 0.2640 0.2637 0.2633 0.2630 0.2627
3218.000000 0.2624 0.2620 0.2617 0.2614 0.2611
3223.000000 0.2607 0.2604 0.2601 0.2598 0.2596
3228.000000 0.2595 0.2594 0.2594 0.2593 0.2593
3233.000000 0.2592 0.2592 0.2592 0.2592 0.2591
3238.000000 0.2535 0.2590 0.2590 0.2591 0.2593
3243.000000 0.2596 0.2599 0.2602 0.2606 0.2610
3248.000000 0.2614 0.2619 0.2624 0.2629 0.2634
3253.000000 0.2638 0.2643 0.2647 0.2651 0.2655
3258.000000 0.2660 0.2664 0.2668 0.2672 0.2677
3263.000000 0.2681 0.2685 0.2689 0.2693 0.2697
3268.000000 0.2701 0.2704 0.2708 0.2712 0.2716
3273.000000 0.2720 0.2724 0.2727 0.2731 0.2735
3278.000000 0.2739 0.2743 0.2748 0.2754 0.2760
3283.000000 0.2765 0.2771 0.2777 0.2783 0.2788
3288.000000 0.2794 0.2802 0.2811 0.2825 0.2839
3293.000000 0.2852 0.2865 0.2877 0.2890 0.2902
3298.000000 0.2915 0.2927 0.2939 0.2950 0.2961
3303.000000 0.2971 0.2982 0.2992 0.3003 0.3013
3308.000000 0.3024 0.3034 0.3045 0.3052 0.3060
3313.000000 0.3065 0.3071 0.3076 0.3082 0.3087
3318.000000 0.3093 0.3098 0.3103 0.3108 0.3114
3323.000000 0.3119 0.3125 0.3129 0.3134 0.3136
3328.000000 0.3138 0.3140 0.3142 0.3144 0.3147
3333.000000 0.3149 0.3151 0.3153 0.3156 0.3158
3338.000000 0.3160 0.3162 0.3165 0.3167 0.3169
3343.000000 0.3171 0.3174 0.3176 0.3178 0.3182
3348.000000 0.3186 0.3189 0.3193 0.3196 0.3200
3353.000000 0.3204 0.3208 0.3211 0.3215 0.3218
3358.000000 0.3222 0.3226 0.3230 0.3236 0.3242
3363.000000 0.3252 0.3263 0.3273 0.3284 0.3294
3368.000000 0.3305 0.3315 0.3325 0.3335 0.3346
3373.000000 0.3356 0.3367 0.3379 0.3391 0.3405
3378.000000 0.3419 0.3433 0.3447 0.3461 0.3476
3383.000000 0.3491 0.3507 0.3522 0.3537 0.3552
3388.000000 0.3567 0.3582 0.3597 0.3612 0.3627
3393.000000 0.3642 0.3658 0.3673 0.3689 0.3706
3398.000000 0.3724 0.3741 0.3759 0.3776 0.3794
3403.000000 0.3811 0.3828 0.3846 0.3864 0.3882
3408.000000 0.3901 0.3919 0.3938 0.3956 0.3974
3413.000000 0.3992 0.4011 0.4029 0.4048 0.4066
3418.000000 0.4084 0.4100 0.4116 0.4132 0.4148
3423.000000 0.4164 0.4180 0.4196 0.4212 0.4228
3428.000000 0.4244 0.4260 0.4276 0.4292 0.4308
3433.000000 0.4320 0.4333 0.4345 0.4358 0.4371
3438.000000 0.4384 0.4396 0.4409 0.4422 0.4435
3443.000000 0.4447 0.4460 0.4472 0.4485 0.4498
3448.000000 0.4511 0.4523 0.4536 0.4551 0.4567
3453.000000 0.4585 0.4603 0.4621 0.4639 0.4657
3458.000000 0.4676 0.4705 0.4734 0.4766 0.4798
3463.000000 0.4828 0.4858 0.4881 0.4905 0.4928
3468.000000 0.4952 0.4976 0.5000 0.5025 0.5051
3473.000000 0.5082 0.5113 0.5144 0.5175 0.5205
3478.000000 0.5236 0.5267 0.5298 0.5334 0.5370
3483.000000 0.5414 0.5458 0.5501 0.5545 0.5589
3488.000000 0.5633 0.5676 0.5720 0.5753 0.5787
3493.000000 0.5814 0.5842 0.5869 0.5897 0.5925
3498.000000 0.5953 0.5980 0.6008 0.6036 0.6065
3503.000000 0.6097 0.6130 0.6162 0.6194 0.6226
3508.000000 0.6258 0.6290 0.6322 0.6354 0.6386
3513.000000 0.6418 0.6451 0.6483 0.6516 0.6549
3518.000000 0.6582 0.6614 0.6647 0.6679 0.6712
3523.000000 0.6744 0.6776 0.6804 0.6832 0.6860
3528.000000 0.6888 0.6916 0.6944 0.6972 0.7001
3533.000000 0.7029 0.7057 0.7085 0.7113 0.7141
3538.000000 0.7170 0.7198 0.7226 0.7254 0.7283
3543.000000 0.7311 0.7340 0.7375 0.7411 0.7446
3548.000000 0.7481 0.7516 0.7552 0.7585 0.7619
3553.000000 0.7646 0.7673 0.7700 0.7728 0.7755
3558.000000 0.7782 0.7808 0.7835 0.7851 0.7867
3563.000000 0.7883 0.7899 0.7915 0.7931 0.7947
3568.000000 0.7964 0.7980 0.7996 0.8012 0.8028
3573.000000 0.8047 0.8066 0.8089 0.8112 0.8135
3578.000000 0.8158 0.8181 0.8204 0.8227 0.8250
3583.000000 0.8265 0.8280 0.8292 0.8305 0.8317
3588.000000 0.8330 0.8342 0.8355 0.8367 0.8379
3593.000000 0.8390 0.8402 0.8413 0.8425 0.8436
3598.000000 0.8448 0.8459 0.8470 0.8481 0.8493
3603.000000 0.8503 0.8513 0.8520 0.8527 0.8533
3608.000000 0.8540 0.8547 0.8554 0.8561 0.8568
3613.000000 0.8574 0.8581 0.8588 0.8595 0.8602
3618.000000 0.8609 0.8615 0.8622 0.8629 0.8636
3623.000000 0.8643 0.8650 0.8657 0.8664 0.8671
3628.000000 0.8678 0.8685 0.8693 0.8700 0.8708
3633.000000 0.8715 0.8723 0.8730 0.8737 0.8744
3638.000000 0.8751 0.8758 0.8765 0.8772 0.8779
3643.000000 0.8786 0.8793 0.8799 0.8805 0.8810
3648.000000 0.8815 0.8820 0.8826 0.8831 0.8836
3653.000000 0.8841 0.8847 0.8852 0.8857 0.8862
3658.000000 0.8867 0.8872 0.8878 0.8883 0.8888
3663.000000 0.8893 0.8898 0.8901 0.8905 0.8907
3668.000000 0.8909 0.8911 0.8913 0.8915 0.8917
3673.000000 0.8919 0.8921 0.8923 0.8925 0.8927
3678.000000 0.8929 0.8931 0.8933 0.8935 0.8937
3683.000000 0.8939 0.8941 0.8943 0.8945 0.8947
3688.000000 0.8949 0.8951 0.8953 0.8955 0.8957
3693.000000 0.8958 0.8960 0.8962 0.8964 0.8965
3698.000000 0.8967 0.8969 0.8971 0.8973 0.8975
3703.000000 0.8976 0.8978 0.8980 0.8982 0.8983
3708.000000 0.8985 0.8987 0.8989 0.8990 0.8992
3713.000000 0.8994 0.8996 0.8998 0.9000 0.9001
3718.000000 0.9003 0.9005 0.9007 0.9008 0.9010
3723.000000 0.9011 0.9013 0.9014 0.9015 0.9016
3728.000000 0.9018 0.9019 0.9020 0.9021 0.9023
3733.000000 0.9024 0.9025 0.9026 0.9028 0.9029
3738.000000 0.9030 0.9031 0.9033 0.9034 0.9035
3743.000000 0.9036 0.9038 0.9039 0.9040 0.9041
3748.000000 0.9042 0.9042 0.9042 0.9042 0.9042
3753.000000 0.9042 0.9042 0.9042 0.9042 0.9042
3758.000000 0.9042 0.9042 0.9042 0.9042 0.9042
3763.000000 0.9042 0.9042 0.9042 0.9042 0.9042
3768.000000 0.9042 0.9042 0.9042 0.9041 0.9041
3773.000000 0.9041 0.9041 0.9041 0.9041 0.9041
3778.000000 0.9041 0.9041 0.9041 0.9041 0.9041
3783.000000 0.9041 0.9035 0.9041 0.9041 0.9041
3788.000000 0.9041 0.9041 0.9041 0.9041 0.9041
3793.000000 0.9040 0.9040 0.9040 0.9040 0.9040
3798.000000 0.9040 0.9040 0.9040 0.9040 0.9040
3803.000000 0.9040 0.9040 0.9042 0.9044 0.9046
3808.000000 0.9048 0.9050 0.9052 0.9054 0.9056
3813.000000 0.9058 0.9060 0.9062 0.9064 0.9066
3818.000000 0.9068 0.9070 0.9072 0.9074 0.9077
3823.000000 0.9079 0.9081 0.9083 0.9086 0.9088
3828.000000 0.9091 0.9093 0.9095 0.9097 0.9100
3833.000000 0.9102 0.9105 0.9107 0.9109 0.9111
3838.000000 0.9114 0.9116 0.9118 0.9118 0.9118
3843.000000 0.9118 0.9119 0.9119 0.9120 0.9120
3848.000000 0.9120 0.9120 0.9121 0.9121 0.9121
3853.000000 0.9121 0.9122 0.9122 0.9122 0.9121
3858.000000 0.9120 0.9118 0.9116 0.9114 0.9112
3863.000000 0.9110 0.9108 0.9105 0.9103 0.9101
3868.000000 0.9099 0.9097 0.9095 0.9093 0.9091
3873.000000 0.9088 0.9086 0.9083 0.9081 0.9078
3878.000000 0.9075 0.9072 0.9069 0.9066 0.9063
3883.000000 0.9060 0.9057 0.9054 0.9051 0.9048
3888.000000 0.9046 0.9043 0.9040 0.9036 0.9033
3893.000000 0.9029 0.9025 0.9021 0.9017 0.9013
3898.000000 0.9009 0.9005 0.9001 0.8997 0.8993
3903.000000 0.8989 0.8985 0.8981 0.8977 0.8972
3908.000000 0.8968 0.8963 0.8959 0.8954 0.8949
3913.000000 0.8944 0.8939 0.8934 0.8930 0.8925
3918.000000 0.8920 0.8915 0.8910 0.8905 0.8900
3923.000000 0.8895 0.8891 0.8886 0.8881 0.8876
3928.000000 0.8871 0.8866 0.8861 0.8856 0.8852
3933.000000 0.8847 0.8842 0.8837 0.8832 0.8827
3938.000000 0.8822 0.8817 0.8813 0.8809 0.8805
3943.000000 0.8801 0.8797 0.8793 0.8790 0.8786
3948.000000 0.8782 0.8778 0.8775 0.8771 0.8767
3953.000000 0.8763 0.8760 0.8756 0.8752 0.8749
3958.000000 0.8747 0.8744 0.8741 0.8738 0.8736
3963.000000 0.8733 0.8731 0.8728 0.8725 0.8722
3968.000000 0.8720 0.8717 0.8715 0.8712 0.8710
3973.000000 0.8707 0.8705 0.8705 0.8706 0.8706
3978.000000 0.8707 0.8707 0.8708 0.8708 0.8708
3983.000000 0.8709 0.8710 0.8713 0.8717 0.8721
3988.000000 0.8725 0.8728 0.8732 0.8735 0.8739
3993.000000 0.8742 0.8746 0.8749 0.8753 0.8756
3998.000000 0.8760 0.8762 0.8765
##END=
