##TITLE=CROTONIC ACID
##JCAMP-DX=4.24
##DATA TYPE=INFRARED SPECTRUM
##CLASS=COBLENTZ III
##ORIGIN=DOW CORNING CORP.
##OWNER=Copyright (C) 1987 by the Coblentz Society
Collection (C) 2018 copyright by the U.S. Secretary of Commerce
on behalf of the United States of America. All rights reserved.
##DATE=1967/02/28
##NAMES=(2E)-2-butenoic acid
2-Butenoic acid
##CAS REGISTRY NO=3724-65-0
##MOLFORM=C4 H6 O2
##MP=71 C
##BP=183 C
##SOURCE REFERENCE=COBLENTZ NO. 5566
##$NIST SOURCE=COBLENTZ
##$NIST IMAGE=cob5566
##SPECTROMETER/DATA SYSTEM=PERKIN-ELMER 521 (GRATING)
##INSTRUMENT PARAMETERS=FILTERS AT 3150, 2500, 2000, 1150, 700, 410. GRATING CHANGES: 2000, 630
##STATE=SOLID (KBr DISC)
##RESOLUTION=2
##XUNITS=1/CM
##YUNITS=TRANSMITTANCE
##XFACTOR=1.0
##YFACTOR=1
##FIRSTX=243
##LASTX=3816
##FIRSTY=0.6143
##MAXX=3816
##MINX=243
##MAXY=1.0016
##MINY=0.1455
##NPOINTS=3574
##XYDATA=(X++(Y..Y))
243.000000 0.6143 0.6133 0.6124 0.6118 0.6114
248.000000 0.6133 0.6108 0.6114 0.6124 0.6140
253.000000 0.6157 0.6175 0.6205 0.6235 0.6273
258.000000 0.6323 0.6383 0.6525 0.6604 0.6683
263.000000 0.6762 0.6841 0.6921 0.7000 0.7079
268.000000 0.7158 0.7237 0.7316 0.7395 0.7474
273.000000 0.7566 0.7712 0.7822 0.7969 0.8118
278.000000 0.8215 0.8315 0.8422 0.8530 0.8621
283.000000 0.8696 0.8771 0.8837 0.8899 0.8962
288.000000 0.9013 0.9050 0.9087 0.9124 0.9160
293.000000 0.9194 0.9229 0.9263 0.9297 0.9324
298.000000 0.9346 0.9368 0.9391 0.9413 0.9436
303.000000 0.9458 0.9481 0.9501 0.9521 0.9541
308.000000 0.9561 0.9581 0.9601 0.9621 0.9642
313.000000 0.9660 0.9677 0.9695 0.9712 0.9729
318.000000 0.9746 0.9764 0.9780 0.9796 0.9811
323.000000 0.9827 0.9843 0.9858 0.9874 0.9889
328.000000 0.9903 0.9915 0.9927 0.9939 0.9951
333.000000 0.9963 0.9970 0.9975 0.9980 0.9986
338.000000 0.9991 0.9996 0.9998 1.0000 1.0002
343.000000 1.0016 1.0006 1.0007 1.0008 1.0009
348.000000 1.0010 1.0009 1.0008 1.0007 1.0006
353.000000 1.0005 1.0003 0.9999 0.9996 0.9992
358.000000 0.9988 0.9984 0.9978 0.9969 0.9961
363.000000 0.9948 0.9931 0.9914 0.9896 0.9877
368.000000 0.9851 0.9825 0.9799 0.9776 0.9755
373.000000 0.9734 0.9713 0.9692 0.9671 0.9643
378.000000 0.9614 0.9585 0.9550 0.9502 0.9454
383.000000 0.9377 0.9286 0.9194 0.9100 0.8996
388.000000 0.8857 0.8713 0.8547 0.8380 0.8214
393.000000 0.8048 0.7881 0.7715 0.7548 0.7483
398.000000 0.7538 0.7682 0.7826 0.7970 0.8115
403.000000 0.8259 0.8403 0.8532 0.8639 0.8760
408.000000 0.8859 0.8950 0.9040 0.9109 0.9179
413.000000 0.9243 0.9286 0.9330 0.9373 0.9416
418.000000 0.9447 0.9476 0.9506 0.9536 0.9566
423.000000 0.9580 0.9592 0.9605 0.9617 0.9637
428.000000 0.9641 0.9649 0.9648 0.9647 0.9643
433.000000 0.9634 0.9624 0.9614 0.9603 0.9592
438.000000 0.9581 0.9570 0.9559 0.9549 0.9539
443.000000 0.9529 0.9519 0.9509 0.9498 0.9488
448.000000 0.9478 0.9469 0.9463 0.9457 0.9451
453.000000 0.9446 0.9440 0.9434 0.9428 0.9422
458.000000 0.9417 0.9411 0.9405 0.9399 0.9394
463.000000 0.9390 0.9387 0.9384 0.9380 0.9377
468.000000 0.9374 0.9370 0.9367 0.9364 0.9362
473.000000 0.9363 0.9363 0.9363 0.9350 0.9330
478.000000 0.9302 0.9259 0.9217 0.9174 0.9131
483.000000 0.9110 0.9089 0.9082 0.9080 0.9052
488.000000 0.9017 0.8969 0.8916 0.8862 0.8808
493.000000 0.8749 0.8678 0.8606 0.8535 0.8468
498.000000 0.8402 0.8336 0.8244 0.8135 0.8009
503.000000 0.7894 0.7836 0.7778 0.7720 0.7516
508.000000 0.7227 0.6938 0.6650 0.6361 0.6072
513.000000 0.5784 0.5495 0.5206 0.4967 0.4968
518.000000 0.4952 0.5297 0.5741 0.6185 0.6629
523.000000 0.7074 0.7518 0.7760 0.7783 0.7644
528.000000 0.7397 0.7150 0.6903 0.6655 0.6408
533.000000 0.6161 0.5914 0.5667 0.5420 0.5334
538.000000 0.5312 0.5581 0.6016 0.6452 0.6887
543.000000 0.7322 0.7757 0.8193 0.8465 0.8635
548.000000 0.8824 0.8969 0.9080 0.9161 0.9241
553.000000 0.9316 0.9374 0.9433 0.9492 0.9532
558.000000 0.9564 0.9595 0.9626 0.9647 0.9664
563.000000 0.9680 0.9696 0.9712 0.9726 0.9731
568.000000 0.9737 0.9743 0.9748 0.9754 0.9759
573.000000 0.9762 0.9764 0.9766 0.9769 0.9771
578.000000 0.9773 0.9775 0.9777 0.9779 0.9781
583.000000 0.9778 0.9775 0.9773 0.9770 0.9767
588.000000 0.9765 0.9762 0.9759 0.9757 0.9753
593.000000 0.9751 0.9747 0.9742 0.9737 0.9732
598.000000 0.9727 0.9722 0.9716 0.9711 0.9706
603.000000 0.9701 0.9695 0.9690 0.9684 0.9679
608.000000 0.9673 0.9668 0.9678 0.9690 0.9702
613.000000 0.9718 0.9741 0.9753 0.9756 0.9759
618.000000 0.9758 0.9755 0.9753 0.9751 0.9743
623.000000 0.9732 0.9720 0.9708 0.9696 0.9684
628.000000 0.9671 0.9658 0.9645 0.9632 0.9619
633.000000 0.9601 0.9582 0.9563 0.9543 0.9524
638.000000 0.9505 0.9481 0.9458 0.9434 0.9411
643.000000 0.9389 0.9367 0.9345 0.9324 0.9302
648.000000 0.9280 0.9258 0.9235 0.9206 0.9177
653.000000 0.9149 0.9120 0.9094 0.9072 0.9049
658.000000 0.9026 0.9004 0.8981 0.8959 0.8936
663.000000 0.8914 0.8890 0.8854 0.8819 0.8784
668.000000 0.8748 0.8705 0.8653 0.8601 0.8549
673.000000 0.8497 0.8436 0.8371 0.8306 0.8233
678.000000 0.8145 0.8058 0.7966 0.7855 0.7745
683.000000 0.7261 0.7130 0.6743 0.5854 0.5584
688.000000 0.5591 0.5609 0.5629 0.5605 0.5548
693.000000 0.5442 0.5161 0.4879 0.4598 0.4317
698.000000 0.4035 0.3754 0.3472 0.3363 0.3364
703.000000 0.4221 0.5435 0.6648 0.7861 0.8812
708.000000 0.8892 0.8987 0.9119 0.9266 0.9336
713.000000 0.9402 0.9434 0.9446 0.9458 0.9471
718.000000 0.9483 0.9472 0.9489 0.9491 0.9484
723.000000 0.9476 0.9468 0.9460 0.9452 0.9441
728.000000 0.9430 0.9418 0.9407 0.9396 0.9385
733.000000 0.9376 0.9367 0.9359 0.9346 0.9331
738.000000 0.9316 0.9301 0.9285 0.9270 0.9255
743.000000 0.9239 0.9223 0.9206 0.9189 0.9172
748.000000 0.9155 0.9143 0.9134 0.9126 0.9117
753.000000 0.9109 0.9100 0.9090 0.9081 0.9071
758.000000 0.9061 0.9050 0.9036 0.9023 0.9010
763.000000 0.8997 0.8983 0.8962 0.8942 0.8922
768.000000 0.8902 0.8881 0.8859 0.8836 0.8814
773.000000 0.8791 0.8769 0.8746 0.8724 0.8701
778.000000 0.8679 0.8656 0.8634 0.8612 0.8591
783.000000 0.8570 0.8549 0.8528 0.8507 0.8487
788.000000 0.8466 0.8442 0.8416 0.8391 0.8365
793.000000 0.8340 0.8314 0.8289 0.8269 0.8248
798.000000 0.8228 0.8207 0.8187 0.8167 0.8146
803.000000 0.8126 0.8105 0.8095 0.8085 0.8076
808.000000 0.8066 0.8056 0.8047 0.8037 0.8028
813.000000 0.8018 0.8008 0.7999 0.7989 0.7980
818.000000 0.7970 0.7964 0.7957 0.7951 0.7944
823.000000 0.7938 0.7932 0.7926 0.7921 0.7916
828.000000 0.7911 0.7870 0.7805 0.7732 0.7663
833.000000 0.7594 0.7515 0.7430 0.7254 0.6991
838.000000 0.6598 0.6205 0.5812 0.5420 0.5027
843.000000 0.4634 0.4559 0.4554 0.5370 0.5848
848.000000 0.6326 0.6804 0.7240 0.7273 0.7297
853.000000 0.7325 0.7316 0.7313 0.7305 0.7292
858.000000 0.7279 0.7257 0.7229 0.7198 0.7165
863.000000 0.7128 0.7087 0.7044 0.6997 0.6949
868.000000 0.6902 0.6855 0.6807 0.6760 0.6712
873.000000 0.6658 0.6604 0.6550 0.6480 0.6406
878.000000 0.6332 0.6156 0.6002 0.5908 0.5807
883.000000 0.5690 0.5572 0.5455 0.5338 0.5220
888.000000 0.5103 0.4985 0.4868 0.4755 0.4701
893.000000 0.4646 0.4591 0.4369 0.4307 0.4296
898.000000 0.4244 0.4099 0.4028 0.3976 0.3924
903.000000 0.3876 0.3829 0.3782 0.3743 0.3714
908.000000 0.3701 0.3688 0.3675 0.3663 0.3654
913.000000 0.3646 0.3638 0.3639 0.3640 0.3641
918.000000 0.3631 0.3651 0.3658 0.3668 0.3684
923.000000 0.3700 0.3717 0.3762 0.3822 0.3908
928.000000 0.3991 0.4069 0.4146 0.4224 0.4301
933.000000 0.4377 0.4452 0.4527 0.4602 0.4677
938.000000 0.4760 0.4854 0.4947 0.5042 0.5154
943.000000 0.5267 0.5372 0.5417 0.5463 0.5517
948.000000 0.5532 0.5532 0.5522 0.5516 0.5495
953.000000 0.5469 0.5433 0.5364 0.5295 0.5232
958.000000 0.5079 0.4730 0.4381 0.4032 0.3684
963.000000 0.3335 0.2986 0.2637 0.2298 0.2288
968.000000 0.2295 0.2265 0.2817 0.3078 0.3339
973.000000 0.3600 0.3861 0.4122 0.4383 0.4644
978.000000 0.4905 0.5166 0.5427 0.5614 0.5641
983.000000 0.5660 0.5703 0.5557 0.5406 0.5255
988.000000 0.5204 0.5204 0.5212 0.5662 0.5891
993.000000 0.6148 0.6282 0.6391 0.6486 0.6570
998.000000 0.6650 0.6727 0.6795 0.6849 0.6902
1003.000000 0.6956 0.6994 0.7027 0.7060 0.7093
1008.000000 0.7126 0.7152 0.7173 0.7195 0.7217
1013.000000 0.7231 0.7242 0.7252 0.7263 0.7273
1018.000000 0.7280 0.7283 0.7286 0.7289 0.7289
1023.000000 0.7276 0.7279 0.7274 0.7269 0.7263
1028.000000 0.7258 0.7252 0.7243 0.7235 0.7226
1033.000000 0.7217 0.7205 0.7185 0.7164 0.7143
1038.000000 0.7100 0.7052 0.7004 0.6955 0.6902
1043.000000 0.6843 0.6783 0.6733 0.6728 0.6744
1048.000000 0.6750 0.6796 0.6862 0.6927 0.6992
1053.000000 0.7070 0.7098 0.7118 0.7121 0.7118
1058.000000 0.7112 0.7104 0.7090 0.7073 0.7057
1063.000000 0.7037 0.7014 0.6992 0.6973 0.6954
1068.000000 0.6935 0.6916 0.6894 0.6872 0.6850
1073.000000 0.6827 0.6805 0.6782 0.6756 0.6731
1078.000000 0.6706 0.6680 0.6655 0.6629 0.6602
1083.000000 0.6574 0.6547 0.6519 0.6491 0.6452
1088.000000 0.6412 0.6372 0.6332 0.6284 0.6223
1093.000000 0.6163 0.6104 0.6044 0.5985 0.5877
1098.000000 0.5765 0.5323 0.4869 0.4518 0.4512
1103.000000 0.4539 0.4812 0.5116 0.5420 0.5723
1108.000000 0.6027 0.6331 0.6568 0.6678 0.6784
1113.000000 0.6873 0.6951 0.7029 0.7074 0.7112
1118.000000 0.7150 0.7164 0.7176 0.7176 0.7176
1123.000000 0.7176 0.7188 0.7174 0.7171 0.7169
1128.000000 0.7167 0.7165 0.7163 0.7155 0.7147
1133.000000 0.7139 0.7130 0.7119 0.7108 0.7095
1138.000000 0.7074 0.7054 0.7032 0.7009 0.6987
1143.000000 0.6964 0.6941 0.6919 0.6895 0.6866
1148.000000 0.6837 0.6808 0.6779 0.6750 0.6718
1153.000000 0.6680 0.6643 0.6606 0.6569 0.6531
1158.000000 0.6494 0.6457 0.6420 0.6383 0.6345
1163.000000 0.6308 0.6271 0.6234 0.6196 0.6159
1168.000000 0.6122 0.6085 0.6060 0.6029 0.5989
1173.000000 0.5950 0.5911 0.5876 0.5841 0.5806
1178.000000 0.5771 0.5717 0.5660 0.5603 0.5558
1183.000000 0.5521 0.5485 0.5449 0.5412 0.5376
1188.000000 0.5339 0.5298 0.5245 0.5193 0.5140
1193.000000 0.5087 0.5027 0.4964 0.4902 0.4839
1198.000000 0.4770 0.4702 0.4633 0.4565 0.4486
1203.000000 0.4383 0.4281 0.4179 0.4076 0.3974
1208.000000 0.3872 0.3739 0.3603 0.3453 0.3290
1213.000000 0.3126 0.2908 0.2737 0.2621 0.2505
1218.000000 0.2413 0.2326 0.2222 0.2209 0.2200
1223.000000 0.2203 0.2207 0.2262 0.2383 0.2619
1228.000000 0.2855 0.3091 0.3327 0.3562 0.3798
1233.000000 0.4034 0.4270 0.4506 0.4741 0.4977
1238.000000 0.5246 0.5436 0.5591 0.5716 0.5823
1243.000000 0.5982 0.6150 0.6216 0.6283 0.6319
1248.000000 0.6335 0.6339 0.6337 0.6368 0.6293
1253.000000 0.6260 0.6215 0.6164 0.6107 0.6027
1258.000000 0.5948 0.5869 0.5789 0.5710 0.5631
1263.000000 0.5551 0.5472 0.5393 0.5313 0.5234
1268.000000 0.5155 0.5076 0.4964 0.4852 0.4772
1273.000000 0.4708 0.4645 0.4569 0.4482 0.4386
1278.000000 0.4276 0.4180 0.4091 0.3974 0.3828
1283.000000 0.3696 0.3583 0.3469 0.3361 0.3240
1288.000000 0.3069 0.2944 0.2843 0.2771 0.2710
1293.000000 0.2671 0.2633 0.2628 0.2625 0.2635
1298.000000 0.2617 0.2679 0.2707 0.2736 0.2748
1303.000000 0.2758 0.2734 0.2770 0.2642 0.2437
1308.000000 0.2379 0.2329 0.2279 0.2227 0.2159
1313.000000 0.2106 0.2095 0.2092 0.2079 0.2103
1318.000000 0.2116 0.2128 0.2250 0.2439 0.2627
1323.000000 0.2816 0.3005 0.3193 0.3382 0.3570
1328.000000 0.3759 0.3947 0.4136 0.4315 0.4407
1333.000000 0.4516 0.4653 0.4789 0.4924 0.5045
1338.000000 0.5166 0.5290 0.5420 0.5549 0.5752
1343.000000 0.5958 0.6128 0.6280 0.6414 0.6478
1348.000000 0.6543 0.6589 0.6601 0.6614 0.6617
1353.000000 0.6618 0.6631 0.6613 0.6609 0.6595
1358.000000 0.6577 0.6551 0.6508 0.6442 0.6364
1363.000000 0.6269 0.6190 0.6110 0.5986 0.5835
1368.000000 0.5472 0.5081 0.4690 0.4298 0.4146
1373.000000 0.4127 0.4120 0.4295 0.4583 0.4871
1378.000000 0.5158 0.5446 0.5734 0.6021 0.6202
1383.000000 0.6277 0.6329 0.6383 0.6430 0.6452
1388.000000 0.6466 0.6434 0.6411 0.6353 0.6273
1393.000000 0.6203 0.6128 0.6019 0.5910 0.5801
1398.000000 0.5692 0.5584 0.5475 0.5366 0.5257
1403.000000 0.5148 0.5039 0.4930 0.4821 0.4712
1408.000000 0.4604 0.4495 0.4386 0.4277 0.4168
1413.000000 0.4059 0.3950 0.3841 0.3730 0.3667
1418.000000 0.3612 0.3593 0.3585 0.3591 0.3595
1423.000000 0.3625 0.3658 0.3695 0.3719 0.3734
1428.000000 0.3716 0.3708 0.3692 0.3666 0.3640
1433.000000 0.3627 0.3616 0.3605 0.3593 0.3588
1438.000000 0.3582 0.3379 0.3363 0.3362 0.3365
1443.000000 0.3387 0.3402 0.3459 0.3505 0.3637
1448.000000 0.3826 0.4015 0.4204 0.4393 0.4583
1453.000000 0.4772 0.4961 0.5150 0.5339 0.5746
1458.000000 0.5878 0.6010 0.6142 0.6277 0.6411
1463.000000 0.6474 0.6536 0.6599 0.6666 0.6736
1468.000000 0.6807 0.6884 0.6961 0.7006 0.7048
1473.000000 0.7090 0.7124 0.7149 0.7174 0.7200
1478.000000 0.7228 0.7257 0.7290 0.7325 0.7326
1483.000000 0.7327 0.7328 0.7326 0.7325 0.7320
1488.000000 0.7316 0.7312 0.7299 0.7288 0.7278
1493.000000 0.7267 0.7257 0.7245 0.7233 0.7220
1498.000000 0.7208 0.7195 0.7183 0.7171 0.7160
1503.000000 0.7149 0.7138 0.7126 0.7115 0.7104
1508.000000 0.7093 0.7080 0.7068 0.7056 0.7043
1513.000000 0.7031 0.7013 0.6989 0.6966 0.6937
1518.000000 0.6896 0.6867 0.6847 0.6826 0.6800
1523.000000 0.6773 0.6746 0.6719 0.6687 0.6644
1528.000000 0.6597 0.6546 0.6515 0.6488 0.6470
1533.000000 0.6461 0.6452 0.6445 0.6438 0.6436
1538.000000 0.6442 0.6453 0.6466 0.6479 0.6490
1543.000000 0.6500 0.6511 0.6520 0.6528 0.6536
1548.000000 0.6544 0.6546 0.6545 0.6544 0.6542
1553.000000 0.6540 0.6538 0.6535 0.6532 0.6526
1558.000000 0.6519 0.6513 0.6568 0.6493 0.6482
1563.000000 0.6471 0.6461 0.6450 0.6440 0.6427
1568.000000 0.6413 0.6399 0.6385 0.6371 0.6357
1573.000000 0.6344 0.6330 0.6316 0.6303 0.6289
1578.000000 0.6263 0.6226 0.6194 0.6165 0.6136
1583.000000 0.6107 0.6077 0.6046 0.6015 0.5985
1588.000000 0.5954 0.5923 0.5889 0.5856 0.5822
1593.000000 0.5789 0.5755 0.5723 0.5691 0.5659
1598.000000 0.5627 0.5595 0.5564 0.5532 0.5500
1603.000000 0.5462 0.5423 0.5384 0.5345 0.5306
1608.000000 0.5267 0.5203 0.5134 0.5064 0.4995
1613.000000 0.4932 0.4870 0.4807 0.4745 0.4674
1618.000000 0.4583 0.4491 0.4404 0.4323 0.4241
1623.000000 0.4160 0.4047 0.3920 0.3795 0.3712
1628.000000 0.3630 0.3548 0.3466 0.3337 0.3152
1633.000000 0.3034 0.2976 0.2924 0.2887 0.2862
1638.000000 0.2837 0.2806 0.2750 0.2679 0.2608
1643.000000 0.2549 0.2495 0.2441 0.2372 0.2297
1648.000000 0.2205 0.2067 0.1894 0.1820 0.1804
1653.000000 0.1813 0.1818 0.1921 0.2119 0.2317
1658.000000 0.2515 0.2713 0.2911 0.3109 0.3194
1663.000000 0.3200 0.3197 0.3190 0.3169 0.3096
1668.000000 0.3014 0.2933 0.2851 0.2770 0.2689
1673.000000 0.2632 0.2576 0.2503 0.2439 0.2382
1678.000000 0.2313 0.2235 0.2156 0.2079 0.2002
1683.000000 0.1938 0.1886 0.1855 0.1831 0.1818
1688.000000 0.1809 0.1808 0.1806 0.1806 0.1807
1693.000000 0.1804 0.1797 0.1789 0.1781 0.1751
1698.000000 0.1655 0.1563 0.1501 0.1496 0.1455
1703.000000 0.1497 0.1510 0.1530 0.1560 0.1590
1708.000000 0.1631 0.1727 0.1830 0.1898 0.1966
1713.000000 0.2043 0.2105 0.2168 0.2279 0.2398
1718.000000 0.2517 0.2660 0.2789 0.2908 0.3111
1723.000000 0.3307 0.3433 0.3558 0.3646 0.3724
1728.000000 0.3801 0.3879 0.3957 0.4027 0.4097
1733.000000 0.4168 0.4229 0.4281 0.4333 0.4384
1738.000000 0.4436 0.4488 0.4565 0.4617 0.4669
1743.000000 0.4742 0.4800 0.4863 0.4930 0.4998
1748.000000 0.5054 0.5102 0.5150 0.5195 0.5226
1753.000000 0.5257 0.5289 0.5318 0.5340 0.5362
1758.000000 0.5384 0.5406 0.5420 0.5433 0.5446
1763.000000 0.5455 0.5462 0.5468 0.5475 0.5482
1768.000000 0.5487 0.5489 0.5491 0.5493 0.5496
1773.000000 0.5498 0.5498 0.5498 0.5497 0.5497
1778.000000 0.5496 0.5495 0.5491 0.5487 0.5483
1783.000000 0.5479 0.5475 0.5474 0.5473 0.5472
1788.000000 0.5446 0.5479 0.5484 0.5488 0.5495
1793.000000 0.5504 0.5513 0.5523 0.5537 0.5551
1798.000000 0.5565 0.5578 0.5590 0.5602 0.5614
1803.000000 0.5625 0.5637 0.5649 0.5663 0.5678
1808.000000 0.5693 0.5707 0.5722 0.5737 0.5756
1813.000000 0.5776 0.5795 0.5815 0.5834 0.5850
1818.000000 0.5866 0.5882 0.5898 0.5913 0.5929
1823.000000 0.5943 0.5954 0.5965 0.5976 0.5987
1828.000000 0.5998 0.6008 0.6017 0.6025 0.6034
1833.000000 0.6042 0.6051 0.6059 0.6067 0.6076
1838.000000 0.6083 0.6089 0.6096 0.6103 0.6110
1843.000000 0.6117 0.6124 0.6130 0.6137 0.6144
1848.000000 0.6151 0.6157 0.6164 0.6170 0.6175
1853.000000 0.6181 0.6187 0.6192 0.6196 0.6200
1858.000000 0.6231 0.6208 0.6212 0.6215 0.6219
1863.000000 0.6219 0.6216 0.6212 0.6209 0.6205
1868.000000 0.6201 0.6194 0.6188 0.6182 0.6176
1873.000000 0.6170 0.6165 0.6161 0.6158 0.6154
1878.000000 0.6149 0.6144 0.6138 0.6133 0.6128
1883.000000 0.6123 0.6119 0.6115 0.6111 0.6108
1888.000000 0.6062 0.6103 0.6105 0.6106 0.6108
1893.000000 0.6110 0.6111 0.6113 0.6116 0.6118
1898.000000 0.6121 0.6123 0.6126 0.6128 0.6132
1903.000000 0.6136 0.6140 0.6144 0.6150 0.6158
1908.000000 0.6165 0.6173 0.6180 0.6194 0.6208
1913.000000 0.6223 0.6237 0.6256 0.6276 0.6296
1918.000000 0.6315 0.6337 0.6359 0.6381 0.6382
1923.000000 0.6381 0.6381 0.6380 0.6380 0.6379
1928.000000 0.6378 0.6378 0.6377 0.6379 0.6382
1933.000000 0.6384 0.6387 0.6389 0.6392 0.6394
1938.000000 0.6397 0.6400 0.6402 0.6405 0.6407
1943.000000 0.6410 0.6412 0.6414 0.6416 0.6419
1948.000000 0.6421 0.6423 0.6424 0.6424 0.6425
1953.000000 0.6426 0.6427 0.6427 0.6428 0.6429
1958.000000 0.6431 0.6433 0.6435 0.6437 0.6439
1963.000000 0.6441 0.6443 0.6445 0.6446 0.6446
1968.000000 0.6447 0.6447 0.6447 0.6447 0.6448
1973.000000 0.6449 0.6459 0.6468 0.6477 0.6486
1978.000000 0.6494 0.6500 0.6507 0.6513 0.6520
1983.000000 0.6526 0.6533 0.6539 0.6546 0.6552
1988.000000 0.6558 0.6565 0.6567 0.6569 0.6571
1993.000000 0.6573 0.6576 0.6579 0.6581 0.6578
1998.000000 0.6575 0.6571 0.6568 0.6547 0.6526
2003.000000 0.6525 0.6524 0.6523 0.6522 0.6521
2008.000000 0.6520 0.6519 0.6519 0.6518 0.6517
2013.000000 0.6517 0.6517 0.6517 0.6517 0.6517
2018.000000 0.6517 0.6519 0.6521 0.6527 0.6533
2023.000000 0.6540 0.6547 0.6561 0.6576 0.6584
2028.000000 0.6592 0.6595 0.6598 0.6600 0.6603
2033.000000 0.6605 0.6608 0.6609 0.6610 0.6608
2038.000000 0.6607 0.6605 0.6604 0.6602 0.6599
2043.000000 0.6598 0.6597 0.6595 0.6594 0.6592
2048.000000 0.6590 0.6588 0.6587 0.6585 0.6583
2053.000000 0.6581 0.6579 0.6577 0.6575 0.6573
2058.000000 0.6571 0.6569 0.6567 0.6564 0.6562
2063.000000 0.6558 0.6555 0.6551 0.6548 0.6544
2068.000000 0.6541 0.6537 0.6534 0.6530 0.6527
2073.000000 0.6523 0.6520 0.6516 0.6513 0.6509
2078.000000 0.6506 0.6502 0.6499 0.6495 0.6492
2083.000000 0.6488 0.6484 0.6480 0.6477 0.6473
2088.000000 0.6470 0.6466 0.6462 0.6458 0.6455
2093.000000 0.6451 0.6448 0.6444 0.6441 0.6438
2098.000000 0.6436 0.6433 0.6431 0.6428 0.6426
2103.000000 0.6423 0.6421 0.6418 0.6416 0.6413
2108.000000 0.6411 0.6408 0.6406 0.6403 0.6401
2113.000000 0.6397 0.6393 0.6386 0.6379 0.6372
2118.000000 0.6365 0.6357 0.6350 0.6340 0.6331
2123.000000 0.6321 0.6312 0.6302 0.6293 0.6283
2128.000000 0.6274 0.6264 0.6255 0.6240 0.6226
2133.000000 0.6211 0.6197 0.6185 0.6174 0.6166
2138.000000 0.6158 0.6150 0.6143 0.6141 0.6139
2143.000000 0.6141 0.6143 0.6146 0.6149 0.6156
2148.000000 0.6162 0.6168 0.6174 0.6180 0.6186
2153.000000 0.6193 0.6200 0.6208 0.6216 0.6223
2158.000000 0.6231 0.6240 0.6249 0.6260 0.6272
2163.000000 0.6283 0.6295 0.6308 0.6322 0.6335
2168.000000 0.6348 0.6349 0.6351 0.6353 0.6355
2173.000000 0.6354 0.6354 0.6353 0.6352 0.6351
2178.000000 0.6367 0.6348 0.6346 0.6340 0.6335
2183.000000 0.6329 0.6323 0.6314 0.6305 0.6296
2188.000000 0.6287 0.6278 0.6269 0.6260 0.6251
2193.000000 0.6242 0.6233 0.6222 0.6211 0.6200
2198.000000 0.6190 0.6179 0.6168 0.6157 0.6146
2203.000000 0.6135 0.6124 0.6112 0.6100 0.6088
2208.000000 0.6077 0.6070 0.6063 0.6055 0.6048
2213.000000 0.6045 0.6042 0.6040 0.6038 0.6036
2218.000000 0.6035 0.6033 0.6032 0.6030 0.6028
2223.000000 0.6025 0.6023 0.6019 0.6016 0.6013
2228.000000 0.6010 0.6006 0.6003 0.5999 0.5996
2233.000000 0.5992 0.5989 0.5985 0.5982 0.5978
2238.000000 0.5975 0.5971 0.5968 0.5965 0.5962
2243.000000 0.5959 0.5956 0.5953 0.5951 0.5948
2248.000000 0.5945 0.5942 0.5939 0.5936 0.5934
2253.000000 0.5931 0.5928 0.5924 0.5921 0.5917
2258.000000 0.5914 0.5902 0.5890 0.5866 0.5843
2263.000000 0.5825 0.5808 0.5801 0.5794 0.5788
2268.000000 0.5782 0.5776 0.5770 0.5764 0.5758
2273.000000 0.5752 0.5747 0.5741 0.5736 0.5730
2278.000000 0.5725 0.5720 0.5715 0.5709 0.5703
2283.000000 0.5695 0.5688 0.5680 0.5673 0.5665
2288.000000 0.5658 0.5641 0.5625 0.5608 0.5591
2293.000000 0.5574 0.5557 0.5542 0.5527 0.5521
2298.000000 0.5516 0.5511 0.5506 0.5500 0.5495
2303.000000 0.5491 0.5487 0.5482 0.5478 0.5473
2308.000000 0.5469 0.5464 0.5460 0.5455 0.5450
2313.000000 0.5445 0.5441 0.5436 0.5432 0.5427
2318.000000 0.5423 0.5418 0.5413 0.5407 0.5402
2323.000000 0.5397 0.5392 0.5387 0.5382 0.5377
2328.000000 0.5372 0.5367 0.5362 0.5357 0.5352
2333.000000 0.5347 0.5342 0.5337 0.5332 0.5329
2338.000000 0.5327 0.5325 0.5323 0.5320 0.5318
2343.000000 0.5316 0.5314 0.5311 0.5309 0.5306
2348.000000 0.5304 0.5302 0.5300 0.5297 0.5295
2353.000000 0.5291 0.5288 0.5285 0.5282 0.5278
2358.000000 0.5275 0.5267 0.5260 0.5252 0.5244
2363.000000 0.5236 0.5228 0.5220 0.5212 0.5206
2368.000000 0.5200 0.5194 0.5188 0.5182 0.5176
2373.000000 0.5170 0.5164 0.5158 0.5152 0.5146
2378.000000 0.5140 0.5134 0.5128 0.5120 0.5113
2383.000000 0.5105 0.5098 0.5090 0.5083 0.5075
2388.000000 0.5068 0.5060 0.5053 0.5045 0.5037
2393.000000 0.5029 0.5022 0.5014 0.5007 0.4999
2398.000000 0.4992 0.4983 0.4975 0.4966 0.4957
2403.000000 0.4948 0.4940 0.4931 0.4922 0.4912
2408.000000 0.4903 0.4894 0.4885 0.4875 0.4866
2413.000000 0.4847 0.4828 0.4812 0.4796 0.4789
2418.000000 0.4783 0.4776 0.4770 0.4763 0.4757
2423.000000 0.4751 0.4745 0.4739 0.4734 0.4728
2428.000000 0.4723 0.4718 0.4713 0.4707 0.4702
2433.000000 0.4697 0.4693 0.4689 0.4685 0.4681
2438.000000 0.4677 0.4673 0.4669 0.4664 0.4660
2443.000000 0.4656 0.4653 0.4650 0.4648 0.4645
2448.000000 0.4642 0.4639 0.4637 0.4633 0.4630
2453.000000 0.4619 0.4608 0.4596 0.4585 0.4574
2458.000000 0.4563 0.4542 0.4521 0.4496 0.4472
2463.000000 0.4447 0.4422 0.4398 0.4374 0.4354
2468.000000 0.4334 0.4313 0.4293 0.4273 0.4253
2473.000000 0.4237 0.4222 0.4206 0.4190 0.4177
2478.000000 0.4165 0.4155 0.4146 0.4137 0.4128
2483.000000 0.4118 0.4109 0.4098 0.4088 0.4077
2488.000000 0.4066 0.4054 0.4043 0.4031 0.4020
2493.000000 0.4008 0.3997 0.3984 0.3972 0.3959
2498.000000 0.3947 0.3934 0.3922 0.3909 0.3897
2503.000000 0.3884 0.3872 0.3860 0.3848 0.3837
2508.000000 0.3827 0.3819 0.3811 0.3803 0.3796
2513.000000 0.3788 0.3781 0.3773 0.3766 0.3758
2518.000000 0.3751 0.3748 0.3746 0.3744 0.3743
2523.000000 0.3741 0.3739 0.3737 0.3736 0.3734
2528.000000 0.3732 0.3730 0.3728 0.3724 0.3720
2533.000000 0.3716 0.3713 0.3709 0.3705 0.3700
2538.000000 0.3696 0.3691 0.3687 0.3682 0.3678
2543.000000 0.3674 0.3670 0.3665 0.3661 0.3656
2548.000000 0.3651 0.3645 0.3640 0.3634 0.3629
2553.000000 0.3623 0.3617 0.3613 0.3609 0.3606
2558.000000 0.3603 0.3600 0.3597 0.3594 0.3592
2563.000000 0.3589 0.3586 0.3584 0.3582 0.3580
2568.000000 0.3579 0.3578 0.3577 0.3575 0.3574
2573.000000 0.3571 0.3569 0.3563 0.3558 0.3553
2578.000000 0.3548 0.3542 0.3537 0.3531 0.3526
2583.000000 0.3519 0.3513 0.3504 0.3496 0.3487
2588.000000 0.3478 0.3469 0.3461 0.3450 0.3440
2593.000000 0.3429 0.3419 0.3410 0.3401 0.3393
2598.000000 0.3386 0.3378 0.3371 0.3363 0.3356
2603.000000 0.3355 0.3354 0.3354 0.3355 0.3355
2608.000000 0.3347 0.3356 0.3357 0.3360 0.3364
2613.000000 0.3368 0.3372 0.3379 0.3386 0.3393
2618.000000 0.3400 0.3407 0.3414 0.3421 0.3428
2623.000000 0.3437 0.3446 0.3457 0.3468 0.3479
2628.000000 0.3491 0.3501 0.3512 0.3520 0.3528
2633.000000 0.3536 0.3545 0.3553 0.3561 0.3563
2638.000000 0.3565 0.3567 0.3569 0.3571 0.3573
2643.000000 0.3575 0.3577 0.3576 0.3576 0.3575
2648.000000 0.3574 0.3573 0.3572 0.3570 0.3569
2653.000000 0.3565 0.3561 0.3557 0.3553 0.3548
2658.000000 0.3544 0.3538 0.3533 0.3528 0.3523
2663.000000 0.3521 0.3519 0.3517 0.3515 0.3513
2668.000000 0.3512 0.3510 0.3508 0.3507 0.3506
2673.000000 0.3506 0.3506 0.3506 0.3506 0.3506
2678.000000 0.3506 0.3506 0.3507 0.3507 0.3507
2683.000000 0.3507 0.3507 0.3507 0.3507 0.3507
2688.000000 0.3508 0.3508 0.3508 0.3506 0.3505
2693.000000 0.3502 0.3500 0.3497 0.3494 0.3491
2698.000000 0.3488 0.3485 0.3482 0.3479 0.3476
2703.000000 0.3474 0.3473 0.3472 0.3471 0.3469
2708.000000 0.3468 0.3466 0.3465 0.3463 0.3462
2713.000000 0.3461 0.3460 0.3459 0.3459 0.3459
2718.000000 0.3460 0.3460 0.3461 0.3461 0.3462
2723.000000 0.3462 0.3463 0.3466 0.3469 0.3475
2728.000000 0.3482 0.3488 0.3494 0.3501 0.3508
2733.000000 0.3515 0.3523 0.3534 0.3546 0.3573
2738.000000 0.3601 0.3625 0.3649 0.3656 0.3663
2743.000000 0.3670 0.3677 0.3684 0.3691 0.3712
2748.000000 0.3734 0.3739 0.3744 0.3748 0.3752
2753.000000 0.3755 0.3759 0.3763 0.3767 0.3769
2758.000000 0.3795 0.3773 0.3775 0.3777 0.3779
2763.000000 0.3780 0.3782 0.3782 0.3783 0.3780
2768.000000 0.3778 0.3775 0.3773 0.3770 0.3768
2773.000000 0.3763 0.3758 0.3753 0.3748 0.3742
2778.000000 0.3737 0.3725 0.3713 0.3697 0.3682
2783.000000 0.3668 0.3655 0.3641 0.3628 0.3614
2788.000000 0.3601 0.3588 0.3575 0.3562 0.3550
2793.000000 0.3537 0.3525 0.3512 0.3500 0.3487
2798.000000 0.3475 0.3462 0.3450 0.3437 0.3425
2803.000000 0.3412 0.3400 0.3385 0.3371 0.3354
2808.000000 0.3337 0.3320 0.3303 0.3287 0.3272
2813.000000 0.3261 0.3250 0.3239 0.3228 0.3216
2818.000000 0.3205 0.3196 0.3187 0.3183 0.3179
2823.000000 0.3175 0.3172 0.3168 0.3164 0.3160
2828.000000 0.3157 0.3153 0.3149 0.3146 0.3144
2833.000000 0.3141 0.3139 0.3137 0.3135 0.3132
2838.000000 0.3130 0.3127 0.3125 0.3124 0.3123
2843.000000 0.3122 0.3122 0.3121 0.3121 0.3120
2848.000000 0.3120 0.3119 0.3119 0.3118 0.3118
2853.000000 0.3118 0.3119 0.3119 0.3120 0.3121
2858.000000 0.3122 0.3123 0.3124 0.3124 0.3125
2863.000000 0.3125 0.3126 0.3125 0.3124 0.3123
2868.000000 0.3122 0.3120 0.3119 0.3118 0.3117
2873.000000 0.3112 0.3108 0.3100 0.3092 0.3084
2878.000000 0.3077 0.3069 0.3061 0.3052 0.3044
2883.000000 0.3035 0.3027 0.3012 0.2998 0.2981
2888.000000 0.2964 0.2950 0.2936 0.2922 0.2908
2893.000000 0.2900 0.2893 0.2886 0.2880 0.2873
2898.000000 0.2867 0.2861 0.2856 0.2851 0.2847
2903.000000 0.2842 0.2838 0.2833 0.2829 0.2825
2908.000000 0.2821 0.2817 0.2813 0.2809 0.2806
2913.000000 0.2802 0.2799 0.2795 0.2792 0.2788
2918.000000 0.2785 0.2782 0.2779 0.2778 0.2778
2923.000000 0.2777 0.2776 0.2783 0.2772 0.2798
2928.000000 0.2806 0.2817 0.2829 0.2842 0.2856
2933.000000 0.2870 0.2884 0.2897 0.2911 0.2924
2938.000000 0.2937 0.2948 0.2959 0.2964 0.2969
2943.000000 0.2974 0.2979 0.2982 0.3031 0.2984
2948.000000 0.2984 0.2983 0.2983 0.2977 0.2972
2953.000000 0.2965 0.2958 0.2951 0.2945 0.2938
2958.000000 0.2932 0.2925 0.2919 0.2913 0.2908
2963.000000 0.2903 0.2898 0.2892 0.2887 0.2880
2968.000000 0.2873 0.2866 0.2859 0.2851 0.2844
2973.000000 0.2840 0.2836 0.2832 0.2829 0.2826
2978.000000 0.2805 0.2819 0.2816 0.2817 0.2819
2983.000000 0.2824 0.2829 0.2833 0.2838 0.2844
2988.000000 0.2850 0.2855 0.2861 0.2866 0.2872
2993.000000 0.2878 0.2884 0.2891 0.2899 0.2906
2998.000000 0.2914 0.2921 0.2929 0.2937 0.2945
3003.000000 0.2953 0.2962 0.2971 0.2980 0.2988
3008.000000 0.2997 0.3006 0.3015 0.3023 0.3031
3013.000000 0.3038 0.3046 0.3052 0.3059 0.3061
3018.000000 0.3064 0.3066 0.3068 0.3070 0.3072
3023.000000 0.3074 0.3076 0.3078 0.3080 0.3082
3028.000000 0.3084 0.3085 0.3086 0.3087 0.3089
3033.000000 0.3090 0.3092 0.3093 0.3095 0.3096
3038.000000 0.3097 0.3098 0.3099 0.3100 0.3101
3043.000000 0.3101 0.3102 0.3102 0.3103 0.3103
3048.000000 0.3104 0.3104 0.3105 0.3105 0.3106
3053.000000 0.3106 0.3107 0.3107 0.3108 0.3106
3058.000000 0.3104 0.3102 0.3100 0.3098 0.3096
3063.000000 0.3094 0.3092 0.3090 0.3089 0.3087
3068.000000 0.3085 0.3083 0.3081 0.3079 0.3077
3073.000000 0.3078 0.3080 0.3081 0.3083 0.3084
3078.000000 0.3086 0.3088 0.3090 0.3091 0.3093
3083.000000 0.3102 0.3111 0.3120 0.3129 0.3138
3088.000000 0.3148 0.3156 0.3164 0.3170 0.3177
3093.000000 0.3183 0.3190 0.3196 0.3203 0.3209
3098.000000 0.3216 0.3222 0.3229 0.3235 0.3242
3103.000000 0.3249 0.3256 0.3263 0.3270 0.3277
3108.000000 0.3284 0.3291 0.3298 0.3304 0.3311
3113.000000 0.3318 0.3325 0.3331 0.3338 0.3344
3118.000000 0.3351 0.3362 0.3373 0.3388 0.3403
3123.000000 0.3422 0.3442 0.3468 0.3495 0.3519
3128.000000 0.3543 0.3567 0.3591 0.3615 0.3640
3133.000000 0.3664 0.3689 0.3708 0.3728 0.3745
3138.000000 0.3762 0.3779 0.3796 0.3807 0.3818
3143.000000 0.3826 0.3835 0.3843 0.3851 0.3858
3148.000000 0.3865 0.3872 0.3879 0.3886 0.3893
3153.000000 0.3900 0.3907 0.3914 0.3921 0.3928
3158.000000 0.3935 0.3942 0.3949 0.3956 0.3963
3163.000000 0.3970 0.3978 0.3985 0.3992 0.3999
3168.000000 0.4006 0.4013 0.4020 0.4027 0.4034
3173.000000 0.4041 0.4048 0.4055 0.4062 0.4069
3178.000000 0.4076 0.4083 0.4090 0.4097 0.4104
3183.000000 0.4111 0.4118 0.4125 0.4133 0.4140
3188.000000 0.4147 0.4154 0.4161 0.4168 0.4175
3193.000000 0.4182 0.4189 0.4196 0.4204 0.4212
3198.000000 0.4220 0.4227 0.4235 0.4243 0.4251
3203.000000 0.4259 0.4267 0.4276 0.4286 0.4296
3208.000000 0.4306 0.4315 0.4324 0.4330 0.4337
3213.000000 0.4343 0.4350 0.4356 0.4363 0.4370
3218.000000 0.4377 0.4384 0.4391 0.4398 0.4405
3223.000000 0.4412 0.4419 0.4426 0.4433 0.4440
3228.000000 0.4447 0.4454 0.4462 0.4469 0.4476
3233.000000 0.4483 0.4490 0.4497 0.4504 0.4511
3238.000000 0.4518 0.4525 0.4532 0.4539 0.4546
3243.000000 0.4553 0.4560 0.4567 0.4574 0.4580
3248.000000 0.4587 0.4594 0.4601 0.4608 0.4615
3253.000000 0.4621 0.4628 0.4635 0.4642 0.4649
3258.000000 0.4656 0.4662 0.4669 0.4676 0.4684
3263.000000 0.4691 0.4699 0.4706 0.4714 0.4722
3268.000000 0.4730 0.4737 0.4745 0.4752 0.4760
3273.000000 0.4767 0.4775 0.4783 0.4791 0.4798
3278.000000 0.4806 0.4813 0.4821 0.4829 0.4837
3283.000000 0.4845 0.4854 0.4862 0.4871 0.4879
3288.000000 0.4888 0.4896 0.4905 0.4913 0.4922
3293.000000 0.4930 0.4939 0.4947 0.4956 0.4964
3298.000000 0.4973 0.4982 0.4991 0.5000 0.5010
3303.000000 0.5019 0.5028 0.5037 0.5046 0.5055
3308.000000 0.5065 0.5074 0.5083 0.5092 0.5101
3313.000000 0.5110 0.5120 0.5129 0.5138 0.5145
3318.000000 0.5153 0.5159 0.5165 0.5171 0.5177
3323.000000 0.5183 0.5189 0.5195 0.5201 0.5207
3328.000000 0.5213 0.5219 0.5225 0.5231 0.5237
3333.000000 0.5243 0.5249 0.5255 0.5261 0.5267
3338.000000 0.5273 0.5279 0.5285 0.5290 0.5296
3343.000000 0.5302 0.5308 0.5314 0.5320 0.5326
3348.000000 0.5332 0.5337 0.5343 0.5348 0.5354
3353.000000 0.5360 0.5366 0.5371 0.5377 0.5383
3358.000000 0.5389 0.5394 0.5400 0.5405 0.5411
3363.000000 0.5417 0.5423 0.5428 0.5434 0.5440
3368.000000 0.5446 0.5450 0.5454 0.5457 0.5461
3373.000000 0.5465 0.5469 0.5472 0.5476 0.5480
3378.000000 0.5484 0.5487 0.5491 0.5493 0.5495
3383.000000 0.5497 0.5500 0.5502 0.5504 0.5506
3388.000000 0.5508 0.5510 0.5512 0.5514 0.5516
3393.000000 0.5518 0.5520 0.5522 0.5524 0.5525
3398.000000 0.5527 0.5529 0.5531 0.5533 0.5535
3403.000000 0.5537 0.5539 0.5541 0.5543 0.5545
3408.000000 0.5547 0.5548 0.5550 0.5552 0.5554
3413.000000 0.5556 0.5558 0.5559 0.5561 0.5563
3418.000000 0.5565 0.5566 0.5568 0.5570 0.5572
3423.000000 0.5573 0.5575 0.5577 0.5579 0.5580
3428.000000 0.5582 0.5583 0.5585 0.5587 0.5589
3433.000000 0.5590 0.5592 0.5594 0.5596 0.5597
3438.000000 0.5599 0.5601 0.5603 0.5605 0.5607
3443.000000 0.5609 0.5611 0.5613 0.5615 0.5617
3448.000000 0.5619 0.5621 0.5623 0.5625 0.5627
3453.000000 0.5629 0.5631 0.5633 0.5635 0.5637
3458.000000 0.5639 0.5641 0.5643 0.5646 0.5649
3463.000000 0.5652 0.5656 0.5659 0.5662 0.5665
3468.000000 0.5669 0.5672 0.5676 0.5679 0.5682
3473.000000 0.5685 0.5689 0.5692 0.5696 0.5699
3478.000000 0.5702 0.5705 0.5709 0.5712 0.5716
3483.000000 0.5719 0.5723 0.5726 0.5730 0.5733
3488.000000 0.5737 0.5740 0.5743 0.5746 0.5750
3493.000000 0.5755 0.5760 0.5766 0.5772 0.5783
3498.000000 0.5795 0.5816 0.5837 0.5856 0.5875
3503.000000 0.5887 0.5899 0.5902 0.5906 0.5909
3508.000000 0.5913 0.5916 0.5920 0.5924 0.5928
3513.000000 0.5931 0.5934 0.5937 0.5941 0.5944
3518.000000 0.5948 0.5951 0.5955 0.5958 0.5961
3523.000000 0.5965 0.5969 0.5973 0.5977 0.5980
3528.000000 0.5984 0.5988 0.5992 0.5996 0.6000
3533.000000 0.6004 0.6008 0.6013 0.6019 0.6024
3538.000000 0.6029 0.6034 0.6040 0.6045 0.6050
3543.000000 0.6055 0.6061 0.6066 0.6072 0.6077
3548.000000 0.6082 0.6087 0.6093 0.6098 0.6104
3553.000000 0.6110 0.6116 0.6121 0.6127 0.6133
3558.000000 0.6139 0.6144 0.6150 0.6156 0.6162
3563.000000 0.6167 0.6173 0.6178 0.6184 0.6190
3568.000000 0.6196 0.6201 0.6207 0.6213 0.6220
3573.000000 0.6226 0.6232 0.6238 0.6244 0.6250
3578.000000 0.6257 0.6263 0.6269 0.6275 0.6281
3583.000000 0.6287 0.6293 0.6299 0.6306 0.6312
3588.000000 0.6318 0.6324 0.6330 0.6336 0.6342
3593.000000 0.6348 0.6354 0.6360 0.6366 0.6372
3598.000000 0.6378 0.6383 0.6389 0.6395 0.6401
3603.000000 0.6407 0.6413 0.6419 0.6425 0.6431
3608.000000 0.6437 0.6443 0.6449 0.6454 0.6459
3613.000000 0.6464 0.6469 0.6474 0.6479 0.6484
3618.000000 0.6489 0.6494 0.6499 0.6504 0.6509
3623.000000 0.6514 0.6519 0.6524 0.6529 0.6534
3628.000000 0.6539 0.6544 0.6549 0.6553 0.6558
3633.000000 0.6562 0.6567 0.6571 0.6576 0.6580
3638.000000 0.6585 0.6589 0.6594 0.6598 0.6602
3643.000000 0.6605 0.6609 0.6612 0.6615 0.6618
3648.000000 0.6622 0.6625 0.6628 0.6628 0.6629
3653.000000 0.6630 0.6631 0.6631 0.6632 0.6632
3658.000000 0.6633 0.6633 0.6634 0.6634 0.6635
3663.000000 0.6635 0.6636 0.6636 0.6637 0.6637
3668.000000 0.6637 0.6634 0.6632 0.6629 0.6627
3673.000000 0.6624 0.6621 0.6617 0.6653 0.6609
3678.000000 0.6605 0.6611 0.6617 0.6623 0.6629
3683.000000 0.6635 0.6641 0.6647 0.6654 0.6658
3688.000000 0.6663 0.6666 0.6670 0.6673 0.6677
3693.000000 0.6676 0.6676 0.6674 0.6673 0.6672
3698.000000 0.6671 0.6669 0.6668 0.6666 0.6665
3703.000000 0.6663 0.6662 0.6659 0.6657 0.6655
3708.000000 0.6653 0.6650 0.6648 0.6646 0.6644
3713.000000 0.6641 0.6639 0.6637 0.6635 0.6632
3718.000000 0.6630 0.6627 0.6625 0.6622 0.6620
3723.000000 0.6617 0.6615 0.6612 0.6610 0.6607
3728.000000 0.6604 0.6601 0.6599 0.6596 0.6594
3733.000000 0.6591 0.6589 0.6587 0.6585 0.6583
3738.000000 0.6581 0.6578 0.6576 0.6574 0.6572
3743.000000 0.6570 0.6568 0.6566 0.6564 0.6561
3748.000000 0.6559 0.6557 0.6555 0.6553 0.6551
3753.000000 0.6549 0.6547 0.6545 0.6543 0.6541
3758.000000 0.6539 0.6547 0.6556 0.6561 0.6567
3763.000000 0.6570 0.6574 0.6577 0.6581 0.6584
3768.000000 0.6588 0.6589 0.6591 0.6592 0.6594
3773.000000 0.6595 0.6596 0.6597 0.6598 0.6599
3778.000000 0.6600 0.6601 0.6602 0.6602 0.6603
3783.000000 0.6603 0.6604 0.6604 0.6605 0.6605
3788.000000 0.6606 0.6606 0.6607 0.6606 0.6606
3793.000000 0.6605 0.6605 0.6604 0.6604 0.6603
3798.000000 0.6603 0.6602 0.6601 0.6598 0.6595
3803.000000 0.6590 0.6586 0.6581 0.6577 0.6573
3808.000000 0.6569 0.6564 0.6560 0.6555 0.6551
3813.000000 0.6547 0.6543 0.6542 0.6542
##END=
