##TITLE=Cyclobutanecarbonitrile
##JCAMP-DX=4.24
##DATA TYPE=INFRARED SPECTRUM
##ORIGIN=EPA-IR VAPOR PHASE LIBRARY
##OWNER=SRD/NIST
Collection (C) 2018 copyright by the U.S. Secretary of Commerce
on behalf of the United States of America. All rights reserved.
##CAS REGISTRY NO=4426-11-3
##MOLFORM=C 5 H 7 N
##$NIST SOURCE=MSDC-IR
##STATE=gas
##XUNITS=1/CM
##YUNITS=ABSORBANCE
##XFACTOR=1.
##YFACTOR=0.001
##DELTAX=1.92898
##FIRSTX=549.8
##LASTX=4000.7
##FIRSTY=1.0653
##MAXX=4000.7
##MINX=549.759
##MAXY=0.109587
##MINY=0
##NPOINTS=1790
##XYDATA=(X++(Y..Y))
549.759 1.0653 1.231 0.538 0.406 1.3137 1.4397 0.95669 0.268 0.42 1.1823
569.049 1.6957 1.434 0.9969 1.4513 1.2598 0.7756 1.293 1.897 1.8446 1.8464
588.339 1.7693 1.4764 0.9836 0.8462 1.3258 1.239 0.722 0.368 0.555 0.87515
607.628 0.543 0.571 1.088 1.1478 0.701 0.714 1.0659 1.1951 1.6233 1.7378
626.918 1.2412 1.0794 0.91056 1.0703 1.1399 1.0257 1.0577 0.9723 1.298 1.207
646.208 1.0907 0.90356 0.94582 1.5142 1.4112 1.4804 1.6146 1.7322 1.957 1.6892
665.498 1.7078 1.7883 1.3932 1.3218 1.967 2.207 1.967 2.077 2.267 2.747
684.787 2.777 2.377 2.357 2.587 2.847 3.137 3.087 2.787 2.847 2.877
704.077 2.827 3.077 3.267 3.017 3.097 3.087 2.787 2.677 3.327 4.107
723.367 3.817 3.027 2.747 2.977 3.217 3.017 2.607 2.247 2.267 2.427
742.657 2.577 2.897 2.597 2.087 1.997 2.207 2.317 2.397 2.317 1.917
761.947 1.867 1.8015 1.3148 1.2032 1.927 2.227 1.777 1.5522 1.5342 1.5241
781.236 1.3192 1.4385 1.8223 1.7156 1.6501 1.5757 1.1654 1.2392 1.0312 0.8363
800.526 1.1279 1.1033 1.0021 1.0256 0.991 0.859603 0.766 0.678 0.9801 0.968
819.816 0.7869 0.9599 1.2368 1.4741 1.5216 1.5688 1.5884 1.585 1.4276 1.2145
839.106 1.8086 1.987 1.3926 1.1999 1.5418 1.5694 1.5421 1.6077 1.6583 1.867
858.395 2.127 2.567 2.237 1.987 2.117 2.267 2.547 2.507 2.817 2.717
877.685 2.627 2.927 2.727 2.597 2.587 2.987 3.257 3.057 3.477 3.747
896.975 3.467 3.447 3.577 3.667 3.297 3.017 2.957 3.377 4.057 4.227
916.265 4.017 3.967 3.977 3.687 4.087 4.717 4.527 4.227 4.007 3.887
935.555 3.617 3.357 3.297 2.927 3.127 3.017 2.347 2.467 2.557 2.417
954.844 2.277 2.087 1.7736 1.6434 1.7829 1.7891 1.7895 1.907 1.7696 1.23
974.134 0.94536 0.91071 0.94385 1.1991 1.0722 0.658 1.0037 1.4654 1.5139 1.2599
993.424 1.2438 1.3433 1.158 1.343 1.2969 1.1756 1.5666 1.5359 0.87723 1.2255
1012.714 1.6854 1.3315 1.418 1.3232 1.6334 2.157 1.997 1.5843 1.2805 1.5925
1032.003 1.4805 1.1913 1.4851 1.7465 1.2988 1.3801 1.6578 1.1953 1.4891 1.6492
1051.293 0.628 0.329 1.2342 1.3127 0.7893 1.0506 1.693 1.5465 0.9844 0.657
1070.583 0.876 1.0715 0.4 0 0.7796 1.4581 1.0248 0.973 1.6089 1.8421
1089.873 2.427 3.567 3.527 3.127 3.437 4.167 3.977 3.467 3.487 1.887
1109.163 1.997 3.197 3.437 3.507 3.027 3.247 2.817 1.997 1.957 1.3964
1128.452 1.0311 1.1979 1.71 1.4582 1.6475 1.6719 0.93544 1.1151 1.2982 1.232
1147.742 0.8439 0.87745 0.7587 1.1235 1.997 1.3418 0.85173 1.3628 1.6706 1.2121
1167.032 1.1684 1.2319 0.9724 1.3953 1.3668 1.1514 0.93778 0.544 0.548 0.7692
1186.322 1.4212 2.077 2.737 2.607 2.487 2.927 2.817 2.887 2.997 2.787
1205.611 2.097 2.517 3.087 3.087 4.157 4.387 4.347 3.887 4.377 5.087
1224.901 3.947 3.237 3.347 3.827 3.957 4.717 5.047 4.537 5.257 5.957
1244.191 5.857 5.547 5.327 5.187 5.237 5.247 5.617 5.367 4.567 4.887
1263.481 4.727 3.967 3.657 3.667 3.417 3.297 3.177 3.027 2.967 2.867
1282.771 2.817 2.567 2.467 2.487 2.397 2.297 2.157 2.177 2.387 2.657
1302.060 2.647 2.737 3.127 3.397 3.637 3.927 4.427 4.817 5.207 5.507
1321.350 5.487 5.497 5.457 5.337 5.337 5.367 5.347 5.237 5.077 5.047
1340.640 4.977 4.567 4.027 3.627 3.237 2.947 2.607 2.297 2.247 2.097
1359.930 2.007 2.137 2.057 1.897 1.8122 1.887 1.967 1.867 1.927 2.017
1379.219 1.977 1.997 2.007 1.987 1.967 2.127 2.157 2.047 2.077 2.067
1398.509 2.187 2.297 2.447 2.507 2.607 2.897 3.007 3.097 3.327 3.467
1417.799 3.657 4.137 4.567 4.997 5.287 5.527 6.047 6.627 7.027 7.457
1437.089 7.997 8.327 8.647 8.637 8.477 8.497 8.547 8.757 9.277 9.347
1456.378 8.777 8.437 8.247 7.847 7.337 6.817 6.367 5.837 5.207 4.857
1475.668 4.597 4.327 4.057 3.717 3.627 3.477 3.167 2.947 2.687 2.617
1494.958 2.627 2.537 2.447 2.387 2.217 2.117 2.097 1.937 1.887 1.887
1514.248 1.8396 1.947 1.947 1.877 1.947 1.957 1.967 2.047 1.957 1.877
1533.538 1.897 1.7236 1.6929 1.6684 1.4111 1.2922 1.2177 1.3566 1.5479 1.4541
1552.827 1.5576 1.5714 1.3712 1.309 1.3074 1.2241 1.0515 1.2001 1.2613 1.1564
1572.117 1.146 1.1336 1.2466 1.284 1.3946 1.3854 1.3018 1.3471 1.215 1.0781
1591.407 1.1346 1.1478 1.1922 1.1155 1.0336 1.1077 0.9689 0.9615 1.1563 1.2119
1610.697 1.1828 1.09 1.0688 1.0711 1.0841 1.2273 1.2062 1.0536 0.95102 1.0558
1629.986 1.1459 0.9877 0.8333 0.94664 1.1158 1.0403 0.95408 0.93836 1.0779 1.2432
1649.276 1.3362 1.4586 1.3096 1.0741 1.1165 1.0382 1.0334 1.1883 1.189 1.2711
1668.566 1.2208 1.1629 1.2319 1.1419 1.197 1.2563 1.1594 1.3403 1.4012 1.3826
1687.856 1.389 1.3426 1.3562 1.2785 1.3634 1.5081 1.5509 1.5092 1.4894 1.4282
1707.146 1.3594 1.3725 1.3626 1.4364 1.3405 1.1353 1.2263 1.3004 1.2894 1.2613
1726.435 1.2913 1.432 1.4712 1.3671 1.402 1.4461 1.3882 1.5138 1.4615 1.3869
1745.725 1.418 1.4135 1.3804 1.3497 1.3411 1.2679 1.2959 1.3726 1.3626 1.3368
1765.015 1.4019 1.442 1.3483 1.384 1.503 1.3102 1.2005 1.2949 1.3436 1.352
1784.305 1.3096 1.3044 1.3225 1.2623 1.2167 1.2383 1.2964 1.4112 1.2942 1.1803
1803.594 1.2464 1.3788 1.3545 1.3358 1.4202 1.3941 1.3634 1.3565 1.3196 1.2503
1822.884 1.2633 1.3269 1.4362 1.5111 1.376 1.1837 1.2583 1.3471 1.3796 1.4494
1842.174 1.5206 1.4983 1.4791 1.4046 1.2713 1.2742 1.2937 1.364 1.3986 1.3708
1861.464 1.363 1.3648 1.343 1.3443 1.3436 1.3123 1.1842 1.1285 1.2595 1.3565
1880.754 1.32 1.299 1.1886 1.1169 1.2965 1.4361 1.2667 1.214 1.2582 1.2026
1900.043 1.1819 1.0853 1.111 1.16 1.0803 1.0436 1.2473 1.2936 1.2272 1.2729
1919.333 1.2141 1.2831 1.5328 1.5639 1.4144 1.2861 1.2875 1.3703 1.2941 1.2559
1938.623 1.3694 1.35 1.2974 1.3736 1.4806 1.5891 1.4932 1.4494 1.5468 1.5673
1957.913 1.5802 1.4325 1.4994 1.6636 1.5465 1.4748 1.464 1.3453 1.5044 1.6148
1977.202 1.4198 1.3546 1.4195 1.5298 1.589 1.619 1.7123 1.7241 1.7842 1.6955
1996.492 1.4467 1.5592 1.6149 1.5421 1.5848 1.4525 1.2562 1.2884 1.4119 1.4889
2015.782 1.5457 1.5983 1.5135 1.2632 1.2106 1.3347 1.4872 1.5528 1.6069 1.5517
2035.072 1.321 1.3431 1.4666 1.5421 1.6674 1.7005 1.5766 1.5145 1.4286 1.3934
2054.362 1.5898 1.6449 1.6038 1.599 1.4918 1.4328 1.5304 1.6504 1.6513 1.6959
2073.651 1.5364 1.4607 1.6417 1.5951 1.6104 1.6057 1.512 1.5233 1.6058 1.8044
2092.941 1.7569 1.567 1.6681 1.7335 1.6666 1.7551 1.937 1.977 1.8458 1.71
2112.231 1.6729 1.8046 1.836 1.917 2.007 1.867 2.077 2.267 2.257 2.347
2131.521 2.347 2.237 2.177 2.467 2.637 2.597 2.667 2.787 2.827 2.787
2150.810 2.777 2.827 2.837 2.767 2.767 2.777 2.747 2.647 2.577 2.737
2170.100 2.757 2.707 2.707 2.567 2.357 2.407 2.467 2.337 2.267 2.187
2189.390 2.217 2.397 2.287 2.077 2.167 2.267 2.377 2.427 2.347 2.507
2208.680 2.757 2.957 3.097 3.197 3.577 4.097 4.687 5.267 5.537 6.127
2227.970 6.837 7.257 7.607 7.977 8.247 8.427 8.517 8.607 8.557 8.467
2247.259 8.647 8.377 7.967 7.787 7.347 6.557 5.677 4.907 4.137 3.497
2266.549 3.077 2.767 2.477 2.297 2.287 2.137 1.967 2.067 2.177 2.117
2285.839 1.937 1.6456 1.6685 1.8223 1.7387 1.662 1.5168 1.3908 1.4326 1.4979
2305.129 1.531 1.4882 1.5776 1.5994 1.4801 1.4899 1.5284 1.6462 1.6875 1.5618
2324.418 1.6657 1.6801 1.6161 1.547 1.5478 1.7617 1.6671 1.6279 1.7788 1.8362
2343.708 1.8365 1.7255 1.6499 1.733 1.8004 1.877 1.967 1.8251 1.7523 1.857
2362.998 1.927 1.877 1.897 2.017 2.037 1.937 2.017 2.107 1.997 2.037
2382.288 1.977 1.997 2.007 2.007 1.867 1.589 1.7913 1.967 1.927 1.867
2401.578 1.8312 1.8013 1.7078 1.6673 1.7313 1.792 1.7265 1.621 1.5733 1.6885
2420.867 1.7397 1.7859 1.917 1.957 1.8338 1.7239 1.809 1.887 1.877 1.7734
2440.157 1.76 1.7064 1.6107 1.6717 1.5818 1.5898 1.6754 1.629 1.5187 1.3533
2459.447 1.2244 1.2609 1.3734 1.5582 1.5668 1.3992 1.5278 1.6669 1.5058 1.5777
2478.737 1.5545 1.3369 1.3249 1.4693 1.7136 1.6145 1.3994 1.3934 1.3989 1.3328
2498.026 1.3443 1.3507 1.2207 1.1988 1.3306 1.1197 1.0429 1.2579 1.2988 1.2599
2517.316 1.3208 1.3034 1.1762 1.192 1.0892 1.0214 1.1609 1.2627 1.2536 1.2864
2536.606 1.3546 1.4625 1.3346 1.1822 1.4175 1.4336 1.2259 1.247 1.3228 1.3049
2555.896 1.3299 1.3421 1.3518 1.3239 1.2076 1.2193 1.1574 1.1258 1.2421 1.2895
2575.186 1.2789 1.2502 1.3508 1.3306 1.2034 1.1992 1.1763 1.0953 1.0391 1.0648
2594.475 1.1376 1.075 1.0658 1.2277 1.3181 1.1675 0.9755 1.043 1.164 1.1376
2613.765 1.2152 1.4087 1.3849 1.1426 1.0876 1.1726 1.2771 1.2122 1.1042 1.0797
2633.055 1.2202 1.4807 1.4274 1.3176 1.1706 1.2534 1.4139 1.3283 1.2722 1.4372
2652.345 1.4616 1.3407 1.3977 1.3465 1.3639 1.2384 1.3672 1.6776 1.5589 1.6165
2671.634 1.732 1.7453 1.6257 1.5161 1.6065 1.5835 1.5121 1.5075 1.5745 1.6635
2690.924 1.6232 1.4867 1.552 1.6654 1.684 1.7481 1.8014 1.7984 1.6854 1.8467
2710.214 1.897 1.897 1.977 1.8399 1.8045 1.6506 1.532 1.6007 1.622 1.7306
2729.504 1.5406 1.3849 1.599 1.7133 1.6412 1.5206 1.603 1.6484 1.5656 1.5285
2748.794 1.5111 1.907 2.237 1.897 1.7056 1.7617 1.7501 1.6887 1.8394 2.007
2768.083 1.7161 1.4704 1.436 1.334 1.3378 1.4395 1.4269 1.4468 1.5839 1.7494
2787.373 1.867 1.7908 1.6871 1.8285 1.897 1.7769 1.867 1.8001 1.8344 2.037
2806.663 1.897 1.8454 1.987 2.257 2.257 2.187 2.217 2.177 2.497 2.697
2825.953 2.767 2.797 2.857 3.137 3.257 3.297 3.537 3.877 4.117 4.367
2845.242 4.657 5.107 5.427 5.897 6.897 7.727 8.317 9.107 10.147 11.357
2864.532 12.587 13.977 15.387 16.547 17.987 19.347 20.417 21.247 21.577 21.827
2883.822 22.247 22.687 23.237 23.507 23.287 23.067 23.107 23.167 22.947 22.367
2903.112 21.467 20.727 20.307 19.927 19.697 19.787 20.257 21.147 21.847 22.777
2922.401 24.037 25.327 26.697 28.287 30.417 32.707 35.157 37.827 40.707 44.037
2941.691 47.667 51.597 55.507 59.397 63.277 67.047 70.787 73.817 76.177 77.847
2960.981 78.877 80.037 82.317 85.487 88.997 92.527 95.187 96.957 97.837 97.827
2980.271 97.157 96.597 96.597 96.897 96.877 95.867 94.597 93.807 93.097 92.927
2999.561 95.867 104.567 109.587 93.777 75.027 69.387 67.177 64.047 59.557 54.577
3018.850 49.467 44.067 38.947 34.637 30.717 27.157 23.737 20.667 18.137 15.847
3038.140 14.047 12.367 10.797 9.697 8.777 8.007 7.627 7.327 6.977 6.657
3057.430 6.457 6.297 5.947 5.597 5.517 5.457 5.167 4.977 4.767 4.557
3076.720 4.247 4.117 4.417 4.247 4.027 4.177 4.087 3.747 3.357 3.247
3096.009 3.077 2.817 2.567 2.747 2.887 2.547 2.587 2.607 2.527 2.507
3115.299 2.377 2.277 2.287 2.137 2.147 2.277 2.247 2.107 2.007 1.967
3134.589 1.7144 1.7521 1.947 1.7914 1.5962 1.6664 1.7717 2.017 1.907 1.4597
3153.879 1.7695 1.917 1.6265 1.7534 1.917 1.7651 1.867 2.027 1.867 1.957
3173.169 2.127 1.977 1.6866 1.5226 1.6671 1.7129 1.6984 1.7981 1.735 1.977
3192.458 2.037 1.7203 1.6288 1.5318 1.5405 1.7722 1.6775 1.4242 1.4029 1.4426
3211.748 1.4534 1.439 1.4485 1.461 1.5877 1.537 1.3986 1.5887 1.6474 1.6054
3231.038 1.6302 1.7939 1.7603 1.649 1.74 1.977 2.037 1.867 1.887 1.927
3250.328 1.937 1.6582 1.3954 1.3923 1.5872 1.6329 1.6913 2.057 1.907 1.4429
3269.617 1.5537 1.7045 1.5441 1.6427 1.6575 1.6121 1.6815 1.6438 1.5333 1.5866
3288.907 1.6707 1.609 1.5427 1.597 1.937 1.917 1.867 1.937 1.7666 1.4434
3308.197 1.3641 1.4605 1.3793 1.2828 1.3021 1.3812 1.316 1.2328 1.3058 1.434
3327.487 1.3991 1.2202 1.1863 1.2458 1.3378 1.2769 1.2963 1.2129 0.87809 0.9981
3346.777 1.0319 0.8064 0.957 1.2108 1.1532 1.0098 1.1687 1.2717 1.154 1.1367
3366.066 1.1579 1.0475 1.0228 0.9849 0.695 0.9047 0.9988 0.90693 0.9859 0.9597
3385.356 0.89591 0.8344 0.89491 1.1677 1.1572 0.86457 0.965 1.3051 1.354 1.1682
3404.646 1.1767 1.4272 1.3377 1.0234 0.9721 0.88925 1.0339 1.1191 0.9494 0.8804
3423.936 0.87623 0.89252 0.857822 1.0746 1.3683 1.3687 1.1615 1.0707 0.92392 0.87765
3443.225 0.8451 0.8428 1.0569 1.1933 1.4279 1.3492 1.241 1.1646 0.87592 0.9711
3462.515 0.89091 0.722 0.859059 0.84976 0.90096 1.0125 1.1539 1.1369 1.141 1.2575
3481.805 1.3347 1.4932 1.4122 1.183 1.1297 1.4056 1.637 1.3951 1.3907 1.5765
3501.095 1.4962 1.3351 1.1507 1.2454 1.2473 0.94038 0.92932 1.1848 1.3678 1.4981
3520.385 1.2136 1.0006 1.1709 1.4767 1.5032 1.3307 1.4356 1.2898 1.2544 1.1743
3539.674 1.0005 1.118 0.9419 0.94244 1.2677 1.4269 1.6003 1.5484 1.5586 1.4521
3558.964 1.3464 1.4056 1.3173 1.4553 1.5169 1.5483 1.8483 1.8084 1.5008 1.5232
3578.254 1.6277 1.5893 1.6427 1.7591 1.638 1.361 1.1541 1.1807 1.3278 1.2515
3597.544 1.3116 1.3571 1.268 1.1755 1.1614 1.3849 1.4805 1.4666 1.4087 1.5984
3616.833 1.4077 1.106 1.2778 1.158 0.968 1.2555 1.5775 1.341 1.3416 1.4458
3636.123 1.3417 1.2548 1.1273 1.0861 1.2583 1.6713 1.6239 1.3915 1.3317 1.104
3655.413 1.0358 1.2596 1.3924 1.5532 1.6507 1.6084 1.629 1.4506 1.209 0.9856
3674.703 1.216 1.3652 1.1199 1.1247 1.3226 1.135 1.2426 1.6437 1.3094 1.0986
3693.993 0.9986 1.0698 1.2183 1.143 1.2192 1.3411 1.3644 1.6483 1.6873 1.4905
3713.282 1.6215 1.632 1.6747 1.4812 1.5226 1.7736 1.6186 1.3683 1.5645 1.7639
3732.572 1.6822 1.4769 1.3184 1.4793 1.4882 1.5088 1.2071 1.0009 1.0739 1.1799
3751.862 1.3135 1.1791 1.2524 1.5046 1.4777 1.2524 0.95286 0.7952 1.2689 1.726
3771.152 1.4037 1.2887 1.4679 1.469 1.2971 1.3626 1.4797 1.3221 1.0294 1.0805
3790.441 1.0949 1.1566 1.2946 1.2084 1.4041 1.1541 0.9863 1.3676 1.6146 1.4868
3809.731 1.5637 1.5818 1.5439 1.6399 1.4696 1.4069 1.3101 1.3599 1.4892 1.3511
3829.021 1.1037 0.8744 1.1328 1.1129 1.2389 1.6442 1.6231 1.6033 1.6437 1.4026
3848.311 1.1397 1.5178 1.7704 1.4066 1.2229 1.6163 1.877 1.7015 1.5843 1.4928
3867.601 1.5259 1.5603 1.4287 1.3182 1.5006 1.7706 1.7046 1.4984 1.4795 1.4123
3886.890 1.3779 1.6299 1.7678 1.828 1.5146 1.238 1.5203 1.5485 1.5516 1.6963
3906.180 1.2601 1.154 1.5718 1.6725 1.649 1.7459 1.6514 1.3958 1.4202 1.3968
3925.470 1.247 1.3374 1.5463 1.5083 1.484 1.2671 0.9604 0.9744 1.3042 1.8061
3944.760 1.7726 1.6944 2.017 2.087 1.6102 1.24 1.4197 1.3843 1.2351 1.1765
3964.049 1.2214 1.5011 1.254 1.181 1.4427 1.3352 1.0903 1.2364 1.4706 1.2803
3983.339 1.078 1.2429 1.489 1.3982 1.1329 1.2046 1.4959 1.3847 1.1267 1.0709
##END=
