##TITLE=CARBONYL SULFIDE
##JCAMP-DX=4.24
##DATA TYPE=INFRARED SPECTRUM
##CLASS=COBLENTZ
##ORIGIN=DOW CHEMICAL COMPANY
##OWNER=COBLENTZ SOCIETY
Collection (C) 2018 copyright by the U.S. Secretary of Commerce
on behalf of the United States of America. All rights reserved.
##DATE=1964
##NAMES=oxo(thioxo)methane
##CAS REGISTRY NO=463-58-1
##MOLFORM=C O S
##SOURCE REFERENCE=COBLENTZ NO. 8756
##$NIST SOURCE=COBLENTZ
##$NIST IMAGE=cob8756
##SPECTROMETER/DATA SYSTEM=DOW KBr FOREPRISM
##INSTRUMENT PARAMETERS=GRATING CHANGED AT 5.0, 7.5, 15.0 MICRON
##STATE=GAS (100 mmHg DILUTED TO A TOTAL PRESSURE OF 600 mmHg WITH N2)
##PATH LENGTH=5 CM
$$ SPECTRAL CONTAMINATION DUE TO CO2 AROUND 2350 CM^-^1 AND CS2 AROUND 1550 CM^-^1.
##SAMPLING PROCEDURE=TRANSMISSION
##RESOLUTION=4
##DATA PROCESSING=DIGITIZED BY NIST FROM HARD COPY (FROM TWO SEGMENTS)
##XUNITS=1/CM
##YUNITS=TRANSMITTANCE
##XFACTOR=1.000000
##YFACTOR=1
##DELTAX=0.936915
##FIRSTX=460.65
##LASTX=3799.82
##FIRSTY=0.976
##MAXX=3799.82
##MINX=460.65
##MAXY=1.007
##MINY=0.004
##NPOINTS=3565
##XYDATA=(X++(Y..Y))
460.650000 0.9760 0.9760 0.9750 0.9750 0.9730
465.334575 0.9730 0.9730 0.9730 0.9730 0.9730
470.019151 0.9730 0.9720 0.9720 0.9720 0.9720
474.703726 0.9720 0.9720 0.9720 0.9720 0.9720
479.388301 0.9720 0.9720 0.9710 0.9710 0.9710
484.072877 0.9710 0.9710 0.9710 0.9710 0.9710
488.757452 0.9710 0.9710 0.9710 0.9690 0.9690
493.442027 0.9690 0.9690 0.9680 0.9660 0.9660
498.126603 0.9630 0.9620 0.9620 0.9580 0.9560
502.811178 0.9530 0.9450 0.9400 0.9370 0.9320
507.495753 0.9210 0.9130 0.9060 0.8940 0.8910
512.180329 0.8840 0.8800 0.8780 0.8740 0.8720
516.864904 0.8690 0.8670 0.8590 0.8550 0.8550
521.549479 0.8560 0.9009 0.9110 0.4339 0.3494
526.234055 0.3490 0.4659 0.7956 0.8689 0.8690
530.918630 0.7713 0.7680 0.8287 0.8390 0.8390
535.603205 0.8410 0.8420 0.8510 0.8550 0.8640
540.287781 0.8710 0.8740 0.8929 0.9099 0.9140
544.972356 0.9200 0.9320 0.9360 0.9450 0.9550
549.656931 0.9560 0.9600 0.9650 0.9690 0.9730
554.341507 0.9780 0.9790 0.9840 0.9850 0.9860
559.026082 0.9880 0.9890 0.9920 0.9940 0.9940
563.710657 0.9940 0.9940 0.9950 0.9970 0.9980
568.395233 1.0000 1.0000 1.0010 1.0010 1.0000
573.079808 1.0010 1.0010 1.0010 1.0010 1.0010
577.764383 1.0010 1.0010 1.0010 1.0010 1.0010
582.448959 1.0010 1.0010 1.0010 1.0010 1.0010
587.133534 1.0020 1.0020 1.0020 1.0020 1.0020
591.818109 1.0020 1.0020 1.0040 1.0040 1.0040
596.502685 1.0040 1.0040 1.0040 1.0040 1.0050
601.187260 1.0050 1.0050 1.0050 1.0050 1.0050
605.871835 1.0050 1.0050 1.0050 1.0040 1.0040
610.556411 1.0040 1.0040 1.0020 1.0020 1.0020
615.240986 1.0020 1.0010 1.0000 1.0000 0.9970
619.925561 0.9940 0.9940 1.0020 1.0040 1.0050
624.610137 1.0050 1.0070 1.0070 1.0070 1.0070
629.294712 1.0070 1.0070 1.0050 1.0040 1.0040
633.979287 1.0020 1.0010 1.0010 1.0010 1.0000
638.663863 0.9970 0.9940 0.9940 0.9890 0.9850
643.348438 0.9820 0.9810 0.9790 0.9780 0.9730
648.033013 0.9690 0.9680 0.9650 0.9650 0.9630
652.717589 0.9620 0.9620 0.9620 0.9620 0.9620
657.402164 0.9620 0.9620 0.9630 0.9630 0.9650
662.086739 0.9690 0.9750 0.9760 0.9780 0.9780
666.771315 0.9790 0.9790 0.9790 0.9790 0.9790
671.455890 0.9790 0.9790 0.9790 0.9790 0.9790
676.140465 0.9780 0.9780 0.9780 0.9760 0.9760
680.825041 0.9760 0.9750 0.9750 0.9750 0.9730
685.509616 0.9730 0.9730 0.9720 0.9720 0.9720
690.194191 0.9710 0.9710 0.9710 0.9710 0.9690
694.878767 0.9690 0.9690 0.9680 0.9680 0.9680
699.563342 0.9680 0.9660 0.9660 0.9660 0.9650
704.247917 0.9650 0.9650 0.9630 0.9630 0.9630
708.932493 0.9620 0.9620 0.9620 0.9600 0.9600
713.617068 0.9600 0.9590 0.9580 0.9560 0.9560
718.301643 0.9550 0.9530 0.9530 0.9550 0.9560
722.986219 0.9590 0.9590 0.9600 0.9600 0.9600
727.670794 0.9600 0.9600 0.9620 0.9620 0.9620
732.355369 0.9630 0.9630 0.9630 0.9630 0.9650
737.039945 0.9650 0.9650 0.9650 0.9650 0.9650
741.724520 0.9650 0.9650 0.9650 0.9660 0.9660
746.409095 0.9660 0.9660 0.9660 0.9660 0.9660
751.093671 0.9660 0.9660 0.9650 0.9650 0.9650
755.778246 0.9650 0.9660 0.9660 0.9680 0.9680
760.462821 0.9680 0.9680 0.9680 0.9680 0.9680
765.147397 0.9680 0.9680 0.9680 0.9660 0.9660
769.831972 0.9660 0.9660 0.9660 0.9660 0.9660
774.516547 0.9660 0.9660 0.9660 0.9660 0.9660
779.201123 0.9660 0.9650 0.9650 0.9660 0.9680
783.885698 0.9680 0.9680 0.9690 0.9690 0.9690
788.570273 0.9690 0.9690 0.9690 0.9690 0.9680
793.254849 0.9680 0.9680 0.9680 0.9680 0.9690
797.939424 0.9690 0.9690 0.9680 0.9690 0.9690
802.623999 0.9680 0.9660 0.9660 0.9660 0.9660
807.308575 0.9660 0.9660 0.9660 0.9660 0.9650
811.993150 0.9650 0.9630 0.9630 0.9620 0.9600
816.677725 0.9580 0.9560 0.9560 0.9530 0.9490
821.362301 0.9430 0.9390 0.9330 0.9290 0.9230
826.046876 0.9170 0.9100 0.8980 0.8850 0.8750
830.731451 0.8351 0.8091 0.7940 0.7840 0.7740
835.416027 0.7550 0.7380 0.6790 0.6560 0.6270
840.100602 0.5951 0.5651 0.5401 0.5241 0.5200
844.785177 0.5100 0.5080 0.5080 0.5100 0.5170
849.469753 0.5300 0.5649 0.5889 0.6089 0.6249
854.154328 0.6430 0.6600 0.7090 0.7869 0.7860
858.838903 0.6843 0.6820 0.5286 0.4882 0.4691
863.523479 0.4530 0.4520 0.4520 0.4530 0.4590
868.208054 0.4720 0.4850 0.4980 0.5328 0.5718
872.892629 0.5850 0.6180 0.6930 0.7569 0.7730
877.577205 0.8149 0.8379 0.8539 0.8908 0.9169
882.261780 0.9360 0.9470 0.9580 0.9650 0.9720
886.946355 0.9720 0.9750 0.9760 0.9780 0.9780
891.630931 0.9780 0.9780 0.9780 0.9780 0.9780
896.315506 0.9790 0.9790 0.9790 0.9790 0.9790
901.000081 0.9790 0.9790 0.9790 0.9790 0.9790
905.684657 0.9790 0.9790 0.9790 0.9790 0.9790
910.369232 0.9790 0.9790 0.9790 0.9790 0.9790
915.053807 0.9790 0.9790 0.9790 0.9790 0.9790
919.738383 0.9810 0.9810 0.9810 0.9810 0.9810
924.422958 0.9810 0.9810 0.9810 0.9810 0.9810
929.107533 0.9810 0.9840 0.9840 0.9840 0.9840
933.792109 0.9850 0.9850 0.9850 0.9850 0.9850
938.476684 0.9850 0.9850 0.9850 0.9850 0.9850
943.161259 0.9850 0.9850 0.9860 0.9860 0.9860
947.845835 0.9860 0.9860 0.9860 0.9860 0.9850
952.530410 0.9850 0.9850 0.9850 0.9850 0.9850
957.214986 0.9850 0.9850 0.9850 0.9850 0.9850
961.899561 0.9850 0.9850 0.9850 0.9850 0.9850
966.584136 0.9850 0.9850 0.9850 0.9850 0.9850
971.268712 0.9850 0.9850 0.9850 0.9850 0.9850
975.953287 0.9850 0.9850 0.9850 0.9850 0.9850
980.637862 0.9850 0.9840 0.9840 0.9840 0.9840
985.322438 0.9840 0.9840 0.9840 0.9840 0.9840
990.007013 0.9840 0.9840 0.9840 0.9840 0.9840
994.691588 0.9820 0.9820 0.9820 0.9820 0.9820
999.376164 0.9820 0.9820 0.9820 0.9820 0.9820
1004.060739 0.9820 0.9810 0.9810 0.9810 0.9810
1008.745314 0.9810 0.9810 0.9810 0.9790 0.9790
1013.429890 0.9780 0.9780 0.9760 0.9750 0.9750
1018.114465 0.9720 0.9690 0.9630 0.9580 0.9500
1022.799040 0.9430 0.9360 0.9290 0.9100 0.8930
1027.483616 0.8820 0.8690 0.8540 0.8361 0.8151
1032.168191 0.7970 0.7800 0.7580 0.7420 0.7260
1036.852766 0.7250 0.7250 0.7260 0.7340 0.7499
1041.537342 0.7731 0.8190 0.8290 0.8940 0.8900
1046.221917 0.8810 0.8690 0.8580 0.8221 0.8091
1050.906492 0.7960 0.7870 0.7800 0.7770 0.7740
1055.591068 0.7710 0.7700 0.7700 0.7710 0.7760
1060.275643 0.7770 0.7860 0.7890 0.8070 0.8220
1064.960218 0.8300 0.8450 0.8590 0.8680 0.8750
1069.644794 0.8940 0.9040 0.9130 0.9330 0.9390
1074.329369 0.9430 0.9470 0.9530 0.9580 0.9600
1079.013944 0.9650 0.9690 0.9720 0.9750 0.9780
1083.698520 0.9810 0.9810 0.9820 0.9820 0.9820
1088.383095 0.9840 0.9840 0.9840 0.9840 0.9820
1093.067670 0.9820 0.9820 0.9820 0.9820 0.9820
1097.752246 0.9820 0.9820 0.9820 0.9820 0.9820
1102.436821 0.9810 0.9810 0.9790 0.9790 0.9790
1107.121396 0.9790 0.9810 0.9810 0.9810 0.9810
1111.805972 0.9820 0.9840 0.9840 0.9840 0.9850
1116.490547 0.9850 0.9860 0.9860 0.9880 0.9880
1121.175122 0.9880 0.9890 0.9910 0.9910 0.9910
1125.859698 0.9920 0.9920 0.9920 0.9910 0.9910
1130.544273 0.9910 0.9910 0.9910 0.9910 0.9910
1135.228848 0.9910 0.9910 0.9910 0.9910 0.9890
1139.913424 0.9890 0.9890 0.9910 0.9910 0.9910
1144.597999 0.9910 0.9910 0.9920 0.9920 0.9920
1149.282574 0.9920 0.9920 0.9920 0.9920 0.9940
1153.967150 0.9940 0.9940 0.9940 0.9940 0.9920
1158.651725 0.9920 0.9920 0.9920 0.9940 0.9940
1163.336300 0.9920 0.9920 0.9920 0.9910 0.9910
1168.020876 0.9910 0.9910 0.9910 0.9910 0.9890
1172.705451 0.9880 0.9880 0.9850 0.9840 0.9820
1177.390026 0.9810 0.9790 0.9790 0.9810 0.9840
1182.074602 0.9860 0.9880 0.9880 0.9880 0.9880
1186.759177 0.9880 0.9880 0.9880 0.9880 0.9880
1191.443752 0.9860 0.9860 0.9860 0.9880 0.9880
1196.128328 0.9880 0.9890 0.9890 0.9890 0.9890
1200.812903 0.9890 0.9910 0.9890 0.9890 0.9890
1205.497478 0.9890 0.9890 0.9890 0.9890 0.9890
1210.182054 0.9880 0.9880 0.9890 0.9910 0.9910
1214.866629 0.9910 0.9910 0.9910 0.9910 0.9920
1219.551204 0.9920 0.9920 0.9920 0.9940 0.9950
1224.235780 0.9950 0.9950 0.9950 0.9950 0.9950
1228.920355 0.9970 0.9970 0.9970 0.9950 0.9940
1233.604930 0.9920 0.9910 0.9890 0.9880 0.9880
1238.289506 0.9860 0.9860 0.9850 0.9840 0.9820
1242.974081 0.9820 0.9810 0.9810 0.9810 0.9790
1247.658656 0.9790 0.9780 0.9780 0.9780 0.9780
1252.343232 0.9760 0.9760 0.9760 0.9760 0.9760
1257.027807 0.9750 0.9750 0.9750 0.9750 0.9750
1261.712382 0.9750 0.9750 0.9750 0.9750 0.9750
1266.396958 0.9750 0.9750 0.9750 0.9750 0.9750
1271.081533 0.9750 0.9750 0.9750 0.9750 0.9750
1275.766108 0.9750 0.9750 0.9730 0.9730 0.9730
1280.450684 0.9720 0.9720 0.9720 0.9720 0.9720
1285.135259 0.9720 0.9710 0.9710 0.9710 0.9710
1289.819834 0.9710 0.9710 0.9710 0.9680 0.9660
1294.504410 0.9660 0.9660 0.9660 0.9660 0.9660
1299.188985 0.9680 0.9680 0.9680 0.9660 0.9660
1303.873560 0.9660 0.9660 0.9650 0.9650 0.9650
1308.558136 0.9660 0.9660 0.9680 0.9680 0.9690
1313.242711 0.9690 0.9690 0.9680 0.9680 0.9660
1317.927286 0.9660 0.9660 0.9680 0.9680 0.9680
1322.611862 0.9680 0.9690 0.9710 0.9680 0.9660
1327.296437 0.9650 0.9650 0.9660 0.9660 0.9660
1331.981012 0.9680 0.9680 0.9680 0.9680 0.9660
1336.665588 0.9660 0.9650 0.9630 0.9620 0.9620
1341.350163 0.9630 0.9660 0.9680 0.9690 0.9710
1346.034738 0.9720 0.9720 0.9720 0.9730 0.9730
1350.719314 0.9750 0.9790 0.9810 0.9810 0.9810
1355.403889 0.9810 0.9820 0.9820 0.9840 0.9840
1360.088464 0.9840 0.9840 0.9820 0.9810 0.9790
1364.773040 0.9810 0.9790 0.9760 0.9750 0.9730
1369.457615 0.9730 0.9730 0.9720 0.9690 0.9680
1374.142190 0.9660 0.9660 0.9680 0.9680 0.9660
1378.826766 0.9660 0.9660 0.9660 0.9680 0.9680
1383.511341 0.9660 0.9660 0.9650 0.9630 0.9600
1388.195916 0.9620 0.9600 0.9600 0.9590 0.9590
1392.880492 0.9590 0.9590 0.9590 0.9590 0.9590
1397.565067 0.9590 0.9590 0.9590 0.9600 0.9600
1402.249642 0.9600 0.9600 0.9600 0.9600 0.9600
1406.934218 0.9600 0.9600 0.9600 0.9600 0.9590
1411.618793 0.9590 0.9600 0.9600 0.9600 0.9600
1416.303368 0.9600 0.9600 0.9600 0.9590 0.9590
1420.987944 0.9590 0.9600 0.9600 0.9600 0.9600
1425.672519 0.9600 0.9600 0.9600 0.9600 0.9600
1430.357094 0.9600 0.9600 0.9620 0.9600 0.9600
1435.041670 0.9600 0.9600 0.9600 0.9600 0.9600
1439.726245 0.9600 0.9600 0.9590 0.9590 0.9590
1444.410820 0.9590 0.9590 0.9590 0.9590 0.9590
1449.095396 0.9590 0.9590 0.9600 0.9590 0.9590
1453.779971 0.9580 0.9580 0.9560 0.9560 0.9560
1458.464546 0.9560 0.9580 0.9590 0.9580 0.9580
1463.149122 0.9560 0.9560 0.9560 0.9560 0.9580
1467.833697 0.9580 0.9580 0.9560 0.9550 0.9500
1472.518272 0.9450 0.9450 0.9490 0.9500 0.9530
1477.202848 0.9580 0.9580 0.9580 0.9590 0.9590
1481.887423 0.9590 0.9600 0.9600 0.9590 0.9590
1486.571998 0.9580 0.9530 0.9520 0.9500 0.9520
1491.256574 0.9590 0.9600 0.9600 0.9600 0.9590
1495.941149 0.9590 0.9590 0.9580 0.9580 0.9580
1500.625724 0.9580 0.9560 0.9550 0.9530 0.9490
1505.310300 0.9430 0.9400 0.9390 0.9370 0.9390
1509.994875 0.9400 0.9400 0.9360 0.9330 0.9290
1514.679450 0.9230 0.9170 0.9100 0.9070 0.9040
1519.364026 0.8930 0.8840 0.8800 0.8740 0.8720
1524.048601 0.8690 0.8690 0.8680 0.8680 0.8680
1528.733176 0.8690 0.8710 0.8740 0.8740 0.8750
1533.417752 0.8750 0.8770 0.8900 0.9000 0.8950
1538.102327 0.8800 0.8640 0.8390 0.8350 0.8350
1542.786902 0.8490 0.8550 0.8670 0.8780 0.8999
1547.471478 0.9011 0.9460 0.9470 0.9490 0.9520
1552.156053 0.9530 0.9560 0.9600 0.9630 0.9660
1556.840628 0.9680 0.9680 0.9660 0.9660 0.9650
1561.525204 0.9650 0.9630 0.9630 0.9620 0.9620
1566.209779 0.9620 0.9620 0.9620 0.9620 0.9620
1570.894354 0.9600 0.9600 0.9590 0.9590 0.9600
1575.578930 0.9600 0.9620 0.9630 0.9650 0.9660
1580.263505 0.9660 0.9660 0.9660 0.9650 0.9650
1584.948080 0.9650 0.9650 0.9650 0.9650 0.9650
1589.632656 0.9650 0.9650 0.9650 0.9650 0.9650
1594.317231 0.9650 0.9650 0.9650 0.9650 0.9650
1599.001806 0.9650 0.9650 0.9650 0.9630 0.9630
1603.686382 0.9630 0.9620 0.9620 0.9620 0.9620
1608.370957 0.9620 0.9620 0.9620 0.9620 0.9620
1613.055532 0.9600 0.9590 0.9590 0.9590 0.9590
1617.740108 0.9600 0.9600 0.9600 0.9600 0.9590
1622.424683 0.9590 0.9590 0.9590 0.9590 0.9600
1627.109258 0.9600 0.9600 0.9620 0.9620 0.9620
1631.793834 0.9590 0.9590 0.9590 0.9590 0.9590
1636.478409 0.9590 0.9600 0.9600 0.9600 0.9600
1641.162984 0.9620 0.9620 0.9580 0.9580 0.9580
1645.847560 0.9580 0.9580 0.9580 0.9580 0.9580
1650.532135 0.9580 0.9550 0.9550 0.9590 0.9590
1655.216710 0.9590 0.9590 0.9600 0.9590 0.9590
1659.901286 0.9590 0.9580 0.9580 0.9580 0.9560
1664.585861 0.9560 0.9560 0.9550 0.9530 0.9520
1669.270436 0.9500 0.9500 0.9500 0.9470 0.9470
1673.955012 0.9460 0.9460 0.9460 0.9450 0.9420
1678.639587 0.9390 0.9370 0.9370 0.9360 0.9240
1683.324162 0.9190 0.9190 0.9170 0.9170 0.9160
1688.008738 0.9100 0.9070 0.9060 0.9000 0.8980
1692.693313 0.8930 0.8820 0.8770 0.8740 0.8670
1697.377888 0.8590 0.8520 0.8460 0.8450 0.8460
1702.062464 0.8510 0.8520 0.8550 0.8580 0.8620
1706.747039 0.8680 0.8810 0.9130 0.9360 0.9370
1711.431614 0.9330 0.9170 0.9040 0.8910 0.8741
1716.116190 0.8560 0.8390 0.8360 0.8350 0.8360
1720.800765 0.8380 0.8390 0.8609 0.8690 0.8710
1725.485340 0.8850 0.9030 0.9060 0.9110 0.9330
1730.169916 0.9390 0.9450 0.9490 0.9530 0.9580
1734.854491 0.9580 0.9590 0.9590 0.9580 0.9580
1739.539066 0.9580 0.9580 0.9580 0.9590 0.9580
1744.223642 0.9580 0.9580 0.9580 0.9580 0.9560
1748.908217 0.9560 0.9560 0.9560 0.9560 0.9560
1753.592792 0.9560 0.9580 0.9580 0.9580 0.9580
1758.277368 0.9580 0.9580 0.9580 0.9590 0.9590
1762.961943 0.9580 0.9580 0.9560 0.9560 0.9550
1767.646518 0.9550 0.9530 0.9520 0.9530 0.9550
1772.331094 0.9560 0.9580 0.9580 0.9580 0.9590
1777.015669 0.9590 0.9590 0.9590 0.9590 0.9590
1781.700244 0.9590 0.9590 0.9590 0.9580 0.9580
1786.384820 0.9580 0.9580 0.9580 0.9580 0.9580
1791.069395 0.9580 0.9580 0.9580 0.9580 0.9580
1795.753970 0.9580 0.9580 0.9580 0.9580 0.9580
1800.438546 0.9580 0.9580 0.9580 0.9580 0.9580
1805.123121 0.9580 0.9580 0.9580 0.9580 0.9580
1809.807696 0.9580 0.9580 0.9580 0.9580 0.9580
1814.492272 0.9580 0.9580 0.9580 0.9580 0.9580
1819.176847 0.9580 0.9580 0.9580 0.9580 0.9580
1823.861422 0.9580 0.9580 0.9580 0.9580 0.9580
1828.545998 0.9580 0.9560 0.9560 0.9560 0.9560
1833.230573 0.9560 0.9560 0.9560 0.9560 0.9550
1837.915148 0.9550 0.9550 0.9550 0.9550 0.9550
1842.599724 0.9550 0.9520 0.9520 0.9530 0.9530
1847.284299 0.9530 0.9530 0.9520 0.9520 0.9520
1851.968874 0.9500 0.9500 0.9490 0.9490 0.9490
1856.653450 0.9470 0.9450 0.9420 0.9400 0.9390
1861.338025 0.9370 0.9330 0.9290 0.9240 0.9190
1866.022600 0.9160 0.9030 0.8980 0.8950 0.8880
1870.707176 0.8750 0.8640 0.8520 0.8410 0.8290
1875.391751 0.8220 0.8090 0.7900 0.7770 0.7640
1880.076326 0.7550 0.7520 0.7540 0.7550 0.7650
1884.760902 0.7740 0.7830 0.7930 0.8020 0.8479
1889.445477 0.8929 0.9169 0.9160 0.8981 0.8950
1894.130052 0.8680 0.8390 0.7800 0.7730 0.7610
1898.814628 0.7500 0.7390 0.7380 0.7390 0.7539
1903.499203 0.7670 0.7810 0.7940 0.8090 0.8220
1908.183778 0.8320 0.8490 0.8560 0.8769 0.8969
1912.868354 0.9160 0.9190 0.9210 0.9270 0.9360
1917.552929 0.9390 0.9450 0.9470 0.9490 0.9500
1922.237505 0.9530 0.9530 0.9550 0.9550 0.9550
1926.922080 0.9550 0.9560 0.9550 0.9550 0.9550
1931.606655 0.9550 0.9560 0.9560 0.9560 0.9580
1936.291231 0.9580 0.9580 0.9580 0.9560 0.9560
1940.975806 0.9560 0.9560 0.9560 0.9560 0.9560
1945.660381 0.9560 0.9560 0.9560 0.9560 0.9560
1950.344957 0.9560 0.9560 0.9550 0.9550 0.9550
1955.029532 0.9550 0.9550 0.9550 0.9530 0.9530
1959.714107 0.9530 0.9530 0.9530 0.9530 0.9520
1964.398683 0.9500 0.9500 0.9490 0.9460 0.9430
1969.083258 0.9420 0.9390 0.9370 0.9270 0.9200
1973.767833 0.9160 0.9100 0.9030 0.8970 0.8880
1978.452409 0.8810 0.8750 0.8650 0.8390 0.8130
1983.136984 0.7970 0.7770 0.7581 0.7381 0.7191
1987.821559 0.6930 0.6660 0.6530 0.6410 0.6300
1992.506135 0.6180 0.6050 0.5930 0.5820 0.5651
1997.190710 0.5620 0.5650 0.5720 0.5880 0.5930
2001.875285 0.5980 0.5995 0.6010 0.6050 0.6090
2006.559861 0.6149 0.6209 0.6230 0.6250 0.6466
2011.244436 0.6686 0.7062 0.7442 0.7450 0.7450
2015.929011 0.6545 0.5616 0.5129 0.4655 0.3909
2020.613587 0.3161 0.2791 0.2426 0.2317 0.2212
2025.298162 0.1770 0.1321 0.1227 0.1142 0.1053
2029.982737 0.0963 0.0781 0.0596 0.0416 0.0237
2034.667313 0.0158 0.0083 0.0065 0.0050 0.0045
2039.351888 0.0040 0.0040 0.0040 0.0040 0.0040
2044.036463 0.0040 0.0040 0.0040 0.0040 0.0045
2048.721039 0.0050 0.0050 0.0050 0.0050 0.0050
2053.405614 0.0050 0.0050 0.0045 0.0040 0.0040
2058.090189 0.0040 0.0040 0.0040 0.0040 0.0040
2062.774765 0.0040 0.0040 0.0045 0.0050 0.0050
2067.459340 0.0050 0.0050 0.0050 0.0050 0.0050
2072.143915 0.0045 0.0040 0.0040 0.0040 0.0040
2076.828491 0.0040 0.0040 0.0040 0.0040 0.0040
2081.513066 0.0040 0.0040 0.0040 0.0040 0.0040
2086.197641 0.0040 0.0040 0.0040 0.0045 0.0050
2090.882217 0.2506 0.5162 0.5747 0.6155 0.6560
2095.566792 0.6964 0.7065 0.7145 0.7164 0.7179
2100.251367 0.7185 0.7190 0.7190 0.7190 0.7190
2104.935943 0.7190 0.7199 0.7209 0.7333 0.7468
2109.620518 0.7608 0.7747 0.8118 0.8511 0.8531
2114.305093 0.8521 0.7907 0.7243 0.7172 0.7152
2118.989669 0.7168 0.7188 0.7208 0.7228 0.7280
2123.674244 0.7335 0.7417 0.7502 0.7564 0.7624
2128.358819 0.7675 0.7725 0.7866 0.8017 0.8190
2133.043395 0.8364 0.8575 0.8790 0.8864 0.8924
2137.727970 0.8953 0.8978 0.9020 0.9065 0.9173
2142.412545 0.9288 0.9354 0.9413 0.9438 0.9458
2147.097121 0.9464 0.9469 0.9483 0.9499 0.9523
2151.781696 0.9547 0.9554 0.9559 0.9560 0.9560
2156.466271 0.9569 0.9579 0.9580 0.9580 0.9584
2161.150847 0.9589 0.9590 0.9590 0.9586 0.9581
2165.835422 0.9580 0.9580 0.9580 0.9580 0.9580
2170.519997 0.9580 0.9580 0.9580 0.9580 0.9580
2175.204573 0.9580 0.9580 0.9580 0.9580 0.9580
2179.889148 0.9580 0.9580 0.9580 0.9580 0.9580
2184.573723 0.9580 0.9580 0.9580 0.9580 0.9580
2189.258299 0.9580 0.9580 0.9580 0.9580 0.9580
2193.942874 0.9584 0.9589 0.9590 0.9590 0.9590
2198.627449 0.9590 0.9594 0.9599 0.9609 0.9619
2203.312025 0.9620 0.9620 0.9620 0.9620 0.9620
2207.996600 0.9620 0.9620 0.9620 0.9624 0.9629
2212.681175 0.9630 0.9630 0.9617 0.9602 0.9600
2217.365751 0.9600 0.9600 0.9600 0.9600 0.9600
2222.050326 0.9600 0.9600 0.9600 0.9600 0.9609
2226.734901 0.9618 0.9624 0.9629 0.9626 0.9621
2231.419477 0.9620 0.9620 0.9620 0.9620 0.9620
2236.104052 0.9620 0.9620 0.9620 0.9620 0.9620
2240.788627 0.9620 0.9620 0.9620 0.9620 0.9612
2245.473203 0.9602 0.9600 0.9600 0.9600 0.9600
2250.157778 0.9600 0.9600 0.9600 0.9600 0.9600
2254.842353 0.9600 0.9600 0.9600 0.9596 0.9591
2259.526929 0.9590 0.9590 0.9590 0.9590 0.9590
2264.211504 0.9590 0.9590 0.9590 0.9590 0.9590
2268.896079 0.9590 0.9590 0.9590 0.9590 0.9590
2273.580655 0.9590 0.9590 0.9590 0.9586 0.9581
2278.265230 0.9580 0.9580 0.9572 0.9562 0.9560
2282.949805 0.9560 0.9548 0.9533 0.9526 0.9521
2287.634381 0.9508 0.9493 0.9482 0.9472 0.9462
2292.318956 0.9452 0.9438 0.9423 0.9400 0.9375
2297.003531 0.9350 0.9325 0.9308 0.9293 0.9270
2301.688107 0.9245 0.9160 0.9060 0.9012 0.8977
2306.372682 0.8954 0.8934 0.8883 0.8823 0.8755
2311.057257 0.8685 0.8487 0.8252 0.8169 0.8129
2315.741833 0.8097 0.8067 0.8013 0.7953 0.7861
2320.426408 0.7761 0.7646 0.7526 0.7418 0.7313
2325.110983 0.7216 0.7121 0.7030 0.6940 0.6908
2329.795559 0.6893 0.6867 0.6837 0.6819 0.6804
2334.480134 0.6800 0.6800 0.6758 0.6702 0.6671
2339.164709 0.6646 0.6617 0.6587 0.6572 0.6562
2343.849285 0.6560 0.6560 0.6564 0.6569 0.6691
2348.533860 0.6851 0.7011 0.7171 0.7458 0.7788
2353.218435 0.7870 0.7870 0.7267 0.6460 0.6148
2357.903011 0.5988 0.5893 0.5818 0.5800 0.5800
2362.587586 0.5808 0.5818 0.5857 0.5907 0.5991
2367.272161 0.6086 0.6207 0.6336 0.6440 0.6535
2371.956737 0.6564 0.6569 0.6814 0.7147 0.7249
2376.641312 0.7274 0.7291 0.7306 0.7399 0.7519
2381.325887 0.7643 0.7767 0.8427 0.9275 0.9511
2386.010463 0.9526 0.9552 0.9582 0.9594 0.9599
2390.695038 0.9607 0.9617 0.9624 0.9629 0.9637
2395.379613 0.9647 0.9654 0.9659 0.9667 0.9677
2400.064189 0.9684 0.9689 0.9690 0.9690 0.9697
2404.748764 0.9707 0.9710 0.9710 0.9714 0.9719
2409.433339 0.9720 0.9720 0.9724 0.9729 0.9730
2414.117915 0.9730 0.9726 0.9721 0.9720 0.9720
2418.802490 0.9720 0.9720 0.9720 0.9720 0.9720
2423.487065 0.9720 0.9720 0.9720 0.9720 0.9720
2428.171641 0.9717 0.9712 0.9710 0.9710 0.9710
2432.856216 0.9710 0.9710 0.9710 0.9710 0.9710
2437.540791 0.9710 0.9710 0.9710 0.9710 0.9713
2442.225367 0.9718 0.9720 0.9720 0.9720 0.9720
2446.909942 0.9720 0.9720 0.9720 0.9720 0.9717
2451.594517 0.9711 0.9710 0.9710 0.9710 0.9710
2456.279093 0.9713 0.9718 0.9720 0.9720 0.9723
2460.963668 0.9728 0.9730 0.9730 0.9727 0.9722
2465.648243 0.9720 0.9720 0.9720 0.9720 0.9720
2470.332819 0.9720 0.9720 0.9720 0.9720 0.9720
2475.017394 0.9720 0.9720 0.9720 0.9720 0.9717
2479.701969 0.9712 0.9710 0.9710 0.9713 0.9718
2484.386545 0.9720 0.9720 0.9720 0.9720 0.9720
2489.071120 0.9720 0.9723 0.9728 0.9730 0.9730
2493.755695 0.9727 0.9722 0.9723 0.9728 0.9727
2498.440271 0.9722 0.9720 0.9720 0.9720 0.9720
2503.124846 0.9720 0.9720 0.9720 0.9720 0.9720
2507.809421 0.9720 0.9720 0.9720 0.9717 0.9712
2512.493997 0.9710 0.9710 0.9710 0.9710 0.9710
2517.178572 0.9710 0.9710 0.9710 0.9710 0.9710
2521.863147 0.9710 0.9710 0.9710 0.9710 0.9710
2526.547723 0.9710 0.9710 0.9710 0.9713 0.9718
2531.232298 0.9720 0.9720 0.9710 0.9695 0.9690
2535.916873 0.9690 0.9690 0.9690 0.9687 0.9682
2540.601449 0.9680 0.9680 0.9683 0.9688 0.9690
2545.286024 0.9690 0.9690 0.9690 0.9690 0.9690
2549.970599 0.9690 0.9690 0.9690 0.9690 0.9690
2554.655175 0.9690 0.9690 0.9690 0.9687 0.9682
2559.339750 0.9680 0.9680 0.9674 0.9664 0.9660
2564.024325 0.9660 0.9657 0.9652 0.9650 0.9650
2568.708901 0.9650 0.9650 0.9650 0.9650 0.9653
2573.393476 0.9658 0.9660 0.9660 0.9669 0.9684
2578.078051 0.9696 0.9706 0.9710 0.9710 0.9713
2582.762627 0.9718 0.9720 0.9720 0.9720 0.9720
2587.447202 0.9720 0.9720 0.9720 0.9720 0.9720
2592.131777 0.9720 0.9723 0.9728 0.9730 0.9730
2596.816353 0.9730 0.9730 0.9730 0.9730 0.9730
2601.500928 0.9730 0.9730 0.9730 0.9730 0.9730
2606.185503 0.9730 0.9730 0.9730 0.9730 0.9730
2610.870079 0.9730 0.9727 0.9722 0.9720 0.9720
2615.554654 0.9720 0.9720 0.9717 0.9712 0.9710
2620.239229 0.9710 0.9710 0.9710 0.9710 0.9710
2624.923805 0.9710 0.9710 0.9713 0.9718 0.9720
2629.608380 0.9720 0.9720 0.9720 0.9720 0.9720
2634.292955 0.9720 0.9720 0.9720 0.9720 0.9720
2638.977531 0.9720 0.9720 0.9720 0.9723 0.9728
2643.662106 0.9730 0.9730 0.9730 0.9730 0.9730
2648.346681 0.9730 0.9730 0.9730 0.9727 0.9722
2653.031257 0.9720 0.9720 0.9720 0.9720 0.9720
2657.715832 0.9720 0.9720 0.9720 0.9720 0.9720
2662.400407 0.9720 0.9720 0.9720 0.9720 0.9720
2667.084983 0.9720 0.9720 0.9720 0.9720 0.9720
2671.769558 0.9720 0.9720 0.9720 0.9720 0.9720
2676.454133 0.9720 0.9720 0.9720 0.9723 0.9728
2681.138709 0.9730 0.9730 0.9727 0.9722 0.9720
2685.823284 0.9720 0.9720 0.9720 0.9720 0.9720
2690.507859 0.9720 0.9720 0.9717 0.9712 0.9710
2695.192435 0.9710 0.9710 0.9710 0.9710 0.9710
2699.877010 0.9710 0.9710 0.9710 0.9710 0.9705
2704.561585 0.9695 0.9690 0.9690 0.9690 0.9690
2709.246161 0.9690 0.9690 0.9687 0.9682 0.9675
2713.930736 0.9665 0.9660 0.9660 0.9660 0.9660
2718.615311 0.9660 0.9660 0.9660 0.9660 0.9665
2723.299887 0.9675 0.9683 0.9688 0.9690 0.9690
2727.984462 0.9690 0.9690 0.9690 0.9690 0.9687
2732.669037 0.9682 0.9680 0.9680 0.9680 0.9680
2737.353613 0.9680 0.9680 0.9680 0.9680 0.9680
2742.038188 0.9680 0.9682 0.9687 0.9690 0.9690
2746.722763 0.9690 0.9690 0.9690 0.9690 0.9690
2751.407339 0.9690 0.9690 0.9690 0.9690 0.9690
2756.091914 0.9690 0.9690 0.9690 0.9690 0.9690
2760.776489 0.9690 0.9690 0.9690 0.9690 0.9690
2765.461065 0.9690 0.9690 0.9690 0.9690 0.9695
2770.145640 0.9705 0.9710 0.9710 0.9710 0.9710
2774.830215 0.9710 0.9710 0.9710 0.9710 0.9710
2779.514791 0.9710 0.9710 0.9710 0.9710 0.9710
2784.199366 0.9710 0.9710 0.9710 0.9710 0.9705
2788.883941 0.9695 0.9690 0.9690 0.9690 0.9690
2793.568517 0.9688 0.9683 0.9680 0.9680 0.9680
2798.253092 0.9680 0.9680 0.9680 0.9680 0.9680
2802.937667 0.9680 0.9680 0.9680 0.9680 0.9675
2807.622243 0.9665 0.9660 0.9660 0.9660 0.9660
2812.306818 0.9660 0.9660 0.9660 0.9660 0.9660
2816.991393 0.9660 0.9660 0.9660 0.9660 0.9660
2821.675969 0.9660 0.9660 0.9660 0.9660 0.9658
2826.360544 0.9653 0.9650 0.9650 0.9650 0.9650
2831.045119 0.9650 0.9650 0.9646 0.9636 0.9630
2835.729695 0.9630 0.9630 0.9630 0.9630 0.9630
2840.414270 0.9628 0.9623 0.9616 0.9606 0.9600
2845.098845 0.9600 0.9600 0.9600 0.9600 0.9600
2849.783421 0.9600 0.9600 0.9598 0.9593 0.9590
2854.467996 0.9590 0.9590 0.9590 0.9588 0.9583
2859.152571 0.9580 0.9580 0.9576 0.9566 0.9554
2863.837147 0.9539 0.9524 0.9509 0.9498 0.9493
2868.521722 0.9486 0.9476 0.9453 0.9414 0.9376
2873.206297 0.9341 0.9308 0.9278 0.9254 0.9239
2877.890873 0.9222 0.9202 0.9158 0.9077 0.9011
2882.575448 0.8966 0.8887 0.8757 0.8660 0.8610
2887.260023 0.8566 0.8531 0.8492 0.8447 0.8331
2891.944599 0.8106 0.7899 0.7719 0.7565 0.7450
2896.629174 0.7318 0.7158 0.6998 0.6836 0.6642
2901.313750 0.6397 0.6176 0.5992 0.5797 0.5587
2905.998325 0.5384 0.5189 0.5070 0.5070 0.5145
2910.682900 0.5340 0.5534 0.5729 0.5926 0.6125
2915.367476 0.6323 0.6518 0.6781 0.7159 0.7394
2920.052051 0.7404 0.7242 0.6808 0.6309 0.5705
2924.736626 0.5118 0.4559 0.4210 0.4210 0.4329
2929.421202 0.4649 0.4926 0.5130 0.5315 0.5465
2934.105777 0.5562 0.5567 0.5835 0.6571 0.7299
2938.790352 0.8013 0.8639 0.9118 0.9464 0.9584
2943.474928 0.9660 0.9660 0.9664 0.9674 0.9680
2948.159503 0.9680 0.9680 0.9680 0.9682 0.9687
2952.844078 0.9690 0.9690 0.9690 0.9690 0.9690
2957.528654 0.9690 0.9690 0.9690 0.9690 0.9690
2962.213229 0.9690 0.9690 0.9690 0.9690 0.9690
2966.897804 0.9690 0.9690 0.9690 0.9688 0.9683
2971.582380 0.9680 0.9680 0.9680 0.9680 0.9680
2976.266955 0.9680 0.9680 0.9680 0.9680 0.9680
2980.951530 0.9677 0.9667 0.9660 0.9660 0.9660
2985.636106 0.9660 0.9660 0.9660 0.9660 0.9660
2990.320681 0.9663 0.9673 0.9677 0.9667 0.9660
2995.005256 0.9660 0.9660 0.9660 0.9660 0.9660
2999.689832 0.9658 0.9653 0.9650 0.9650 0.9650
3004.374407 0.9650 0.9650 0.9650 0.9647 0.9637
3009.058982 0.9630 0.9630 0.9630 0.9630 0.9628
3013.743558 0.9623 0.9620 0.9620 0.9620 0.9620
3018.428133 0.9620 0.9620 0.9620 0.9620 0.9620
3023.112708 0.9620 0.9617 0.9607 0.9600 0.9600
3027.797284 0.9600 0.9600 0.9600 0.9600 0.9600
3032.481859 0.9600 0.9603 0.9613 0.9620 0.9620
3037.166434 0.9620 0.9620 0.9620 0.9620 0.9620
3041.851010 0.9620 0.9620 0.9620 0.9620 0.9620
3046.535585 0.9620 0.9620 0.9620 0.9620 0.9620
3051.220160 0.9620 0.9617 0.9607 0.9600 0.9600
3055.904736 0.9600 0.9600 0.9600 0.9600 0.9600
3060.589311 0.9600 0.9599 0.9594 0.9589 0.9584
3065.273886 0.9580 0.9580 0.9580 0.9580 0.9577
3069.958462 0.9567 0.9547 0.9502 0.9456 0.9406
3074.643037 0.9369 0.9364 0.9352 0.9322 0.9292
3079.327612 0.9262 0.9233 0.9208 0.9186 0.9171
3084.012188 0.9157 0.9147 0.9147 0.9172 0.9200
3088.696763 0.9235 0.9270 0.9305 0.9339 0.9374
3093.381338 0.9404 0.9419 0.9418 0.9373 0.9327
3098.065914 0.9277 0.9230 0.9190 0.9152 0.9122
3102.750489 0.9096 0.9081 0.9071 0.9076 0.9088
3107.435064 0.9118 0.9153 0.9203 0.9257 0.9322
3112.119640 0.9383 0.9433 0.9480 0.9520 0.9554
3116.804215 0.9569 0.9581 0.9586 0.9590 0.9590
3121.488790 0.9590 0.9590 0.9590 0.9590 0.9590
3126.173366 0.9590 0.9590 0.9590 0.9590 0.9590
3130.857941 0.9590 0.9590 0.9590 0.9590 0.9590
3135.542516 0.9590 0.9590 0.9590 0.9590 0.9590
3140.227092 0.9590 0.9590 0.9590 0.9590 0.9590
3144.911667 0.9590 0.9590 0.9590 0.9590 0.9590
3149.596242 0.9589 0.9584 0.9580 0.9580 0.9580
3154.280818 0.9580 0.9580 0.9580 0.9580 0.9580
3158.965393 0.9580 0.9580 0.9580 0.9580 0.9580
3163.649968 0.9580 0.9580 0.9580 0.9580 0.9580
3168.334544 0.9580 0.9580 0.9580 0.9580 0.9580
3173.019119 0.9580 0.9580 0.9580 0.9580 0.9580
3177.703694 0.9580 0.9580 0.9578 0.9568 0.9560
3182.388270 0.9560 0.9560 0.9560 0.9560 0.9560
3187.072845 0.9560 0.9560 0.9560 0.9560 0.9559
3191.757420 0.9554 0.9550 0.9550 0.9550 0.9550
3196.441996 0.9550 0.9550 0.9550 0.9550 0.9550
3201.126571 0.9550 0.9550 0.9550 0.9550 0.9550
3205.811146 0.9550 0.9550 0.9550 0.9550 0.9548
3210.495722 0.9538 0.9530 0.9530 0.9530 0.9530
3215.180297 0.9530 0.9530 0.9530 0.9530 0.9530
3219.864872 0.9530 0.9530 0.9530 0.9529 0.9524
3224.549448 0.9520 0.9520 0.9520 0.9520 0.9520
3229.234023 0.9520 0.9520 0.9520 0.9518 0.9508
3233.918598 0.9500 0.9500 0.9500 0.9500 0.9500
3238.603174 0.9500 0.9500 0.9500 0.9500 0.9500
3243.287749 0.9499 0.9494 0.9490 0.9490 0.9490
3247.972324 0.9490 0.9490 0.9490 0.9490 0.9490
3252.656900 0.9490 0.9490 0.9490 0.9490 0.9490
3257.341475 0.9490 0.9490 0.9490 0.9490 0.9490
3262.026050 0.9488 0.9478 0.9470 0.9470 0.9470
3266.710626 0.9470 0.9470 0.9470 0.9470 0.9470
3271.395201 0.9470 0.9470 0.9470 0.9470 0.9470
3276.079776 0.9470 0.9470 0.9470 0.9470 0.9470
3280.764352 0.9469 0.9464 0.9460 0.9460 0.9460
3285.448927 0.9460 0.9460 0.9460 0.9460 0.9460
3290.133502 0.9460 0.9460 0.9460 0.9460 0.9460
3294.818078 0.9460 0.9460 0.9460 0.9460 0.9460
3299.502653 0.9460 0.9460 0.9460 0.9460 0.9459
3304.187228 0.9454 0.9450 0.9450 0.9450 0.9450
3308.871804 0.9449 0.9439 0.9430 0.9430 0.9431
3313.556379 0.9441 0.9450 0.9450 0.9449 0.9439
3318.240954 0.9430 0.9430 0.9430 0.9430 0.9430
3322.925530 0.9430 0.9431 0.9441 0.9449 0.9439
3327.610105 0.9430 0.9430 0.9430 0.9430 0.9430
3332.294680 0.9430 0.9430 0.9430 0.9430 0.9430
3336.979256 0.9430 0.9430 0.9430 0.9430 0.9430
3341.663831 0.9430 0.9430 0.9430 0.9430 0.9430
3346.348406 0.9430 0.9430 0.9430 0.9430 0.9431
3351.032982 0.9441 0.9450 0.9450 0.9450 0.9450
3355.717557 0.9450 0.9450 0.9450 0.9450 0.9450
3360.402132 0.9455 0.9460 0.9460 0.9460 0.9460
3365.086708 0.9460 0.9460 0.9460 0.9460 0.9460
3369.771283 0.9460 0.9460 0.9460 0.9460 0.9460
3374.455858 0.9460 0.9460 0.9460 0.9460 0.9460
3379.140434 0.9460 0.9460 0.9465 0.9470 0.9470
3383.825009 0.9470 0.9470 0.9470 0.9470 0.9471
3388.509584 0.9481 0.9490 0.9490 0.9490 0.9490
3393.194160 0.9490 0.9490 0.9490 0.9490 0.9490
3397.878735 0.9490 0.9490 0.9490 0.9490 0.9490
3402.563310 0.9490 0.9490 0.9490 0.9490 0.9490
3407.247886 0.9495 0.9500 0.9500 0.9500 0.9500
3411.932461 0.9500 0.9500 0.9501 0.9510 0.9520
3416.617036 0.9520 0.9520 0.9520 0.9520 0.9520
3421.301612 0.9520 0.9525 0.9530 0.9530 0.9530
3425.986187 0.9530 0.9530 0.9540 0.9550 0.9550
3430.670762 0.9550 0.9550 0.9550 0.9555 0.9560
3435.355338 0.9560 0.9560 0.9560 0.9560 0.9570
3440.039913 0.9580 0.9580 0.9580 0.9580 0.9580
3444.724488 0.9580 0.9580 0.9585 0.9590 0.9590
3449.409064 0.9590 0.9590 0.9590 0.9595 0.9600
3454.093639 0.9600 0.9600 0.9600 0.9600 0.9610
3458.778214 0.9620 0.9620 0.9620 0.9620 0.9620
3463.462790 0.9620 0.9620 0.9625 0.9630 0.9630
3468.147365 0.9630 0.9630 0.9630 0.9640 0.9650
3472.831940 0.9650 0.9650 0.9650 0.9650 0.9655
3477.516516 0.9660 0.9660 0.9660 0.9660 0.9660
3482.201091 0.9670 0.9680 0.9680 0.9680 0.9680
3486.885666 0.9680 0.9685 0.9690 0.9690 0.9690
3491.570242 0.9690 0.9690 0.9700 0.9710 0.9710
3496.254817 0.9710 0.9715 0.9720 0.9720 0.9720
3500.939392 0.9720 0.9720 0.9720 0.9720 0.9720
3505.623968 0.9720 0.9720 0.9720 0.9720 0.9720
3510.308543 0.9725 0.9730 0.9730 0.9730 0.9730
3514.993118 0.9730 0.9730 0.9730 0.9740 0.9750
3519.677694 0.9740 0.9730 0.9740 0.9750 0.9750
3524.362269 0.9750 0.9750 0.9750 0.9750 0.9750
3529.046844 0.9755 0.9760 0.9760 0.9760 0.9760
3533.731420 0.9760 0.9760 0.9760 0.9760 0.9760
3538.415995 0.9760 0.9760 0.9760 0.9760 0.9760
3543.100570 0.9760 0.9760 0.9760 0.9760 0.9760
3547.785146 0.9760 0.9760 0.9760 0.9760 0.9760
3552.469721 0.9760 0.9760 0.9760 0.9760 0.9760
3557.154296 0.9760 0.9760 0.9760 0.9760 0.9755
3561.838872 0.9750 0.9750 0.9750 0.9750 0.9750
3566.523447 0.9741 0.9731 0.9730 0.9730 0.9730
3571.208022 0.9730 0.9721 0.9711 0.9701 0.9690
3575.892598 0.9690 0.9690 0.9685 0.9680 0.9680
3580.577173 0.9680 0.9680 0.9680 0.9680 0.9680
3585.261748 0.9680 0.9680 0.9680 0.9680 0.9685
3589.946324 0.9690 0.9699 0.9709 0.9715 0.9720
3594.630899 0.9720 0.9720 0.9725 0.9730 0.9730
3599.315474 0.9730 0.9730 0.9730 0.9721 0.9711
3604.000050 0.9701 0.9691 0.9690 0.9690 0.9690
3608.684625 0.9690 0.9685 0.9680 0.9671 0.9661
3613.369200 0.9660 0.9660 0.9660 0.9660 0.9669
3618.053776 0.9679 0.9685 0.9690 0.9704 0.9719
3622.738351 0.9734 0.9749 0.9764 0.9779 0.9771
3627.422926 0.9761 0.9769 0.9779 0.9785 0.9790
3632.107502 0.9790 0.9790 0.9790 0.9790 0.9790
3636.792077 0.9790 0.9790 0.9790 0.9799 0.9809
3641.476652 0.9810 0.9810 0.9810 0.9810 0.9810
3646.161228 0.9810 0.9810 0.9810 0.9810 0.9810
3650.845803 0.9801 0.9791 0.9790 0.9790 0.9786
3655.530378 0.9781 0.9780 0.9780 0.9771 0.9761
3660.214954 0.9756 0.9751 0.9750 0.9750 0.9750
3664.899529 0.9750 0.9741 0.9731 0.9730 0.9730
3669.584104 0.9721 0.9711 0.9697 0.9682 0.9667
3674.268680 0.9652 0.9641 0.9631 0.9617 0.9602
3678.953255 0.9596 0.9591 0.9586 0.9581 0.9571
3683.637830 0.9561 0.9560 0.9560 0.9569 0.9579
3688.322406 0.9580 0.9580 0.9584 0.9589 0.9620
3693.006981 0.9655 0.9660 0.9660 0.9669 0.9679
3697.691556 0.9697 0.9717 0.9720 0.9720 0.9703
3702.376132 0.9683 0.9646 0.9606 0.9596 0.9591
3707.060707 0.9586 0.9581 0.9571 0.9561 0.9547
3711.745282 0.9532 0.9530 0.9530 0.9526 0.9521
3716.429858 0.9520 0.9520 0.9537 0.9557 0.9573
3721.114433 0.9588 0.9590 0.9590 0.9586 0.9581
3725.799008 0.9580 0.9580 0.9572 0.9562 0.9556
3730.483584 0.9551 0.9550 0.9550 0.9550 0.9550
3735.168159 0.9550 0.9550 0.9542 0.9532 0.9530
3739.852734 0.9530 0.9542 0.9557 0.9597 0.9643
3744.537310 0.9650 0.9650 0.9663 0.9678 0.9672
3749.221885 0.9662 0.9656 0.9651 0.9638 0.9623
3753.906460 0.9591 0.9556 0.9530 0.9505 0.9500
3758.591036 0.9500 0.9520 0.9545 0.9579 0.9614
3763.275611 0.9657 0.9702 0.9731 0.9756 0.9772
3767.960186 0.9787 0.9798 0.9808 0.9810 0.9810
3772.644762 0.9810 0.9810 0.9802 0.9792 0.9790
3777.329337 0.9790 0.9798 0.9808 0.9810 0.9810
3782.013912 0.9810 0.9810 0.9810 0.9810 0.9810
3786.698488 0.9810 0.9810 0.9810 0.9810 0.9810
3791.383063 0.9810 0.9810 0.9810 0.9810 0.9810
3796.067638 0.9810 0.9810 0.9810 0.9802 0.9792
##END=
