##TITLE=Butylbromide, tert-
##JCAMP-DX=4.24
##DATA TYPE=INFRARED SPECTRUM
##CLASS=COBLENTZ III
##ORIGIN=SOUTHERN RESEARCH INSTITUTE
##OWNER=Copyright (C) 1987 by the Coblentz Society
Collection (C) 2018 copyright by the U.S. Secretary of Commerce
on behalf of the United States of America. All rights reserved.
##DATE=1957/11/29
##NAMES=2-bromo-2-methylpropane
2-BROMO-2-METHYLPROPANE
##CAS REGISTRY NO=507-19-7
##MOLFORM=C4 H9 Br
##SOURCE REFERENCE=COBLENTZ NO. 7874
##$NIST SOURCE=COBLENTZ
##$NIST IMAGE=cob7874
##SPECTROMETER/DATA SYSTEM=PERKIN-ELMER 21 (GRATING)
##INSTRUMENT PARAMETERS=FILTER CHANGE ABOUT 1085 CM^-^1
##STATE=GAS
##PATH LENGTH=10 CM CELL
##SAMPLING PROCEDURE=TRANSMISSION
##RESOLUTION=2
##DATA PROCESSING=DIGITIZED BY COBLENTZ SOCIETY (BATCH II) FROM HARD COPY (ADJUSTED \addcm-1\15-12-3\)
##XUNITS=1/CM
##YUNITS=TRANSMITTANCE
##XFACTOR=1.0
##YFACTOR=1
##DELTAX=1.006030
##FIRSTX=605.05
##LASTX=4020.52
##FIRSTY=0.5688
##MAXX=4020.52
##MINX=605.05
##MAXY=0.956463
##MINY=0.00331752
##NPOINTS=3396
##XYDATA=(X++(Y..Y))
605.050000 0.5688 0.5696 0.5704 0.5710 0.5714
610.080152 0.5718 0.5720 0.5721 0.5721 0.5721
615.110305 0.5720 0.5719 0.5715 0.5707 0.5699
620.140457 0.5691 0.5685 0.5678 0.5672 0.5663
625.170609 0.5652 0.5641 0.5630 0.5613 0.5596
630.200761 0.5578 0.5560 0.5538 0.5509 0.5479
635.230914 0.5420 0.5374 0.5339 0.5319 0.5302
640.261066 0.5303 0.5277 0.5276 0.5279 0.5283
645.291218 0.5291 0.5299 0.5307 0.5320 0.5333
650.321370 0.5347 0.5360 0.5374 0.5388 0.5401
655.351523 0.5413 0.5426 0.5438 0.5451 0.5464
660.381675 0.5478 0.5493 0.5508 0.5522 0.5537
665.411827 0.5551 0.5565 0.5580 0.5594 0.5608
670.441979 0.5622 0.5637 0.5651 0.5665 0.5680
675.472132 0.5694 0.5708 0.5722 0.5735 0.5749
680.502284 0.5763 0.5777 0.5791 0.5807 0.5823
685.532436 0.5839 0.5855 0.5871 0.5889 0.5910
690.562588 0.5934 0.5957 0.5980 0.6003 0.6025
695.592741 0.6047 0.6068 0.6089 0.6109 0.6126
700.622893 0.6142 0.6158 0.6173 0.6186 0.6198
705.653045 0.6209 0.6221 0.6233 0.6245 0.6255
710.683197 0.6265 0.6276 0.6288 0.6303 0.6320
715.713350 0.6336 0.6357 0.6382 0.6409 0.6437
720.743502 0.6463 0.6483 0.6498 0.6511 0.6524
725.773654 0.6534 0.6540 0.6545 0.6551 0.6556
730.803806 0.6560 0.6564 0.6568 0.6572 0.6576
735.833959 0.6580 0.6584 0.6587 0.6591 0.6594
740.864111 0.6597 0.6601 0.6605 0.6610 0.6616
745.894263 0.6623 0.6628 0.6631 0.6634 0.6636
750.924415 0.6639 0.6638 0.6635 0.6634 0.6631
755.954568 0.6627 0.6621 0.6613 0.6603 0.6592
760.984720 0.6574 0.6552 0.6528 0.6498 0.6460
766.014872 0.6408 0.6339 0.6270 0.6203 0.6152
771.045024 0.6133 0.6126 0.6132 0.6149 0.6169
776.075177 0.6193 0.6220 0.6242 0.6252 0.6256
781.105329 0.6257 0.6254 0.6249 0.6240 0.6225
786.135481 0.6197 0.6153 0.6081 0.5927 0.5645
791.165633 0.5421 0.5072 0.4773 0.4475 0.4176
796.195786 0.3877 0.3578 0.3214 0.2757 0.2621
801.225938 0.2479 0.2357 0.2325 0.2281 0.2171
806.256090 0.1949 0.1735 0.1590 0.1723 0.2346
811.286242 0.2684 0.2653 0.2581 0.2511 0.2466
816.316395 0.2476 0.2489 0.2584 0.3022 0.3504
821.346547 0.3985 0.4467 0.4948 0.5405 0.5685
826.376699 0.5803 0.5877 0.6012 0.6142 0.6268
831.406851 0.6389 0.6499 0.6566 0.6636 0.6723
836.437004 0.6810 0.6903 0.7000 0.7133 0.7295
841.467156 0.7442 0.7500 0.7551 0.7604 0.7666
846.497308 0.7725 0.7765 0.7799 0.7830 0.7857
851.527461 0.7883 0.7907 0.7931 0.7955 0.7977
856.557613 0.7999 0.8017 0.8034 0.8052 0.8071
861.587765 0.8090 0.8110 0.8129 0.8149 0.8168
866.617917 0.8187 0.8205 0.8221 0.8239 0.8257
871.648070 0.8275 0.8292 0.8310 0.8327 0.8343
876.678222 0.8348 0.8353 0.8357 0.8362 0.8359
881.708374 0.8353 0.8346 0.8333 0.8286 0.8167
886.738526 0.8070 0.8025 0.8000 0.7994 0.8055
891.768679 0.8124 0.8192 0.8261 0.8330 0.8403
896.798831 0.8431 0.8450 0.8460 0.8467 0.8471
901.828983 0.8472 0.8472 0.8472 0.8473 0.8474
906.859135 0.8476 0.8479 0.8491 0.8498 0.8503
911.889288 0.8497 0.8486 0.8474 0.8462 0.8448
916.919440 0.8432 0.8417 0.8398 0.8387 0.8383
921.949592 0.8392 0.8441 0.8487 0.8534 0.8589
926.979744 0.8624 0.8652 0.8665 0.8671 0.8677
932.009897 0.8688 0.8706 0.8738 0.8775 0.8811
937.040049 0.8848 0.8888 0.8924 0.8949 0.8963
942.070201 0.8970 0.8975 0.8978 0.8979 0.8981
947.100353 0.8983 0.8984 0.8985 0.8985 0.8985
952.130506 0.8985 0.8984 0.8983 0.8982 0.8980
957.160658 0.8979 0.8978 0.8975 0.8972 0.8968
962.190810 0.8963 0.8957 0.8951 0.8946 0.8942
967.220962 0.8941 0.8943 0.8948 0.8953 0.8957
972.251115 0.8962 0.8972 0.8984 0.8996 0.9009
977.281267 0.9023 0.9042 0.9062 0.9080 0.9097
982.311419 0.9112 0.9120 0.9121 0.9123 0.9123
987.341571 0.9122 0.9122 0.9121 0.9121 0.9122
992.371724 0.9121 0.9116 0.9115 0.9113 0.9112
997.401876 0.9109 0.9105 0.9101 0.9096 0.9091
1002.432028 0.9085 0.9080 0.9074 0.9066 0.9054
1007.462180 0.9042 0.9030 0.9018 0.9004 0.8986
1012.492333 0.8969 0.8952 0.8934 0.8917 0.8897
1017.522485 0.8870 0.8841 0.8813 0.8787 0.8762
1022.552637 0.8737 0.8712 0.8685 0.8650 0.8608
1027.582789 0.8573 0.8550 0.8532 0.8528 0.8529
1032.612942 0.8531 0.8538 0.8540 0.8540 0.8554
1037.643094 0.8549 0.8544 0.8538 0.8531 0.8524
1042.673246 0.8519 0.8516 0.8518 0.8526 0.8535
1047.703398 0.8552 0.8586 0.8648 0.8726 0.8768
1052.733551 0.8769 0.8770 0.8771 0.8767 0.8763
1057.763703 0.8759 0.8755 0.8750 0.8746 0.8742
1062.793855 0.8738 0.8735 0.8733 0.8732 0.8732
1067.824007 0.8732 0.8732 0.8734 0.8736 0.8739
1072.854160 0.8742 0.8745 0.8751 0.8757 0.8764
1077.884312 0.8770 0.8777 0.8783 0.8787 0.8766
1082.914464 0.8687 0.8609 0.8530 0.8452 0.8381
1087.944617 0.8416 0.8796 0.8897 0.8896 0.8891
1092.974769 0.8876 0.8849 0.8831 0.8802 0.8771
1098.004921 0.8736 0.8717 0.8698 0.8683 0.8671
1103.035073 0.8658 0.8646 0.8630 0.8613 0.8596
1108.065226 0.8555 0.8513 0.8471 0.8428 0.8386
1113.095378 0.8340 0.8294 0.8242 0.8193 0.8131
1118.125530 0.8041 0.7922 0.7806 0.7653 0.7490
1123.155682 0.7375 0.7260 0.7035 0.6796 0.6581
1128.185835 0.5668 0.5322 0.5063 0.3594 0.2957
1133.215987 0.2373 0.1790 0.1207 0.0623 0.0413
1138.246139 0.0282 0.0131 0.0078 0.0063 0.0052
1143.276291 0.0049 0.0048 0.0050 0.0051 0.0054
1148.306444 0.0058 0.0058 0.0055 0.0053 0.0033
1153.336596 0.0047 0.0049 0.0047 0.0046 0.0047
1158.366748 0.0048 0.0050 0.0052 0.0057 0.0070
1163.396900 0.0084 0.0142 0.0440 0.0912 0.1412
1168.427053 0.1912 0.2411 0.2911 0.3411 0.3911
1173.457205 0.4411 0.4911 0.5268 0.5482 0.5598
1178.487357 0.5692 0.5739 0.5744 0.5732 0.5684
1183.517509 0.5625 0.5566 0.5506 0.5447 0.5388
1188.547662 0.5334 0.5282 0.5229 0.5166 0.5096
1193.577814 0.5019 0.4942 0.4876 0.4830 0.4791
1198.607966 0.4748 0.4700 0.4668 0.4653 0.4646
1203.638118 0.4652 0.4650 0.4648 0.4653 0.4690
1208.668271 0.4742 0.4812 0.4917 0.5044 0.5149
1213.698423 0.5250 0.5368 0.5452 0.5482 0.5483
1218.728575 0.5439 0.5364 0.5294 0.5224 0.5154
1223.758727 0.5016 0.4708 0.4286 0.3866 0.3445
1228.788880 0.3024 0.2688 0.2562 0.2537 0.2534
1233.819032 0.2531 0.2510 0.2365 0.1986 0.1607
1238.849184 0.1288 0.1213 0.1622 0.3658 0.4396
1243.879336 0.4419 0.4436 0.4453 0.4471 0.4551
1248.909489 0.5301 0.6272 0.6640 0.7809 0.8019
1253.939641 0.8124 0.8228 0.8327 0.8415 0.8492
1258.969793 0.8566 0.8633 0.8700 0.8763 0.8810
1263.999945 0.8841 0.8870 0.8895 0.8911 0.8925
1269.030098 0.8940 0.8951 0.8958 0.8965 0.8971
1274.060250 0.8977 0.8983 0.8990 0.8995 0.8998
1279.090402 0.9002 0.9005 0.9008 0.9010 0.9010
1284.120554 0.9011 0.9011 0.9011 0.9011 0.9011
1289.150707 0.9029 0.9027 0.9007 0.9004 0.9002
1294.180859 0.8999 0.8996 0.8993 0.8988 0.8981
1299.211011 0.8975 0.8969 0.8960 0.8947 0.8933
1304.241163 0.8919 0.8905 0.8893 0.8886 0.8880
1309.271316 0.8875 0.8870 0.8870 0.8870 0.8870
1314.301468 0.8870 0.8871 0.8871 0.8871 0.8871
1319.331620 0.8872 0.8871 0.8858 0.8835 0.8806
1324.361773 0.8784 0.8765 0.8755 0.8750 0.8752
1329.391925 0.8754 0.8761 0.8772 0.8783 0.8795
1334.422077 0.8806 0.8817 0.8828 0.8839 0.8850
1339.452229 0.8859 0.8867 0.8874 0.8876 0.8870
1344.482382 0.8853 0.8832 0.8804 0.8774 0.8735
1349.512534 0.8686 0.8602 0.8404 0.8141 0.7919
1354.542686 0.7793 0.7704 0.7473 0.7021 0.6481
1359.572838 0.5940 0.5400 0.4860 0.4320 0.3779
1364.602991 0.3239 0.2698 0.1734 0.0808 0.0532
1369.633143 0.0381 0.0330 0.0299 0.0277 0.0261
1374.663295 0.0247 0.0235 0.0225 0.0219 0.0214
1379.693447 0.0214 0.0216 0.0209 0.0193 0.0233
1384.723600 0.0243 0.0252 0.0262 0.0294 0.0392
1389.753752 0.0565 0.0864 0.1005 0.1166 0.1430
1394.783904 0.1642 0.2042 0.2615 0.3188 0.3762
1399.814056 0.4335 0.4908 0.5481 0.5730 0.5868
1404.844209 0.5936 0.6002 0.6068 0.6134 0.6187
1409.874361 0.6170 0.6091 0.5987 0.5879 0.5773
1414.904513 0.5723 0.5703 0.5844 0.6134 0.6493
1419.934665 0.6595 0.6676 0.6785 0.6854 0.6918
1424.964818 0.7004 0.7098 0.7165 0.7205 0.7256
1429.994970 0.7412 0.7537 0.7599 0.7600 0.7599
1435.025122 0.7584 0.7591 0.7529 0.7436 0.7312
1440.055274 0.7144 0.7021 0.6898 0.6728 0.6397
1445.085427 0.6007 0.5614 0.5223 0.4831 0.4439
1450.115579 0.4048 0.3656 0.3263 0.2869 0.1710
1455.145731 0.1560 0.1443 0.1337 0.1159 0.1061
1460.175883 0.0993 0.0980 0.0974 0.0974 0.0974
1465.206036 0.0983 0.0989 0.0999 0.1040 0.1113
1470.236188 0.1187 0.1272 0.1293 0.1312 0.1337
1475.266340 0.1371 0.1437 0.1728 0.2043 0.2344
1480.296492 0.2464 0.2467 0.2468 0.2471 0.2478
1485.326645 0.2486 0.2529 0.2820 0.3163 0.3488
1490.356797 0.3645 0.3687 0.3721 0.3841 0.4211
1495.386949 0.4581 0.4951 0.5321 0.5691 0.6061
1500.417101 0.6431 0.6778 0.6990 0.7246 0.7874
1505.447254 0.8360 0.8429 0.8497 0.8555 0.8637
1510.477406 0.8835 0.9075 0.9140 0.9204 0.9266
1515.507558 0.9325 0.9369 0.9410 0.9439 0.9453
1520.537710 0.9467 0.9481 0.9495 0.9507 0.9509
1525.567863 0.9509 0.9513 0.9523 0.9503 0.9500
1530.598015 0.9497 0.9493 0.9490 0.9486 0.9479
1535.628167 0.9473 0.9468 0.9463 0.9459 0.9454
1540.658319 0.9449 0.9445 0.9441 0.9438 0.9435
1545.688472 0.9434 0.9435 0.9437 0.9444 0.9452
1550.718624 0.9460 0.9468 0.9476 0.9484 0.9490
1555.748776 0.9491 0.9489 0.9486 0.9481 0.9477
1560.778928 0.9472 0.9464 0.9458 0.9465 0.9474
1565.809081 0.9483 0.9492 0.9496 0.9500 0.9502
1570.839233 0.9500 0.9498 0.9495 0.9491 0.9486
1575.869385 0.9479 0.9471 0.9461 0.9449 0.9436
1580.899538 0.9423 0.9411 0.9400 0.9390 0.9383
1585.929690 0.9377 0.9372 0.9368 0.9367 0.9366
1590.959842 0.9365 0.9363 0.9362 0.9361 0.9361
1595.989994 0.9360 0.9359 0.9358 0.9358 0.9357
1601.020147 0.9356 0.9356 0.9357 0.9358 0.9359
1606.050299 0.9360 0.9361 0.9361 0.9362 0.9363
1611.080451 0.9364 0.9365 0.9365 0.9362 0.9360
1616.110603 0.9357 0.9354 0.9351 0.9347 0.9343
1621.140756 0.9340 0.9336 0.9333 0.9330 0.9327
1626.170908 0.9324 0.9321 0.9319 0.9319 0.9321
1631.201060 0.9330 0.9343 0.9353 0.9361 0.9363
1636.231212 0.9363 0.9363 0.9362 0.9361 0.9360
1641.261365 0.9358 0.9356 0.9354 0.9351 0.9347
1646.291517 0.9338 0.9315 0.9284 0.9252 0.9220
1651.321669 0.9196 0.9180 0.9168 0.9160 0.9154
1656.351821 0.9149 0.9145 0.9141 0.9137 0.9134
1661.381974 0.9132 0.9130 0.9129 0.9127 0.9125
1666.412126 0.9123 0.9119 0.9114 0.9111 0.9107
1671.442278 0.9104 0.9101 0.9097 0.9095 0.9093
1676.472430 0.9092 0.9090 0.9089 0.9088 0.9088
1681.502583 0.9090 0.9094 0.9097 0.9101 0.9105
1686.532735 0.9108 0.9112 0.9115 0.9120 0.9124
1691.562887 0.9129 0.9133 0.9135 0.9136 0.9137
1696.593039 0.9136 0.9132 0.9127 0.9121 0.9112
1701.623192 0.9099 0.9085 0.9069 0.9052 0.9033
1706.653344 0.9012 0.8991 0.8969 0.8946 0.8924
1711.683496 0.8901 0.8879 0.8857 0.8834 0.8816
1716.713648 0.8803 0.8792 0.8781 0.8769 0.8759
1721.743801 0.8751 0.8742 0.8733 0.8727 0.8724
1726.773953 0.8722 0.8720 0.8718 0.8717 0.8715
1731.804105 0.8713 0.8714 0.8715 0.8716 0.8718
1736.834257 0.8721 0.8712 0.8731 0.8743 0.8753
1741.864410 0.8764 0.8774 0.8783 0.8792 0.8801
1746.894562 0.8807 0.8813 0.8818 0.8822 0.8826
1751.924714 0.8829 0.8829 0.8829 0.8830 0.8830
1756.954866 0.8830 0.8830 0.8839 0.8901 0.8931
1761.985019 0.8948 0.8962 0.8975 0.8989 0.9007
1767.015171 0.9024 0.9049 0.9074 0.9100 0.9105
1772.045323 0.9108 0.9111 0.9114 0.9113 0.9113
1777.075475 0.9112 0.9112 0.9111 0.9109 0.9107
1782.105628 0.9106 0.9106 0.9111 0.9117 0.9122
1787.135780 0.9129 0.9135 0.9143 0.9151 0.9158
1792.165932 0.9166 0.9175 0.9183 0.9191 0.9198
1797.196084 0.9204 0.9209 0.9215 0.9220 0.9226
1802.226237 0.9231 0.9237 0.9242 0.9247 0.9251
1807.256389 0.9255 0.9259 0.9263 0.9267 0.9272
1812.286541 0.9276 0.9281 0.9288 0.9295 0.9302
1817.316694 0.9309 0.9316 0.9323 0.9328 0.9329
1822.346846 0.9329 0.9316 0.9312 0.9299 0.9285
1827.376998 0.9271 0.9258 0.9244 0.9229 0.9214
1832.407150 0.9199 0.9184 0.9169 0.9155 0.9142
1837.437303 0.9129 0.9116 0.9103 0.9090 0.9077
1842.467455 0.9065 0.9052 0.9040 0.9027 0.9015
1847.497607 0.9003 0.8994 0.8985 0.8979 0.8980
1852.527759 0.8987 0.8995 0.8998 0.8986 0.9039
1857.557912 0.9058 0.9074 0.9088 0.9103 0.9117
1862.588064 0.9129 0.9137 0.9138 0.9139 0.9140
1867.618216 0.9141 0.9148 0.9179 0.9212 0.9237
1872.648368 0.9256 0.9271 0.9282 0.9292 0.9303
1877.678521 0.9313 0.9321 0.9328 0.9336 0.9344
1882.708673 0.9350 0.9354 0.9358 0.9361 0.9364
1887.738825 0.9364 0.9364 0.9365 0.9365 0.9363
1892.768977 0.9360 0.9357 0.9355 0.9352 0.9349
1897.799130 0.9346 0.9342 0.9339 0.9335 0.9332
1902.829282 0.9328 0.9325 0.9321 0.9317 0.9313
1907.859434 0.9308 0.9304 0.9299 0.9295 0.9291
1912.889586 0.9287 0.9281 0.9275 0.9270 0.9264
1917.919739 0.9258 0.9252 0.9247 0.9244 0.9241
1922.949891 0.9239 0.9236 0.9235 0.9234 0.9236
1927.980043 0.9237 0.9239 0.9241 0.9244 0.9248
1933.010195 0.9254 0.9261 0.9267 0.9274 0.9280
1938.040348 0.9286 0.9289 0.9291 0.9294 0.9295
1943.070500 0.9295 0.9295 0.9295 0.9292 0.9288
1948.100652 0.9284 0.9281 0.9277 0.9274 0.9272
1953.130804 0.9270 0.9269 0.9268 0.9266 0.9265
1958.160957 0.9264 0.9262 0.9261 0.9261 0.9262
1963.191109 0.9264 0.9266 0.9268 0.9270 0.9272
1968.221261 0.9274 0.9275 0.9277 0.9279 0.9281
1973.251413 0.9283 0.9285 0.9286 0.9288 0.9289
1978.281566 0.9291 0.9293 0.9295 0.9300 0.9306
1983.311718 0.9312 0.9318 0.9324 0.9330 0.9335
1988.341870 0.9341 0.9346 0.9350 0.9354 0.9357
1993.372022 0.9361 0.9364 0.9366 0.9365 0.9364
1998.402175 0.9363 0.9361 0.9368 0.9363 0.9357
2003.432327 0.9354 0.9351 0.9347 0.9344 0.9344
2008.462479 0.9345 0.9346 0.9347 0.9348 0.9349
2013.492631 0.9351 0.9352 0.9353 0.9354 0.9356
2018.522784 0.9357 0.9358 0.9360 0.9361 0.9362
2023.552936 0.9363 0.9364 0.9365 0.9365 0.9366
2028.583088 0.9365 0.9364 0.9363 0.9362 0.9361
2033.613240 0.9360 0.9359 0.9358 0.9357 0.9356
2038.643393 0.9355 0.9354 0.9354 0.9352 0.9350
2043.673545 0.9349 0.9347 0.9346 0.9344 0.9342
2048.703697 0.9341 0.9339 0.9337 0.9336 0.9334
2053.733850 0.9332 0.9331 0.9329 0.9328 0.9326
2058.764002 0.9324 0.9323 0.9322 0.9321 0.9320
2063.794154 0.9320 0.9319 0.9318 0.9318 0.9317
2068.824306 0.9316 0.9315 0.9315 0.9314 0.9313
2073.854459 0.9312 0.9311 0.9310 0.9308 0.9307
2078.884611 0.9306 0.9305 0.9304 0.9302 0.9301
2083.914763 0.9300 0.9299 0.9298 0.9297 0.9295
2088.944915 0.9294 0.9300 0.9306 0.9313 0.9320
2093.975068 0.9327 0.9335 0.9344 0.9353 0.9361
2099.005220 0.9369 0.9377 0.9382 0.9385 0.9387
2104.035372 0.9389 0.9387 0.9385 0.9383 0.9381
2109.065524 0.9379 0.9376 0.9373 0.9371 0.9368
2114.095677 0.9368 0.9367 0.9367 0.9367 0.9366
2119.125829 0.9366 0.9366 0.9366 0.9366 0.9366
2124.155981 0.9366 0.9365 0.9364 0.9362 0.9360
2129.186133 0.9358 0.9357 0.9355 0.9353 0.9351
2134.216286 0.9349 0.9347 0.9344 0.9342 0.9335
2139.246438 0.9329 0.9323 0.9316 0.9307 0.9298
2144.276590 0.9288 0.9278 0.9267 0.9255 0.9243
2149.306742 0.9231 0.9219 0.9205 0.9190 0.9175
2154.336895 0.9160 0.9145 0.9131 0.9116 0.9100
2159.367047 0.9083 0.9065 0.9047 0.9030 0.9012
2164.397199 0.8994 0.8976 0.8954 0.8931 0.8907
2169.427351 0.8884 0.8861 0.8840 0.8820 0.8800
2174.457504 0.8780 0.8760 0.8739 0.8719 0.8708
2179.487656 0.8702 0.8685 0.8717 0.8727 0.8741
2184.517808 0.8759 0.8778 0.8802 0.8839 0.8884
2189.547960 0.8931 0.8974 0.9012 0.9044 0.9076
2194.578113 0.9103 0.9128 0.9154 0.9178 0.9202
2199.608265 0.9223 0.9237 0.9249 0.9255 0.9260
2204.638417 0.9265 0.9270 0.9274 0.9279 0.9283
2209.668569 0.9288 0.9292 0.9297 0.9301 0.9306
2214.698722 0.9311 0.9315 0.9320 0.9323 0.9326
2219.728874 0.9328 0.9331 0.9333 0.9336 0.9337
2224.759026 0.9337 0.9338 0.9339 0.9339 0.9340
2229.789178 0.9340 0.9341 0.9342 0.9342 0.9346
2234.819331 0.9350 0.9342 0.9341 0.9341 0.9340
2239.849483 0.9340 0.9341 0.9342 0.9343 0.9344
2244.879635 0.9347 0.9354 0.9360 0.9367 0.9373
2249.909787 0.9379 0.9385 0.9390 0.9394 0.9397
2254.939940 0.9400 0.9403 0.9405 0.9403 0.9402
2259.970092 0.9401 0.9400 0.9397 0.9391 0.9385
2265.000244 0.9378 0.9372 0.9366 0.9360 0.9351
2270.030396 0.9340 0.9329 0.9317 0.9302 0.9286
2275.060549 0.9270 0.9254 0.9238 0.9221 0.9203
2280.090701 0.9186 0.9168 0.9150 0.9132 0.9114
2285.120853 0.9096 0.9079 0.9063 0.9046 0.9030
2290.151006 0.9013 0.8997 0.8983 0.8969 0.8956
2295.181158 0.8943 0.8930 0.8921 0.8917 0.8912
2300.211310 0.8912 0.8901 0.8912 0.8946 0.8985
2305.241462 0.9041 0.9093 0.9135 0.9174 0.9217
2310.271615 0.9265 0.9306 0.9340 0.9373 0.9409
2315.301767 0.9446 0.9481 0.9502 0.9516 0.9531
2320.331919 0.9544 0.9551 0.9554 0.9557 0.9560
2325.362071 0.9563 0.9565 0.9553 0.9556 0.9561
2330.392224 0.9559 0.9554 0.9548 0.9543 0.9537
2335.422376 0.9529 0.9517 0.9505 0.9493 0.9480
2340.452528 0.9467 0.9450 0.9429 0.9408 0.9388
2345.482680 0.9368 0.9347 0.9325 0.9303 0.9281
2350.512833 0.9260 0.9237 0.9214 0.9192 0.9176
2355.542985 0.9161 0.9150 0.9144 0.9139 0.9134
2360.573137 0.9129 0.9123 0.9116 0.9109 0.9101
2365.603289 0.9094 0.9086 0.9077 0.9067 0.9056
2370.633442 0.9045 0.9034 0.9023 0.9012 0.9000
2375.663594 0.8987 0.8975 0.8962 0.8950 0.8937
2380.693746 0.8925 0.8912 0.8900 0.8886 0.8872
2385.723898 0.8858 0.8844 0.8830 0.8815 0.8801
2390.754051 0.8787 0.8772 0.8758 0.8744 0.8730
2395.784203 0.8715 0.8704 0.8696 0.8688 0.8688
2400.814355 0.8677 0.8680 0.8685 0.8694 0.8703
2405.844507 0.8713 0.8723 0.8732 0.8745 0.8761
2410.874660 0.8776 0.8791 0.8811 0.8833 0.8855
2415.904812 0.8878 0.8896 0.8915 0.8934 0.8941
2420.934964 0.8943 0.8943 0.8943 0.8943 0.8946
2425.965116 0.8947 0.8948 0.8974 0.9013 0.9061
2430.995269 0.9101 0.9124 0.9131 0.9137 0.9143
2436.025421 0.9147 0.9149 0.9151 0.9153 0.9155
2441.055573 0.9157 0.9159 0.9160 0.9162 0.9162
2446.085725 0.9162 0.9161 0.9161 0.9160 0.9160
2451.115878 0.9159 0.9159 0.9159 0.9158 0.9158
2456.146030 0.9158 0.9159 0.9159 0.9160 0.9161
2461.176182 0.9162 0.9166 0.9171 0.9175 0.9180
2466.206334 0.9188 0.9195 0.9203 0.9211 0.9218
2471.236487 0.9226 0.9235 0.9243 0.9252 0.9254
2476.266639 0.9255 0.9256 0.9257 0.9258 0.9252
2481.296791 0.9245 0.9237 0.9228 0.9214 0.9200
2486.326943 0.9186 0.9179 0.9173 0.9168 0.9168
2491.357096 0.9168 0.9169 0.9169 0.9171 0.9172
2496.387248 0.9175 0.9186 0.9196 0.9207 0.9214
2501.417400 0.9217 0.9236 0.9221 0.9220 0.9220
2506.447552 0.9219 0.9218 0.9218 0.9217 0.9216
2511.477705 0.9216 0.9215 0.9214 0.9214 0.9213
2516.507857 0.9213 0.9212 0.9211 0.9211 0.9210
2521.538009 0.9209 0.9209 0.9208 0.9207 0.9207
2526.568162 0.9206 0.9205 0.9205 0.9204 0.9204
2531.598314 0.9203 0.9202 0.9202 0.9201 0.9200
2536.628466 0.9200 0.9199 0.9198 0.9198 0.9197
2541.658618 0.9197 0.9196 0.9195 0.9195 0.9191
2546.688771 0.9187 0.9184 0.9180 0.9176 0.9173
2551.718923 0.9169 0.9166 0.9162 0.9158 0.9156
2556.749075 0.9153 0.9151 0.9148 0.9145 0.9143
2561.779227 0.9140 0.9136 0.9131 0.9127 0.9122
2566.809380 0.9118 0.9113 0.9108 0.9102 0.9095
2571.839532 0.9089 0.9082 0.9075 0.9069 0.9060
2576.869684 0.9050 0.9040 0.9030 0.9019 0.9009
2581.899836 0.8998 0.8983 0.8967 0.8951 0.8935
2586.929989 0.8919 0.8903 0.8884 0.8865 0.8846
2591.960141 0.8827 0.8808 0.8788 0.8768 0.8748
2596.990293 0.8728 0.8709 0.8696 0.8684 0.8674
2602.020445 0.8673 0.8676 0.8678 0.8680 0.8682
2607.050598 0.8686 0.8689 0.8692 0.8691 0.8686
2612.080750 0.8677 0.8661 0.8647 0.8635 0.8623
2617.110902 0.8614 0.8610 0.8607 0.8605 0.8602
2622.141054 0.8600 0.8598 0.8596 0.8597 0.8597
2627.171207 0.8601 0.8614 0.8630 0.8648 0.8672
2632.201359 0.8697 0.8719 0.8740 0.8761 0.8780
2637.231511 0.8799 0.8817 0.8836 0.8854 0.8862
2642.261663 0.8866 0.8866 0.8864 0.8866 0.8853
2647.291816 0.8848 0.8843 0.8839 0.8832 0.8825
2652.321968 0.8818 0.8811 0.8806 0.8801 0.8798
2657.352120 0.8798 0.8807 0.8812 0.8807 0.8798
2662.382272 0.8786 0.8771 0.8755 0.8738 0.8721
2667.412425 0.8703 0.8688 0.8673 0.8659 0.8644
2672.442577 0.8629 0.8616 0.8603 0.8590 0.8577
2677.472729 0.8564 0.8551 0.8538 0.8526 0.8513
2682.502881 0.8500 0.8488 0.8475 0.8462 0.8451
2687.533034 0.8443 0.8436 0.8434 0.8438 0.8442
2692.563186 0.8447 0.8454 0.8465 0.8477 0.8488
2697.593338 0.8496 0.8504 0.8511 0.8512 0.8506
2702.623490 0.8499 0.8487 0.8476 0.8463 0.8449
2707.653643 0.8432 0.8415 0.8397 0.8376 0.8350
2712.683795 0.8323 0.8295 0.8265 0.8233 0.8195
2717.713947 0.8147 0.8098 0.8045 0.7990 0.7934
2722.744099 0.7875 0.7805 0.7718 0.7621 0.7545
2727.774252 0.7497 0.7457 0.7436 0.7420 0.7414
2732.804404 0.7412 0.7409 0.7415 0.7439 0.7469
2737.834556 0.7506 0.7554 0.7616 0.7687 0.7744
2742.864708 0.7792 0.7855 0.7931 0.8008 0.8105
2747.894861 0.8191 0.8239 0.8276 0.8306 0.8331
2752.925013 0.8351 0.8371 0.8392 0.8410 0.8424
2757.955165 0.8433 0.8436 0.8437 0.8424 0.8417
2762.985318 0.8408 0.8396 0.8380 0.8361 0.8342
2768.015470 0.8322 0.8295 0.8259 0.8219 0.8173
2773.045622 0.8124 0.8069 0.8016 0.7968 0.7921
2778.075774 0.7873 0.7821 0.7770 0.7738 0.7715
2783.105927 0.7696 0.7677 0.7659 0.7644 0.7633
2788.136079 0.7623 0.7616 0.7609 0.7603 0.7599
2793.166231 0.7593 0.7583 0.7565 0.7523 0.7454
2798.196383 0.7378 0.7317 0.7258 0.7201 0.7147
2803.226536 0.7096 0.7051 0.7008 0.6960 0.6908
2808.256688 0.6857 0.6809 0.6767 0.6726 0.6686
2813.286840 0.6645 0.6604 0.6563 0.6522 0.6484
2818.316992 0.6448 0.6412 0.6377 0.6344 0.6308
2823.347145 0.6263 0.6203 0.6136 0.6032 0.5894
2828.377297 0.5784 0.5697 0.5629 0.5567 0.5481
2833.407449 0.5315 0.5101 0.4887 0.4672 0.4459
2838.437601 0.4245 0.4031 0.3816 0.3631 0.3465
2843.467754 0.3152 0.2764 0.2499 0.2298 0.2165
2848.497906 0.2068 0.1945 0.1821 0.1739 0.1678
2853.528058 0.1624 0.1584 0.1552 0.1520 0.1489
2858.558210 0.1454 0.1412 0.1368 0.1324 0.1280
2863.588363 0.1235 0.1188 0.1141 0.1100 0.1068
2868.618515 0.1040 0.1011 0.0983 0.0956 0.0928
2873.648667 0.0901 0.0874 0.0856 0.0845 0.0834
2878.678819 0.0823 0.0812 0.0802 0.0794 0.0786
2883.708972 0.0778 0.0771 0.0762 0.0750 0.0735
2888.739124 0.0721 0.0706 0.0688 0.0665 0.0641
2893.769276 0.0617 0.0587 0.0549 0.0513 0.0479
2898.799428 0.0445 0.0405 0.0352 0.0285 0.0233
2903.829581 0.0206 0.0191 0.0183 0.0176 0.0170
2908.859733 0.0167 0.0165 0.0162 0.0160 0.0158
2913.889885 0.0159 0.0159 0.0159 0.0159 0.0159
2918.920037 0.0160 0.0160 0.0160 0.0160 0.0160
2923.950190 0.0159 0.0158 0.0157 0.0156 0.0154
2928.980342 0.0153 0.0153 0.0152 0.0152 0.0151
2934.010494 0.0152 0.0155 0.0158 0.0161 0.0164
2939.040646 0.0170 0.0177 0.0184 0.0194 0.0206
2944.070799 0.0218 0.0229 0.0239 0.0248 0.0255
2949.100951 0.0255 0.0261 0.0266 0.0265 0.0258
2954.131103 0.0246 0.0232 0.0215 0.0196 0.0177
2959.161255 0.0159 0.0144 0.0137 0.0137 0.0142
2964.191408 0.0148 0.0159 0.0177 0.0186 0.0187
2969.221560 0.0185 0.0184 0.0181 0.0179 0.0174
2974.251712 0.0168 0.0164 0.0164 0.0165 0.0168
2979.281864 0.0173 0.0177 0.0180 0.0185 0.0192
2984.312017 0.0198 0.0206 0.0221 0.0247 0.0276
2989.342169 0.0305 0.0335 0.0367 0.0400 0.0432
2994.372321 0.0466 0.0501 0.0535 0.0584 0.0651
2999.402473 0.0718 0.0780 0.0866 0.0996 0.1201
3004.432626 0.1344 0.1435 0.1521 0.1611 0.1863
3009.462778 0.2194 0.2525 0.2856 0.3187 0.3518
3014.492930 0.3849 0.4180 0.4512 0.4736 0.4963
3019.523083 0.5115 0.5209 0.5305 0.5471 0.5668
3024.553235 0.5864 0.6054 0.6224 0.6411 0.6571
3029.583387 0.6704 0.6820 0.6917 0.6984 0.7023
3034.613539 0.7045 0.7061 0.7072 0.7095 0.7094
3039.643692 0.7086 0.7075 0.7062 0.7048 0.7034
3044.673844 0.7019 0.7006 0.6994 0.6981 0.6968
3049.703996 0.6957 0.6952 0.6949 0.6946 0.6949
3054.734148 0.6963 0.6968 0.6975 0.6996 0.7024
3059.764301 0.7056 0.7091 0.7128 0.7165 0.7202
3064.794453 0.7234 0.7263 0.7292 0.7322 0.7351
3069.824605 0.7392 0.7440 0.7483 0.7521 0.7557
3074.854757 0.7591 0.7617 0.7642 0.7666 0.7682
3079.884910 0.7690 0.7697 0.7703 0.7705 0.7701
3084.915062 0.7698 0.7690 0.7678 0.7663 0.7647
3089.945214 0.7632 0.7614 0.7596 0.7578 0.7566
3094.975366 0.7556 0.7552 0.7549 0.7546 0.7543
3100.005519 0.7541 0.7539 0.7538 0.7537 0.7536
3105.035671 0.7530 0.7512 0.7488 0.7457 0.7424
3110.065823 0.7391 0.7358 0.7326 0.7293 0.7261
3115.095975 0.7224 0.7184 0.7145 0.7115 0.7086
3120.126128 0.7058 0.7030 0.7002 0.6975 0.6948
3125.156280 0.6922 0.6901 0.6880 0.6860 0.6839
3130.186432 0.6819 0.6800 0.6780 0.6762 0.6746
3135.216584 0.6730 0.6714 0.6708 0.6706 0.6706
3140.246737 0.6705 0.6692 0.6711 0.6722 0.6731
3145.276889 0.6741 0.6750 0.6761 0.6771 0.6781
3150.307041 0.6792 0.6802 0.6813 0.6823 0.6834
3155.337193 0.6845 0.6856 0.6867 0.6879 0.6890
3160.367346 0.6901 0.6912 0.6924 0.6935 0.6946
3165.397498 0.6957 0.6972 0.6987 0.7001 0.7016
3170.427650 0.7029 0.7039 0.7050 0.7054 0.7052
3175.457802 0.7048 0.7043 0.7040 0.7037 0.7034
3180.487955 0.7031 0.7028 0.7025 0.7021 0.7021
3185.518107 0.7021 0.7020 0.7020 0.7020 0.7019
3190.548259 0.7019 0.7020 0.7023 0.7025 0.7028
3195.578411 0.7031 0.7034 0.7037 0.7040 0.7043
3200.608564 0.7047 0.7053 0.7060 0.7066 0.7075
3205.638716 0.7085 0.7096 0.7109 0.7126 0.7145
3210.668868 0.7167 0.7190 0.7222 0.7254 0.7272
3215.699020 0.7286 0.7298 0.7307 0.7316 0.7326
3220.729173 0.7339 0.7354 0.7368 0.7372 0.7366
3225.759325 0.7359 0.7351 0.7344 0.7337 0.7329
3230.789477 0.7320 0.7312 0.7304 0.7301 0.7299
3235.819629 0.7296 0.7293 0.7291 0.7288 0.7286
3240.849782 0.7283 0.7281 0.7281 0.7285 0.7288
3245.879934 0.7292 0.7296 0.7306 0.7364 0.7403
3250.910086 0.7445 0.7492 0.7509 0.7518 0.7520
3255.940239 0.7523 0.7546 0.7594 0.7643 0.7692
3260.970391 0.7740 0.7786 0.7830 0.7867 0.7897
3266.000543 0.7928 0.7958 0.8002 0.8045 0.8070
3271.030695 0.8094 0.8106 0.8109 0.8106 0.8142
3276.060848 0.8191 0.8229 0.8255 0.8281 0.8316
3281.091000 0.8352 0.8379 0.8402 0.8422 0.8441
3286.121152 0.8459 0.8478 0.8496 0.8514 0.8527
3291.151304 0.8539 0.8551 0.8560 0.8563 0.8567
3296.181457 0.8571 0.8576 0.8586 0.8595 0.8605
3301.211609 0.8614 0.8621 0.8628 0.8635 0.8640
3306.241761 0.8643 0.8646 0.8649 0.8650 0.8649
3311.271913 0.8647 0.8646 0.8645 0.8644 0.8644
3316.302066 0.8644 0.8645 0.8648 0.8654 0.8661
3321.332218 0.8673 0.8685 0.8697 0.8708 0.8720
3326.362370 0.8731 0.8740 0.8748 0.8756 0.8763
3331.392522 0.8770 0.8777 0.8783 0.8788 0.8792
3336.422675 0.8796 0.8799 0.8801 0.8803 0.8805
3341.452827 0.8807 0.8806 0.8806 0.8805 0.8805
3346.482979 0.8804 0.8802 0.8799 0.8797 0.8794
3351.513131 0.8789 0.8783 0.8776 0.8770 0.8763
3356.543284 0.8756 0.8748 0.8741 0.8733 0.8726
3361.573436 0.8715 0.8703 0.8691 0.8679 0.8667
3366.603588 0.8655 0.8643 0.8631 0.8619 0.8604
3371.633740 0.8590 0.8576 0.8561 0.8547 0.8532
3376.663893 0.8519 0.8505 0.8492 0.8479 0.8465
3381.694045 0.8452 0.8439 0.8425 0.8411 0.8398
3386.724197 0.8384 0.8374 0.8374 0.8373 0.8372
3391.754349 0.8373 0.8375 0.8377 0.8388 0.8396
3396.784502 0.8406 0.8418 0.8429 0.8443 0.8458
3401.814654 0.8474 0.8489 0.8504 0.8520 0.8535
3406.844806 0.8550 0.8566 0.8585 0.8603 0.8622
3411.874958 0.8641 0.8662 0.8683 0.8705 0.8728
3416.905111 0.8750 0.8764 0.8764 0.8763 0.8761
3421.935263 0.8758 0.8754 0.8751 0.8746 0.8741
3426.965415 0.8736 0.8730 0.8725 0.8721 0.8716
3431.995567 0.8712 0.8713 0.8716 0.8720 0.8725
3437.025720 0.8730 0.8735 0.8741 0.8746 0.8752
3442.055872 0.8758 0.8763 0.8769 0.8775 0.8781
3447.086024 0.8786 0.8790 0.8789 0.8787 0.8784
3452.116176 0.8782 0.8778 0.8774 0.8770 0.8766
3457.146329 0.8763 0.8759 0.8755 0.8751 0.8746
3462.176481 0.8741 0.8736 0.8732 0.8727 0.8722
3467.206633 0.8718 0.8713 0.8709 0.8705 0.8701
3472.236785 0.8696 0.8692 0.8688 0.8684 0.8680
3477.266938 0.8676 0.8672 0.8668 0.8664 0.8660
3482.297090 0.8657 0.8655 0.8653 0.8651 0.8649
3487.327242 0.8647 0.8645 0.8643 0.8642 0.8641
3492.357395 0.8641 0.8640 0.8640 0.8640 0.8640
3497.387547 0.8642 0.8645 0.8649 0.8652 0.8655
3502.417699 0.8659 0.8664 0.8671 0.8677 0.8683
3507.447851 0.8690 0.8696 0.8702 0.8709 0.8716
3512.478004 0.8723 0.8730 0.8738 0.8745 0.8752
3517.508156 0.8760 0.8767 0.8774 0.8782 0.8789
3522.538308 0.8797 0.8805 0.8814 0.8821 0.8823
3527.568460 0.8824 0.8825 0.8826 0.8827 0.8827
3532.598613 0.8827 0.8827 0.8827 0.8828 0.8828
3537.628765 0.8828 0.8828 0.8828 0.8830 0.8835
3542.658917 0.8841 0.8848 0.8855 0.8863 0.8870
3547.689069 0.8877 0.8886 0.8894 0.8896 0.8895
3552.719222 0.8894 0.8893 0.8893 0.8893 0.8893
3557.749374 0.8894 0.8894 0.8894 0.8893 0.8892
3562.779526 0.8891 0.8890 0.8889 0.8888 0.8887
3567.809678 0.8886 0.8885 0.8885 0.8884 0.8883
3572.839831 0.8882 0.8883 0.8885 0.8888 0.8893
3577.869983 0.8901 0.8912 0.8922 0.8933 0.8943
3582.900135 0.8950 0.8952 0.8953 0.8953 0.8952
3587.930287 0.8952 0.8952 0.8952 0.8951 0.8951
3592.960440 0.8951 0.8950 0.8950 0.8949 0.8948
3597.990592 0.8948 0.8947 0.8947 0.8946 0.8946
3603.020744 0.8945 0.8944 0.8943 0.8942 0.8941
3608.050896 0.8940 0.8939 0.8938 0.8937 0.8936
3613.081049 0.8936 0.8936 0.8936 0.8936 0.8936
3618.111201 0.8937 0.8937 0.8937 0.8937 0.8937
3623.141353 0.8938 0.8938 0.8939 0.8940 0.8941
3628.171505 0.8943 0.8944 0.8945 0.8947 0.8948
3633.201658 0.8949 0.8950 0.8952 0.8953 0.8954
3638.231810 0.8948 0.8948 0.8954 0.8952 0.8952
3643.261962 0.8950 0.8949 0.8947 0.8944 0.8940
3648.292114 0.8936 0.8931 0.8927 0.8923 0.8919
3653.322267 0.8914 0.8910 0.8905 0.8901 0.8896
3658.352419 0.8892 0.8887 0.8883 0.8880 0.8881
3663.382571 0.8881 0.8881 0.8881 0.8884 0.8889
3668.412723 0.8895 0.8901 0.8908 0.8914 0.8921
3673.442876 0.8927 0.8934 0.8940 0.8946 0.8952
3678.473028 0.8958 0.8964 0.8970 0.8976 0.8982
3683.503180 0.8987 0.8993 0.8998 0.9004 0.9010
3688.533332 0.9013 0.9015 0.9017 0.9019 0.9021
3693.563485 0.9023 0.9025 0.9025 0.9024 0.9023
3698.593637 0.9023 0.9022 0.9022 0.9021 0.9020
3703.623789 0.9020 0.9019 0.9017 0.9016 0.9014
3708.653941 0.9012 0.9010 0.9009 0.9007 0.9005
3713.684094 0.9005 0.9004 0.9003 0.9002 0.9001
3718.714246 0.9001 0.9000 0.9001 0.9002 0.9003
3723.744398 0.9004 0.9006 0.9010 0.9014 0.9018
3728.774551 0.9022 0.9025 0.9029 0.9033 0.9036
3733.804703 0.9040 0.9043 0.9047 0.9051 0.9054
3738.834855 0.9058 0.9062 0.9065 0.9069 0.9073
3743.865007 0.9076 0.9080 0.9083 0.9087 0.9090
3748.895160 0.9094 0.9097 0.9095 0.9091 0.9086
3753.925312 0.9082 0.9076 0.9067 0.9058 0.9049
3758.955464 0.9040 0.9030 0.9020 0.9009 0.8999
3763.985616 0.8989 0.8980 0.8972 0.8963 0.8955
3769.015769 0.8947 0.8939 0.8932 0.8925 0.8919
3774.045921 0.8913 0.8912 0.8913 0.8913 0.8914
3779.076073 0.8915 0.8916 0.8918 0.8922 0.8926
3784.106225 0.8928 0.8930 0.8931 0.8932 0.8933
3789.136378 0.8932 0.8930 0.8927 0.8925 0.8921
3794.166530 0.8918 0.8915 0.8912 0.8908 0.8905
3799.196682 0.8902 0.8899 0.8895 0.8892 0.8890
3804.226834 0.8888 0.8886 0.8884 0.8882 0.8880
3809.256987 0.8880 0.8886 0.8894 0.8902 0.8912
3814.287139 0.8921 0.8930 0.8940 0.8949 0.8960
3819.317291 0.8970 0.8978 0.8985 0.8992 0.8999
3824.347443 0.9006 0.9012 0.9017 0.9022 0.9029
3829.377596 0.9032 0.9029 0.9025 0.9022 0.9014
3834.407748 0.9004 0.8992 0.8981 0.8969 0.8956
3839.437900 0.8944 0.8931 0.8921 0.8913 0.8905
3844.468052 0.8898 0.8894 0.8891 0.8888 0.8886
3849.498205 0.8884 0.8883 0.8883 0.8882 0.8882
3854.528357 0.8882 0.8881 0.8881 0.8880 0.8880
3859.558509 0.8880 0.8880 0.8879 0.8879 0.8877
3864.588661 0.8876 0.8875 0.8873 0.8872 0.8871
3869.618814 0.8870 0.8868 0.8866 0.8863 0.8861
3874.648966 0.8859 0.8857 0.8853 0.8846 0.8839
3879.679118 0.8832 0.8824 0.8817 0.8810 0.8807
3884.709270 0.8805 0.8802 0.8799 0.8796 0.8793
3889.739423 0.8791 0.8788 0.8786 0.8783 0.8780
3894.769575 0.8774 0.8769 0.8763 0.8753 0.8739
3899.799727 0.8725 0.8711 0.8697 0.8688 0.8686
3904.829879 0.8685 0.8684 0.8685 0.8686 0.8687
3909.860032 0.8688 0.8689 0.8688 0.8687 0.8686
3914.890184 0.8678 0.8668 0.8658 0.8641 0.8619
3919.920336 0.8594 0.8567 0.8552 0.8543 0.8539
3924.950488 0.8541 0.8555 0.8573 0.8596 0.8620
3929.980641 0.8644 0.8667 0.8683 0.8684 0.8680
3935.010793 0.8676 0.8673 0.8669 0.8665 0.8661
3940.040945 0.8656 0.8651 0.8646 0.8641 0.8636
3945.071097 0.8631 0.8626 0.8619 0.8612 0.8605
3950.101250 0.8598 0.8590 0.8584 0.8577 0.8570
3955.131402 0.8564 0.8568 0.8573 0.8578 0.8585
3960.161554 0.8596 0.8606 0.8617 0.8625 0.8631
3965.191707 0.8637 0.8643 0.8648 0.8647 0.8643
3970.221859 0.8638 0.8633 0.8627 0.8621 0.8615
3975.252011 0.8609 0.8609 0.8614 0.8618 0.8622
3980.282163 0.8627 0.8631 0.8635 0.8640 0.8644
3985.312316 0.8649 0.8654 0.8659 0.8663 0.8668
3990.342468 0.8672 0.8677 0.8681 0.8685 0.8689
3995.372620 0.8694 0.8696 0.8699 0.8701 0.8702
4000.402772 0.8701 0.8700 0.8698 0.8697 0.8695
4005.432925 0.8690 0.8686 0.8682 0.8677 0.8671
4010.463077 0.8663 0.8654 0.8646 0.8636 0.8626
4015.493229 0.8617 0.8607 0.8598 0.8588 0.8578
4020.523381 0.8573
##END=
