##TITLE=ACETOHYDROXAMIC ACID, 2-AMINO-
##JCAMP-DX=4.24
##DATA TYPE=INFRARED SPECTRUM
##CLASS=COBLENTZ III
##ORIGIN=SOUTHERN RESEARCH INSTITUTE
##OWNER=COBLENTZ SOCIETY
Collection (C) 2018 copyright by the U.S. Secretary of Commerce
on behalf of the United States of America. All rights reserved.
##DATE=1956/10/04
##NAMES=2-amino-N-hydroxyacetamide
##CAS REGISTRY NO=5349-80-4
##MOLFORM=C2 H6 N2 O2
##SOURCE REFERENCE=COBLENTZ NO. 8312
##$NIST SOURCE=COBLENTZ
##$NIST IMAGE=cob8312
##SPECTROMETER/DATA SYSTEM=PERKIN-ELMER 21 (GRATING)
##INSTRUMENT PARAMETERS=FILTER CHANGE AT 1070 CM^-^1
##STATE=SOLID (1 mg / 650 mg KBr DISC)
##SAMPLING PROCEDURE=TRANSMISSION
##RESOLUTION=2
##DATA PROCESSING=DIGITIZED BY NIST FROM HARD COPY (FROM TWO SEGMENTS)
##XUNITS=1/CM
##YUNITS=TRANSMITTANCE
##XFACTOR=1.000000
##YFACTOR=1
##DELTAX=1.335559
##FIRSTX=623.964
##LASTX=4059.02
##FIRSTY=0.899
##MAXX=4059.02
##MINX=623.964
##MAXY=0.958
##MINY=0.08
##NPOINTS=2573
##XYDATA=(X++(Y..Y))
623.964000 0.8990 0.8990 0.8990 0.8990 0.8990
630.641795 0.8990 0.8990 0.8990 0.8990 0.8990
637.319590 0.8990 0.8962 0.8951 0.8941 0.8922
643.997385 0.8911 0.8901 0.8873 0.8861 0.8842
650.675180 0.8831 0.8821 0.8803 0.8791 0.8765
657.352975 0.8752 0.8742 0.8723 0.8712 0.8702
664.030770 0.8700 0.8684 0.8680 0.8672 0.8670
670.708565 0.8662 0.8660 0.8629 0.8620 0.8597
677.386360 0.8582 0.8558 0.8550 0.8543 0.8511
684.064155 0.8478 0.8441 0.8423 0.8406 0.8386
690.741950 0.8339 0.8293 0.8273 0.8250 0.8233
697.419745 0.8217 0.8171 0.8111 0.8039 0.7960
704.097540 0.7917 0.7897 0.7859 0.7816 0.7770
710.775335 0.7690 0.7597 0.7531 0.7470 0.7406
717.453130 0.7346 0.7258 0.7160 0.7087 0.7011
724.130925 0.6922 0.6838 0.6779 0.6719 0.6624
730.808720 0.6540 0.6389 0.6171 0.5953 0.5676
737.486515 0.5415 0.5216 0.5022 0.4829 0.4635
744.164310 0.4530 0.4645 0.4860 0.5177 0.5703
750.842105 0.6085 0.6279 0.6410 0.6410 0.6398
757.519900 0.6361 0.6319 0.6251 0.6115 0.5966
764.197695 0.5824 0.5699 0.5566 0.5414 0.5304
770.875490 0.5196 0.4912 0.4549 0.4271 0.4021
777.553285 0.3843 0.3746 0.3596 0.3522 0.3415
784.231080 0.3395 0.3380 0.3388 0.3442 0.3559
790.908875 0.3648 0.3771 0.3908 0.4035 0.4199
797.586670 0.4533 0.4845 0.5137 0.5475 0.5732
804.264465 0.5814 0.5971 0.6217 0.6444 0.6597
810.942260 0.6703 0.6721 0.6730 0.6731 0.6740
817.620055 0.6742 0.6760 0.6760 0.6760 0.6760
824.297850 0.6760 0.6760 0.6759 0.6739 0.6728
830.975645 0.6699 0.6679 0.6649 0.6609 0.6569
837.653440 0.6540 0.6500 0.6470 0.6430 0.6410
844.331235 0.6371 0.6341 0.6311 0.6291 0.6261
851.009030 0.6222 0.6172 0.6104 0.6016 0.5880
857.686825 0.5768 0.5723 0.5647 0.5595 0.5438
864.364620 0.5331 0.5267 0.5136 0.4918 0.4820
871.042415 0.4525 0.4112 0.3940 0.3516 0.3181
877.720210 0.2906 0.2669 0.2614 0.2618 0.2782
884.398005 0.2981 0.3179 0.3725 0.3860 0.4123
891.075800 0.4453 0.4776 0.5346 0.5508 0.5720
897.753595 0.5990 0.6266 0.6660 0.6910 0.7017
904.431390 0.7047 0.7050 0.7043 0.7040 0.7019
911.109185 0.6990 0.6967 0.6933 0.6867 0.6775
917.786980 0.6643 0.6506 0.6390 0.6268 0.6013
924.464775 0.5847 0.5747 0.5603 0.5175 0.4877
931.142570 0.4612 0.3920 0.3372 0.3044 0.2709
937.820365 0.2353 0.1971 0.1800 0.1907 0.2116
944.498160 0.2445 0.2718 0.2940 0.3315 0.3923
951.175955 0.4538 0.5000 0.5582 0.5964 0.6013
957.853750 0.6105 0.6225 0.6327 0.6528 0.6941
964.531545 0.7316 0.7504 0.7632 0.7723 0.7778
971.209340 0.7794 0.7812 0.7834 0.7844 0.7850
977.887135 0.7846 0.7840 0.7836 0.7823 0.7810
984.564930 0.7803 0.7790 0.7783 0.7767 0.7757
991.242725 0.7731 0.7672 0.7612 0.7544 0.7471
997.920520 0.7442 0.7417 0.7399 0.7338 0.7219
1004.598315 0.7102 0.6991 0.6871 0.6757 0.6651
1011.276110 0.6528 0.6425 0.6256 0.5947 0.5816
1017.953905 0.5804 0.5822 0.5848 0.5944 0.6025
1024.631700 0.6120 0.6260 0.6489 0.6823 0.6918
1031.309495 0.7445 0.7681 0.7697 0.7752 0.7770
1037.987290 0.7770 0.7770 0.7769 0.7759 0.7748
1044.665085 0.7729 0.7708 0.7679 0.7669 0.7640
1051.342880 0.7629 0.7600 0.7589 0.7570 0.7550
1058.020675 0.7530 0.7510 0.7480 0.7450 0.7421
1064.698470 0.7401 0.7371 0.7360 0.7331 0.7301
1071.376265 0.7281 0.7252 0.7241 0.7212 0.7182
1078.054060 0.7162 0.7133 0.7121 0.7093 0.7063
1084.731855 0.7025 0.7002 0.6965 0.6934 0.6904
1091.409650 0.6849 0.6773 0.6743 0.6723 0.6645
1098.087445 0.6589 0.6482 0.6395 0.6276 0.6139
1104.765240 0.6008 0.5886 0.5751 0.5627 0.5500
1111.443035 0.5287 0.4663 0.4248 0.3955 0.3660
1118.120830 0.3580 0.3861 0.4251 0.4639 0.5026
1124.798625 0.5393 0.5653 0.5926 0.6183 0.6422
1131.476420 0.6547 0.6596 0.6597 0.6525 0.6451
1138.154215 0.6366 0.6279 0.6100 0.5892 0.5704
1144.832010 0.5527 0.5352 0.5184 0.5108 0.5112
1151.509805 0.5259 0.5509 0.5761 0.6015 0.6246
1158.187600 0.6449 0.6647 0.7013 0.7298 0.7340
1164.865395 0.7335 0.7325 0.7310 0.7295 0.7285
1171.543190 0.7266 0.7245 0.7226 0.7196 0.7175
1178.220985 0.7165 0.7151 0.7136 0.7126 0.7111
1184.898780 0.7096 0.7086 0.7068 0.7046 0.7032
1191.576575 0.7016 0.7006 0.6992 0.6976 0.6966
1198.254370 0.6949 0.6919 0.6893 0.6870 0.6836
1204.932165 0.6787 0.6733 0.6710 0.6681 0.6660
1211.609960 0.6657 0.6650 0.6638 0.6601 0.6577
1218.287755 0.6565 0.6547 0.6499 0.6372 0.6345
1224.965550 0.6325 0.6308 0.6298 0.6285 0.6268
1231.643345 0.6254 0.6228 0.6218 0.6206 0.6188
1238.321140 0.6178 0.6167 0.6147 0.6123 0.6085
1244.998935 0.6055 0.6027 0.6006 0.5976 0.5948
1251.676730 0.5928 0.5906 0.5869 0.5856 0.5817
1258.354525 0.5787 0.5756 0.5705 0.5637 0.5585
1265.032320 0.5508 0.5480 0.5467 0.5398 0.5358
1271.710115 0.5297 0.5178 0.5108 0.5000 0.4960
1278.387910 0.4881 0.4801 0.4722 0.4651 0.4572
1285.065705 0.4493 0.4413 0.4219 0.4059 0.3928
1291.743500 0.3780 0.3631 0.3501 0.3352 0.3221
1298.421295 0.3074 0.2925 0.2794 0.2647 0.2516
1305.099090 0.2439 0.2231 0.2063 0.1903 0.1744
1311.776885 0.1509 0.1378 0.1352 0.1350 0.1391
1318.454680 0.1627 0.2033 0.2446 0.2833 0.3219
1325.132475 0.3598 0.3975 0.4360 0.5114 0.5502
1331.810270 0.5732 0.5812 0.5996 0.6236 0.6453
1338.488065 0.6510 0.6503 0.6493 0.6392 0.6260
1345.165860 0.6144 0.6049 0.5959 0.5917 0.5883
1351.843655 0.5797 0.5491 0.5195 0.5078 0.4940
1358.521450 0.4707 0.4529 0.4351 0.4154 0.3910
1365.199245 0.3728 0.3638 0.3563 0.3345 0.3027
1371.877040 0.2709 0.2386 0.2152 0.1981 0.1802
1378.554835 0.1628 0.1454 0.1281 0.1195 0.1195
1385.232630 0.1205 0.1250 0.1324 0.1394 0.1513
1391.910425 0.1729 0.1988 0.2241 0.2545 0.2992
1398.588220 0.3473 0.3842 0.4121 0.4302 0.4498
1405.266015 0.4810 0.5257 0.5572 0.5699 0.5832
1411.943810 0.5850 0.5850 0.5843 0.5826 0.5809
1418.621605 0.5779 0.5743 0.5652 0.5480 0.5202
1425.299400 0.4867 0.4799 0.4639 0.4398 0.4116
1431.977195 0.3811 0.3511 0.3206 0.2990 0.3043
1438.654990 0.3234 0.3400 0.3589 0.3800 0.3651
1445.332785 0.3126 0.2909 0.2730 0.2554 0.2387
1452.010580 0.2260 0.2275 0.2347 0.2389 0.2432
1458.688375 0.2457 0.2555 0.2646 0.2736 0.2808
1465.366170 0.3057 0.3253 0.3426 0.3572 0.3840
1472.043965 0.4090 0.4357 0.4591 0.4604 0.4643
1478.721760 0.4681 0.4690 0.4691 0.4711 0.4731
1485.399555 0.4750 0.4750 0.4750 0.4760 0.4770
1492.077350 0.4770 0.4790 0.4790 0.4790 0.4770
1498.755145 0.4770 0.4770 0.4770 0.4722 0.4643
1505.432940 0.4382 0.4237 0.4192 0.4171 0.4170
1512.110735 0.4124 0.4028 0.3938 0.3848 0.3750
1518.788530 0.3669 0.3589 0.3527 0.3450 0.3379
1525.466325 0.3309 0.3240 0.3179 0.3111 0.3041
1532.144120 0.3013 0.2994 0.2982 0.2980 0.2988
1538.821915 0.3022 0.3078 0.3130 0.3171 0.3219
1545.499710 0.3276 0.3305 0.3514 0.3692 0.3797
1552.177505 0.3902 0.4048 0.4200 0.4240 0.4247
1558.855300 0.4250 0.4250 0.4243 0.4233 0.4189
1565.533095 0.4122 0.4086 0.4053 0.4000 0.3915
1572.210890 0.3802 0.3638 0.3551 0.3534 0.3511
1578.888685 0.3488 0.3406 0.3257 0.3088 0.2943
1585.566480 0.2773 0.2557 0.2391 0.2204 0.1942
1592.244275 0.1652 0.1404 0.1250 0.1119 0.0997
1598.922070 0.0918 0.0869 0.0845 0.0830 0.0830
1605.599865 0.0875 0.0940 0.1004 0.1074 0.1167
1612.277660 0.1272 0.1325 0.1344 0.1373 0.1399
1618.955455 0.1625 0.2025 0.2203 0.2220 0.2212
1625.633250 0.2196 0.2099 0.1909 0.1803 0.1726
1632.311045 0.1632 0.1566 0.1571 0.1608 0.1661
1638.988840 0.1768 0.1980 0.2225 0.2512 0.2785
1645.666635 0.2885 0.2965 0.3071 0.3231 0.3390
1652.344430 0.3571 0.3702 0.3885 0.4044 0.4163
1659.022225 0.4271 0.4430 0.4613 0.4845 0.4985
1665.700020 0.5085 0.5166 0.5281 0.5372 0.5445
1672.377815 0.5568 0.5661 0.5775 0.5913 0.6040
1679.055610 0.6142 0.6165 0.6262 0.6337 0.6387
1685.733405 0.6438 0.6496 0.6545 0.6597 0.6746
1692.411200 0.6886 0.6945 0.7005 0.7062 0.7096
1699.088995 0.7181 0.7204 0.7264 0.7332 0.7372
1705.766790 0.7411 0.7451 0.7491 0.7521 0.7601
1712.444585 0.7690 0.7720 0.7760 0.7770 0.7770
1719.122380 0.7799 0.7829 0.7840 0.7888 0.7928
1725.800175 0.7949 0.7950 0.7959 0.7969 0.7970
1732.477970 0.8025 0.8075 0.8116 0.8120 0.8129
1739.155765 0.8130 0.8148 0.8150 0.8159 0.8160
1745.833560 0.8169 0.8187 0.8198 0.8208 0.8226
1752.511355 0.8238 0.8248 0.8266 0.8278 0.8288
1759.189150 0.8290 0.8290 0.8290 0.8290 0.8290
1765.866945 0.8290 0.8290 0.8290 0.8290 0.8290
1772.544740 0.8290 0.8290 0.8290 0.8290 0.8276
1779.222535 0.8270 0.8270 0.8256 0.8250 0.8243
1785.900330 0.8240 0.8240 0.8233 0.8230 0.8217
1792.578125 0.8210 0.8210 0.8204 0.8194 0.8190
1799.255920 0.8178 0.8164 0.8142 0.8130 0.8124
1805.933715 0.8120 0.8114 0.8110 0.8099 0.8090
1812.611510 0.8090 0.8090 0.8090 0.8090 0.8100
1819.289305 0.8115 0.8125 0.8140 0.8155 0.8165
1825.967100 0.8180 0.8195 0.8200 0.8205 0.8219
1832.644895 0.8235 0.8240 0.8244 0.8259 0.8270
1839.322690 0.8270 0.8270 0.8274 0.8280 0.8280
1846.000485 0.8280 0.8280 0.8280 0.8280 0.8280
1852.678280 0.8280 0.8276 0.8263 0.8250 0.8247
1859.356075 0.8230 0.8210 0.8210 0.8207 0.8200
1866.033870 0.8200 0.8197 0.8190 0.8190 0.8185
1872.711665 0.8167 0.8160 0.8157 0.8150 0.8145
1879.389460 0.8128 0.8120 0.8118 0.8106 0.8090
1886.067255 0.8086 0.8066 0.8050 0.8048 0.8040
1892.745050 0.8038 0.8027 0.8008 0.8000 0.7998
1899.422845 0.7990 0.7990 0.7987 0.7970 0.7970
1906.100640 0.7970 0.7969 0.7960 0.7960 0.7960
1912.778435 0.7960 0.7960 0.7960 0.7961 0.7970
1919.456230 0.7970 0.7971 0.7990 0.7990 0.7990
1926.134025 0.8000 0.8000 0.8000 0.8000 0.8000
1932.811820 0.8000 0.8000 0.8000 0.8000 0.8000
1939.489615 0.8000 0.8000 0.8000 0.8000 0.8000
1946.167410 0.7991 0.7990 0.7990 0.7972 0.7970
1952.845205 0.7970 0.7970 0.7961 0.7960 0.7960
1959.523000 0.7951 0.7950 0.7950 0.7933 0.7913
1966.200795 0.7885 0.7855 0.7842 0.7840 0.7840
1972.878590 0.7832 0.7830 0.7806 0.7800 0.7800
1979.556385 0.7800 0.7800 0.7800 0.7792 0.7790
1986.234180 0.7790 0.7775 0.7763 0.7753 0.7728
1992.911975 0.7691 0.7651 0.7633 0.7609 0.7607
1999.589770 0.7603 0.7600 0.7600 0.7600 0.7593
2006.267565 0.7590 0.7569 0.7560 0.7553 0.7529
2012.945360 0.7499 0.7469 0.7453 0.7429 0.7413
2019.623155 0.7410 0.7410 0.7410 0.7403 0.7400
2026.300950 0.7400 0.7386 0.7380 0.7373 0.7370
2032.978745 0.7363 0.7346 0.7333 0.7323 0.7306
2039.656540 0.7293 0.7283 0.7266 0.7253 0.7229
2046.334335 0.7206 0.7179 0.7149 0.7133 0.7109
2053.012130 0.7093 0.7083 0.7080 0.7066 0.7053
2059.689925 0.7043 0.7040 0.7026 0.7006 0.6973
2066.367720 0.6946 0.6926 0.6906 0.6893 0.6869
2073.045515 0.6846 0.6812 0.6779 0.6736 0.6693
2079.723310 0.6659 0.6629 0.6599 0.6549 0.6516
2086.401105 0.6503 0.6493 0.6476 0.6463 0.6439
2093.078900 0.6423 0.6413 0.6396 0.6376 0.6370
2099.756695 0.6356 0.6316 0.6238 0.6162 0.6078
2106.434490 0.6050 0.6022 0.6010 0.5982 0.5922
2113.112285 0.5872 0.5832 0.5772 0.5695 0.5622
2119.790080 0.5559 0.5492 0.5422 0.5345 0.5306
2126.467875 0.5286 0.5294 0.5341 0.5408 0.5478
2133.145670 0.5541 0.5608 0.5658 0.5705 0.5768
2139.823465 0.5818 0.5871 0.5931 0.5991 0.6024
2146.501260 0.6044 0.6064 0.6091 0.6121 0.6144
2153.179055 0.6171 0.6201 0.6217 0.6227 0.6244
2159.856850 0.6257 0.6267 0.6284 0.6297 0.6307
2166.534645 0.6324 0.6337 0.6347 0.6364 0.6377
2173.212440 0.6387 0.6404 0.6417 0.6420 0.6420
2179.890235 0.6427 0.6444 0.6450 0.6457 0.6460
2186.568030 0.6460 0.6467 0.6470 0.6470 0.6484
2193.245825 0.6490 0.6497 0.6500 0.6500 0.6500
2199.923620 0.6507 0.6510 0.6503 0.6500 0.6493
2206.601415 0.6490 0.6490 0.6476 0.6463 0.6453
2213.279210 0.6450 0.6436 0.6416 0.6410 0.6396
2219.957005 0.6383 0.6373 0.6356 0.6343 0.6333
2226.634800 0.6316 0.6310 0.6303 0.6293 0.6276
2233.312595 0.6263 0.6253 0.6236 0.6216 0.6210
2239.990390 0.6196 0.6190 0.6183 0.6180 0.6173
2246.668185 0.6170 0.6156 0.6143 0.6140 0.6133
2253.345980 0.6116 0.6103 0.6093 0.6090 0.6076
2260.023775 0.6063 0.6053 0.6036 0.6023 0.6020
2266.701570 0.6020 0.6013 0.6010 0.5969 0.5922
2273.379365 0.5903 0.5893 0.5890 0.5890 0.5876
2280.057160 0.5870 0.5863 0.5860 0.5853 0.5850
2286.734955 0.5850 0.5857 0.5867 0.5870 0.5870
2293.412750 0.5870 0.5870 0.5842 0.5830 0.5809
2300.090545 0.5772 0.5732 0.5686 0.5636 0.5606
2306.768340 0.5593 0.5562 0.5550 0.5522 0.5503
2313.446135 0.5486 0.5452 0.5433 0.5423 0.5406
2320.123930 0.5393 0.5369 0.5353 0.5343 0.5326
2326.801725 0.5313 0.5289 0.5273 0.5263 0.5239
2333.479520 0.5209 0.5200 0.5193 0.5183 0.5166
2340.157315 0.5160 0.5153 0.5143 0.5126 0.5120
2346.835110 0.5113 0.5103 0.5079 0.5070 0.5063
2353.512905 0.5046 0.5040 0.5040 0.5040 0.5040
2360.190700 0.5033 0.5030 0.5030 0.5030 0.5030
2366.868495 0.5030 0.5030 0.5030 0.5023 0.5020
2373.546290 0.5020 0.5006 0.4993 0.4969 0.4939
2380.224085 0.4923 0.4899 0.4862 0.4823 0.4796
2386.901880 0.4790 0.4769 0.4732 0.4699 0.4662
2393.579675 0.4622 0.4603 0.4579 0.4563 0.4560
2400.257470 0.4553 0.4529 0.4513 0.4496 0.4483
2406.935265 0.4480 0.4473 0.4470 0.4456 0.4450
2413.613060 0.4443 0.4440 0.4433 0.4416 0.4410
2420.290855 0.4403 0.4400 0.4393 0.4390 0.4376
2426.968650 0.4370 0.4363 0.4360 0.4353 0.4350
2433.646445 0.4336 0.4302 0.4276 0.4249 0.4206
2440.324240 0.4169 0.4146 0.4126 0.4120 0.4106
2447.002035 0.4093 0.4090 0.4083 0.4059 0.4043
2453.679830 0.4026 0.4013 0.4003 0.3986 0.3973
2460.357625 0.3963 0.3946 0.3926 0.3906 0.3893
2467.035420 0.3883 0.3866 0.3846 0.3819 0.3810
2473.713215 0.3803 0.3786 0.3766 0.3746 0.3733
2480.391010 0.3723 0.3699 0.3683 0.3666 0.3646
2487.068805 0.3626 0.3606 0.3579 0.3563 0.3546
2493.746600 0.3533 0.3523 0.3506 0.3493 0.3469
2500.424395 0.3446 0.3426 0.3413 0.3389 0.3373
2507.102190 0.3363 0.3346 0.3319 0.3303 0.3293
2513.779985 0.3276 0.3256 0.3236 0.3216 0.3189
2520.457780 0.3173 0.3149 0.3133 0.3109 0.3093
2527.135575 0.3069 0.3039 0.3016 0.2989 0.2973
2533.813370 0.2949 0.2933 0.2909 0.2893 0.2862
2540.491165 0.2829 0.2799 0.2783 0.2759 0.2743
2547.168960 0.2719 0.2703 0.2679 0.2656 0.2636
2553.846755 0.2616 0.2596 0.2576 0.2556 0.2523
2560.524550 0.2489 0.2466 0.2446 0.2426 0.2406
2567.202345 0.2386 0.2366 0.2346 0.2326 0.2306
2573.880140 0.2286 0.2266 0.2246 0.2226 0.2206
2580.557935 0.2186 0.2166 0.2153 0.2150 0.2143
2587.235730 0.2126 0.2113 0.2103 0.2079 0.2063
2593.913525 0.2046 0.2033 0.2023 0.2006 0.1993
2600.591320 0.1983 0.1966 0.1960 0.1953 0.1943
2607.269115 0.1940 0.1940 0.1940 0.1926 0.1920
2613.946910 0.1920 0.1920 0.1920 0.1920 0.1913
2620.624705 0.1910 0.1910 0.1910 0.1910 0.1910
2627.302500 0.1917 0.1934 0.1940 0.1947 0.1957
2633.980295 0.1960 0.1960 0.1974 0.1980 0.1987
2640.658090 0.1990 0.1990 0.1990 0.1990 0.1990
2647.335885 0.1990 0.1997 0.2000 0.2000 0.2000
2654.013680 0.2000 0.1993 0.1990 0.1990 0.1990
2660.691475 0.1983 0.1980 0.1966 0.1960 0.1953
2667.369270 0.1950 0.1943 0.1926 0.1913 0.1903
2674.047065 0.1886 0.1873 0.1863 0.1839 0.1830
2680.724860 0.1823 0.1820 0.1806 0.1800 0.1793
2687.402655 0.1783 0.1739 0.1692 0.1659 0.1643
2694.080450 0.1633 0.1630 0.1630 0.1630 0.1616
2700.758245 0.1610 0.1610 0.1610 0.1610 0.1610
2707.436040 0.1610 0.1603 0.1600 0.1600 0.1593
2714.113835 0.1590 0.1590 0.1576 0.1570 0.1570
2720.791630 0.1563 0.1560 0.1553 0.1550 0.1550
2727.469425 0.1536 0.1530 0.1530 0.1523 0.1513
2734.147220 0.1510 0.1496 0.1490 0.1483 0.1480
2740.825015 0.1473 0.1470 0.1456 0.1443 0.1440
2747.502810 0.1433 0.1416 0.1403 0.1393 0.1376
2754.180605 0.1370 0.1363 0.1353 0.1336 0.1323
2760.858400 0.1299 0.1283 0.1273 0.1256 0.1243
2767.536195 0.1233 0.1216 0.1203 0.1193 0.1169
2774.213990 0.1139 0.1123 0.1113 0.1110 0.1096
2780.891785 0.1090 0.1083 0.1073 0.1070 0.1049
2787.569580 0.1040 0.1040 0.1040 0.1033 0.1030
2794.247375 0.1030 0.1016 0.1010 0.1003 0.1000
2800.925170 0.0993 0.0976 0.0963 0.0960 0.0953
2807.602965 0.0950 0.0922 0.0889 0.0880 0.0880
2814.280760 0.0873 0.0870 0.0870 0.0856 0.0850
2820.958555 0.0843 0.0826 0.0813 0.0810 0.0810
2827.636350 0.0803 0.0800 0.0800 0.0800 0.0800
2834.314145 0.0800 0.0800 0.0807 0.0810 0.0810
2840.991940 0.0810 0.0817 0.0820 0.0820 0.0820
2847.669735 0.0820 0.0820 0.0834 0.0840 0.0840
2854.347530 0.0847 0.0850 0.0850 0.0864 0.0870
2861.025325 0.0870 0.0877 0.0880 0.0887 0.0890
2867.703120 0.0904 0.0910 0.0917 0.0920 0.0927
2874.380915 0.0930 0.0930 0.0944 0.0950 0.0957
2881.058710 0.0960 0.0960 0.0967 0.0970 0.0970
2887.736505 0.0984 0.0997 0.1000 0.1007 0.1024
2894.414300 0.1030 0.1037 0.1047 0.1050 0.1064
2901.092095 0.1070 0.1077 0.1080 0.1087 0.1090
2907.769890 0.1104 0.1110 0.1117 0.1120 0.1120
2914.447685 0.1120 0.1120 0.1120 0.1113 0.1110
2921.125480 0.1110 0.1110 0.1110 0.1110 0.1110
2927.803275 0.1117 0.1120 0.1120 0.1120 0.1120
2934.481070 0.1120 0.1120 0.1120 0.1120 0.1120
2941.158865 0.1120 0.1120 0.1120 0.1120 0.1120
2947.836660 0.1127 0.1130 0.1130 0.1144 0.1150
2954.514455 0.1150 0.1157 0.1160 0.1160 0.1167
2961.192250 0.1170 0.1170 0.1184 0.1190 0.1190
2967.870045 0.1197 0.1200 0.1207 0.1210 0.1224
2974.547840 0.1237 0.1247 0.1264 0.1270 0.1270
2981.225635 0.1277 0.1280 0.1287 0.1290 0.1304
2987.903430 0.1310 0.1317 0.1320 0.1320 0.1320
2994.581225 0.1320 0.1320 0.1320 0.1327 0.1330
3001.259020 0.1330 0.1344 0.1350 0.1350 0.1350
3007.936815 0.1350 0.1350 0.1357 0.1360 0.1360
3014.614610 0.1360 0.1367 0.1370 0.1370 0.1384
3021.292405 0.1390 0.1390 0.1390 0.1397 0.1400
3027.970200 0.1400 0.1407 0.1410 0.1410 0.1424
3034.647995 0.1430 0.1437 0.1447 0.1450 0.1464
3041.325790 0.1470 0.1477 0.1480 0.1487 0.1490
3048.003585 0.1504 0.1510 0.1517 0.1527 0.1544
3054.681380 0.1557 0.1567 0.1584 0.1590 0.1597
3061.359175 0.1607 0.1631 0.1661 0.1670 0.1691
3068.036970 0.1700 0.1707 0.1710 0.1717 0.1720
3074.714765 0.1720 0.1734 0.1740 0.1747 0.1750
3081.392560 0.1750 0.1750 0.1750 0.1750 0.1750
3088.070355 0.1757 0.1760 0.1760 0.1760 0.1760
3094.748150 0.1760 0.1760 0.1760 0.1760 0.1760
3101.425945 0.1760 0.1760 0.1760 0.1760 0.1760
3108.103740 0.1760 0.1760 0.1774 0.1780 0.1787
3114.781535 0.1790 0.1790 0.1797 0.1800 0.1800
3121.459330 0.1814 0.1827 0.1837 0.1854 0.1867
3128.137125 0.1877 0.1894 0.1900 0.1907 0.1917
3134.814920 0.1934 0.1947 0.1957 0.1960 0.1974
3141.492715 0.1980 0.1980 0.1987 0.1990 0.1997
3148.170510 0.2014 0.2027 0.2037 0.2040 0.2061
3154.848305 0.2091 0.2128 0.2154 0.2188 0.2241
3161.526100 0.2267 0.2277 0.2294 0.2328 0.2347
3168.203895 0.2357 0.2408 0.2478 0.2507 0.2531
3174.881690 0.2588 0.2638 0.2678 0.2690 0.2718
3181.559485 0.2737 0.2740 0.2740 0.2747 0.2771
3188.237280 0.2787 0.2832 0.2885 0.2907 0.2931
3194.915075 0.2947 0.2971 0.2987 0.3004 0.3024
3201.592870 0.3044 0.3057 0.3067 0.3084 0.3097
3208.270665 0.3107 0.3124 0.3130 0.3137 0.3147
3214.948460 0.3164 0.3177 0.3187 0.3204 0.3210
3221.626255 0.3217 0.3227 0.3244 0.3250 0.3257
3228.304050 0.3267 0.3284 0.3297 0.3307 0.3324
3234.981845 0.3330 0.3358 0.3398 0.3444 0.3487
3241.659640 0.3514 0.3534 0.3554 0.3567 0.3577
3248.337435 0.3601 0.3617 0.3634 0.3647 0.3650
3255.015230 0.3657 0.3660 0.3674 0.3708 0.3755
3261.693025 0.3791 0.3814 0.3841 0.3850 0.3877
3268.370820 0.3911 0.3927 0.3951 0.3967 0.3977
3275.048615 0.4001 0.4017 0.4034 0.4047 0.4057
3281.726410 0.4074 0.4087 0.4111 0.4134 0.4161
3288.404205 0.4191 0.4207 0.4238 0.4264 0.4284
3295.082000 0.4318 0.4344 0.4357 0.4367 0.4384
3301.759795 0.4397 0.4407 0.4410 0.4424 0.4437
3308.437590 0.4447 0.4464 0.4470 0.4470 0.4477
3315.115385 0.4480 0.4487 0.4490 0.4490 0.4490
3321.793180 0.4490 0.4504 0.4510 0.4517 0.4541
3328.470975 0.4550 0.4550 0.4557 0.4560 0.4567
3335.148770 0.4570 0.4584 0.4597 0.4607 0.4610
3341.826565 0.4624 0.4630 0.4637 0.4640 0.4647
3348.504360 0.4650 0.4664 0.4670 0.4670 0.4677
3355.182155 0.4680 0.4687 0.4690 0.4711 0.4727
3361.859950 0.4744 0.4750 0.4757 0.4760 0.4767
3368.537745 0.4791 0.4807 0.4824 0.4837 0.4847
3375.215540 0.4864 0.4877 0.4880 0.4880 0.4887
3381.893335 0.4890 0.4890 0.4890 0.4904 0.4910
3388.571130 0.4910 0.4910 0.4910 0.4910 0.4910
3395.248925 0.4910 0.4917 0.4920 0.4927 0.4951
3401.926720 0.4967 0.4984 0.4990 0.4990 0.4997
3408.604515 0.5000 0.5014 0.5027 0.5037 0.5061
3415.282310 0.5098 0.5131 0.5195 0.5227 0.5237
3421.960105 0.5254 0.5260 0.5267 0.5277 0.5294
3428.637900 0.5314 0.5341 0.5371 0.5394 0.5421
3435.315695 0.5451 0.5474 0.5480 0.5494 0.5507
3441.993490 0.5538 0.5557 0.5560 0.5581 0.5590
3448.671285 0.5597 0.5621 0.5651 0.5674 0.5707
3455.349080 0.5741 0.5771 0.5787 0.5831 0.5864
3462.026875 0.5891 0.5907 0.5924 0.5937 0.5940
3468.704670 0.5947 0.5950 0.5964 0.5998 0.6024
3475.382465 0.6058 0.6118 0.6161 0.6177 0.6180
3482.060260 0.6201 0.6252 0.6298 0.6331 0.6347
3488.738055 0.6364 0.6377 0.6401 0.6424 0.6444
3495.415850 0.6450 0.6457 0.6467 0.6498 0.6538
3502.093645 0.6605 0.6644 0.6657 0.6674 0.6687
3508.771440 0.6697 0.6714 0.6727 0.6737 0.6754
3515.449235 0.6774 0.6780 0.6801 0.6831 0.6854
3522.127030 0.6874 0.6894 0.6921 0.6951 0.6967
3528.804825 0.6977 0.7001 0.7017 0.7041 0.7071
3535.482620 0.7080 0.7087 0.7097 0.7100 0.7114
3542.160415 0.7120 0.7127 0.7151 0.7167 0.7191
3548.838210 0.7207 0.7231 0.7247 0.7271 0.7287
3555.516005 0.7318 0.7351 0.7374 0.7401 0.7437
3562.193800 0.7471 0.7515 0.7544 0.7564 0.7591
3568.871595 0.7628 0.7661 0.7698 0.7724 0.7751
3575.549390 0.7788 0.7835 0.7864 0.7877 0.7887
3582.227185 0.7904 0.7917 0.7927 0.7951 0.7967
3588.904980 0.7984 0.7997 0.8007 0.8024 0.8037
3595.582775 0.8061 0.8077 0.8087 0.8090 0.8104
3602.260570 0.8117 0.8120 0.8127 0.8130 0.8144
3608.938365 0.8150 0.8157 0.8160 0.8167 0.8170
3615.616160 0.8184 0.8190 0.8197 0.8200 0.8207
3622.293955 0.8210 0.8224 0.8230 0.8237 0.8240
3628.971750 0.8247 0.8250 0.8264 0.8270 0.8277
3635.649545 0.8280 0.8287 0.8290 0.8304 0.8310
3642.327340 0.8317 0.8320 0.8320 0.8320 0.8334
3649.005135 0.8340 0.8340 0.8340 0.8340 0.8340
3655.682930 0.8340 0.8340 0.8340 0.8340 0.8340
3662.360725 0.8340 0.8340 0.8340 0.8340 0.8340
3669.038520 0.8340 0.8340 0.8340 0.8340 0.8340
3675.716315 0.8340 0.8340 0.8340 0.8340 0.8340
3682.394110 0.8340 0.8340 0.8340 0.8340 0.8340
3689.071905 0.8340 0.8340 0.8340 0.8326 0.8320
3695.749700 0.8320 0.8320 0.8320 0.8320 0.8320
3702.427495 0.8320 0.8320 0.8320 0.8320 0.8320
3709.105290 0.8320 0.8320 0.8320 0.8320 0.8320
3715.783085 0.8320 0.8320 0.8320 0.8320 0.8320
3722.460880 0.8320 0.8320 0.8320 0.8320 0.8313
3729.138675 0.8317 0.8334 0.8340 0.8347 0.8357
3735.816470 0.8360 0.8374 0.8394 0.8414 0.8420
3742.494265 0.8420 0.8420 0.8427 0.8430 0.8430
3749.172060 0.8437 0.8440 0.8440 0.8440 0.8454
3755.849855 0.8460 0.8460 0.8460 0.8460 0.8460
3762.527650 0.8460 0.8460 0.8460 0.8460 0.8460
3769.205445 0.8460 0.8460 0.8460 0.8460 0.8460
3775.883240 0.8460 0.8460 0.8460 0.8460 0.8460
3782.561035 0.8460 0.8460 0.8460 0.8460 0.8460
3789.238830 0.8460 0.8460 0.8460 0.8460 0.8460
3795.916625 0.8460 0.8460 0.8460 0.8460 0.8460
3802.594420 0.8460 0.8460 0.8460 0.8460 0.8460
3809.272215 0.8460 0.8460 0.8460 0.8460 0.8446
3815.950010 0.8440 0.8440 0.8440 0.8440 0.8440
3822.627805 0.8440 0.8440 0.8440 0.8440 0.8440
3829.305600 0.8454 0.8460 0.8460 0.8467 0.8470
3835.983395 0.8470 0.8470 0.8470 0.8470 0.8470
3842.661190 0.8470 0.8470 0.8470 0.8470 0.8470
3849.338985 0.8470 0.8470 0.8470 0.8470 0.8470
3856.016780 0.8470 0.8470 0.8470 0.8470 0.8470
3862.694575 0.8470 0.8470 0.8470 0.8463 0.8446
3869.372370 0.8440 0.8440 0.8440 0.8440 0.8440
3876.050165 0.8440 0.8440 0.8440 0.8440 0.8440
3882.727960 0.8440 0.8440 0.8440 0.8440 0.8454
3889.405755 0.8460 0.8467 0.8470 0.8470 0.8470
3896.083550 0.8470 0.8470 0.8470 0.8470 0.8477
3902.761345 0.8480 0.8480 0.8480 0.8480 0.8480
3909.439140 0.8480 0.8480 0.8480 0.8480 0.8480
3916.116935 0.8494 0.8500 0.8500 0.8500 0.8500
3922.794730 0.8500 0.8500 0.8500 0.8507 0.8510
3929.472525 0.8510 0.8510 0.8510 0.8510 0.8510
3936.150320 0.8510 0.8510 0.8510 0.8510 0.8510
3942.828115 0.8510 0.8510 0.8510 0.8510 0.8510
3949.505910 0.8510 0.8510 0.8510 0.8503 0.8486
3956.183705 0.8480 0.8473 0.8470 0.8470 0.8470
3962.861500 0.8470 0.8477 0.8480 0.8480 0.8480
3969.539295 0.8473 0.8470 0.8477 0.8480 0.8480
3976.217090 0.8480 0.8480 0.8480 0.8494 0.8500
3982.894885 0.8507 0.8517 0.8520 0.8506 0.8486
3989.572680 0.8473 0.8470 0.8463 0.8460 0.8460
3996.250475 0.8460 0.8446 0.8440 0.8440 0.8440
4002.928270 0.8440 0.8454 0.8460 0.8467 0.8518
4009.606065 0.8595 0.8634 0.8640 0.8633 0.8630
4016.283860 0.8630 0.8637 0.8654 0.8674 0.8680
4022.961655 0.8680 0.8680 0.8680 0.8680 0.8680
4029.639450 0.8694 0.8707 0.8717 0.8734 0.8740
4036.317245 0.8747 0.8798 0.8834 0.8868 0.8921
4042.995040 0.8940 0.8954 0.8988 0.9048 0.9125
4049.672835 0.9246 0.9352 0.9414 0.9533 0.9580
4056.350630 0.9580 0.9580 0.9580
##END=
