##TITLE=3-Methyl-2-buten-1-ol
##JCAMP-DX=4.24
##DATA TYPE=INFRARED SPECTRUM
##ORIGIN=NIST Mass Spectrometry Data Center
##OWNER=NIST Standard Reference Data Program
Collection (C) 2018 copyright by the U.S. Secretary of Commerce
on behalf of the United States of America. All rights reserved.
##CAS REGISTRY NO=556-82-1
##MOLFORM=C 5 H 10 O
##$NIST SOURCE=MSDC-IR
##SPECTROMETER/DATA SYSTEM=HP-GC/MS/IRD
##STATE=gas
##XUNITS=1/CM
##YUNITS=ABSORBANCE
##XFACTOR=1.0
##YFACTOR=0.000000900
##DELTAX=4.0
##FIRSTX=550.0
##LASTX=3846.0
##FIRSTY=0.000242
##MAXX=3846
##MINX=550
##MAXY=0.009
##MINY=0
##NPOINTS=825
##XYDATA=(X++(Y..Y))
550.0 269 163 174 151 173 165 139 174 141 155
590.0 189 180 134 99 143 126 127 154 130 173
630.0 188 117 26 0 75 154 111 86 74 51
670.0 68 83 70 25 37 79 68 61 40 40
710.0 73 59 85 85 69 54 93 124 129 125
750.0 154 229 256 291 348 428 473 496 516 520
790.0 554 661 736 776 838 874 918 931 920 894
830.0 878 865 823 766 682 609 580 602 579 514
870.0 525 545 546 561 561 578 636 691 785 899
910.0 981 1092 1256 1443 1705 2021 2347 2669 2943 3191
950.0 3485 3758 4038 4344 4763 5250 5811 6516 7330 8165
990.0 8944 9572 9946 10000 9800 9406 8867 8173 7423 6795
1030.0 6217 5640 5085 4563 4059 3557 3081 2635 2231 1929
1070.0 1740 1599 1472 1383 1317 1248 1219 1234 1221 1213
1110.0 1206 1205 1188 1174 1167 1119 1079 1085 1067 1105
1150.0 1146 1177 1207 1244 1289 1301 1376 1466 1500 1579
1190.0 1670 1730 1820 1892 1901 1925 1965 1984 1958 1891
1230.0 1879 1878 1792 1714 1662 1609 1588 1533 1450 1410
1270.0 1359 1332 1306 1264 1238 1216 1199 1188 1187 1199
1310.0 1210 1263 1385 1518 1634 1754 1835 1916 1985 2036
1350.0 2124 2268 2496 2800 3182 3613 4026 4360 4637 4853
1390.0 4881 4695 4297 3748 3218 2762 2392 2167 2032 1960
1430.0 1953 1995 2052 2092 2156 2160 2109 2068 1987 1862
1470.0 1726 1578 1401 1280 1173 1028 880 790 717 671
1510.0 622 552 515 501 497 494 490 507 502 488
1550.0 468 450 470 449 441 438 447 446 397 387
1590.0 401 399 391 394 399 388 401 419 431 421
1630.0 417 467 494 522 612 756 915 1057 1205 1314
1670.0 1327 1288 1208 1058 844 601 424 302 206 152
1710.0 118 98 90 50 35 42 45 33 22 27
1750.0 20 26 56 51 35 47 57 51 37 33
1790.0 49 52 57 70 56 35 31 36 38 56
1830.0 58 32 27 39 40 35 30 15 11 26
1870.0 38 35 36 28 15 18 18 21 11 5
1910.0 24 27 26 38 44 43 47 71 68 55
1950.0 73 76 84 96 95 86 82 101 108 101
1990.0 90 79 84 89 84 84 81 78 79 79
2030.0 50 25 17 27 53 55 32 27 27 12
2070.0 4 14 21 13 11 11 17 13 13 17
2110.0 21 16 12 29 34 29 32 44 49 48
2150.0 36 33 33 44 44 33 24 32 32 15
2190.0 35 35 3 10 15 8 21 41 31 6
2230.0 22 41 45 48 39 37 51 35 12 29
2270.0 42 20 37 60 40 31 49 59 50 53
2310.0 69 76 73 74 84 89 105 119 96 72
2350.0 103 149 167 182 165 136 120 115 107 83
2390.0 88 97 93 100 92 80 86 81 82 88
2430.0 77 71 72 95 110 110 112 105 113 95
2470.0 73 72 69 93 93 70 63 56 66 83
2510.0 93 85 90 102 102 96 86 93 79 62
2550.0 61 64 67 67 69 80 84 72 93 104
2590.0 94 110 117 117 122 126 129 123 104 122
2630.0 130 123 144 131 114 124 129 129 142 173
2670.0 174 158 186 211 197 196 207 219 239 265
2710.0 284 298 336 394 462 513 558 591 614 640
2750.0 627 608 597 578 567 593 605 607 639 672
2790.0 699 747 818 888 963 1056 1156 1272 1419 1588
2830.0 1799 2013 2284 2597 2955 3449 3995 4549 5098 5626
2870.0 6142 6602 6932 7162 7319 7417 7461 7564 7735 8012
2910.0 8413 8885 9265 9544 9720 9753 9641 9355 8903 8235
2950.0 7572 7135 6884 6760 6731 6691 6570 6371 6265 6215
2990.0 5966 5501 4988 4511 4075 3684 3354 3075 2813 2608
3030.0 2448 2289 2120 1980 1819 1658 1529 1390 1252 1164
3070.0 1102 1020 951 922 843 727 655 588 548 502
3110.0 459 441 416 368 322 297 282 263 236 204
3150.0 162 164 176 176 164 112 121 108 68 78
3190.0 81 67 66 64 50 37 23 38 38 61
3230.0 64 17 19 36 33 39 45 33 29 39
3270.0 34 45 23 4 18 7 4 27 60 29
3310.0 9 37 50 69 59 46 50 47 60 62
3350.0 52 47 29 42 63 41 41 71 79 84
3390.0 93 92 78 65 84 91 87 68 57 52
3430.0 52 83 96 100 89 92 97 59 63 108
3470.0 99 90 84 76 90 83 56 53 80 49
3510.0 33 81 88 60 45 41 16 1 0 9
3550.0 43 41 43 56 68 66 66 66 43 62
3590.0 74 102 127 134 178 223 259 321 400 498
3630.0 640 769 934 1132 1346 1549 1590 1576 1539 1470
3670.0 1348 1156 972 812 614 473 379 301 279 232
3710.0 190 173 120 116 127 96 72 57 74 96
3750.0 82 82 65 36 76 83 71 65 83 112
3790.0 93 109 139 132 89 70 92 86 84 65
3830.0 54 121 152 148 130
##END=
