##TITLE=Propene, 2-chloro-
##JCAMP-DX=4.24
$$ By DXEDIT 1.05 (RS McDonald)
##DATA TYPE=INFRARED SPECTRUM
##CLASS=COBLENTZ III
##ORIGIN=DOW CHEMICAL COMPANY
##OWNER=COPYRIGHT (C) 1988 by COBLENTZ SOCIETY INC.
Collection (C) 2018 copyright by the U.S. Secretary of Commerce
on behalf of the United States of America. All rights reserved.
##DATE=1966/01/04
##NAMES=2-chloro-1-propene
##CAS REGISTRY NO=557-98-2
##MOLFORM=C3 H5 Cl
##SOURCE REFERENCE=COBLENTZ NO. 5646
##$NIST SOURCE=COBLENTZ
##$NIST IMAGE=cob5646
##SPECTROMETER/DATA SYSTEM=BECKMAN IR-9 (GRATING)
$$SPECTRAL CONTAMINATIONS DUE TO CS2 AROUND 400, AND CCl4 AROUND 1550 CM^-^1 HAVE BEEN SUBTRACTED
##INSTRUMENT PARAMETERS=ORDER CHANGED AT 670, 1200, 2000 CM^-^1
##STATE=SOLUTION (10% CCl4 FOR 2.6-7.5, 10% CS2 FOR 7.5-24)
##PATH LENGTH=0.012 CM, 0.011 CM
##SAMPLING PROCEDURE=TRANSMISSION
##RESOLUTION=2
##DATA PROCESSING=DIGITIZED BY COBLENTZ SOCIETY (BATCH I) FROM HARD COPY
##XUNITS=1/CM
##YUNITS=TRANSMITTANCE
##XFACTOR=1
##YFACTOR=1
##DELTAX=1
##FIRSTX=3800
##LASTX=402
##FIRSTY=0.9215
##MAXX=3800
##MINX=402
##MAXY=0.9835
##MINY=0.0201
##NPOINTS=3399
##XYDATA=(X++(Y..Y))
3800.000000 0.9215 0.9216 0.9217 0.9221 0.9232
3795.000000 0.9224 0.9238 0.9239 0.9240 0.9241
3790.000000 0.9242 0.9243 0.9244 0.9245 0.9246
3785.000000 0.9247 0.9238 0.9233 0.9234 0.9247
3780.000000 0.9252 0.9240 0.9252 0.9255 0.9256
3775.000000 0.9241 0.9257 0.9257 0.9257 0.9257
3770.000000 0.9258 0.9258 0.9258 0.9258 0.9257
3765.000000 0.9256 0.9255 0.9253 0.9252 0.9251
3760.000000 0.9258 0.9256 0.9247 0.9245 0.9243
3755.000000 0.9241 0.9239 0.9237 0.9235 0.9233
3750.000000 0.9232 0.9228 0.9227 0.9225 0.9225
3745.000000 0.9224 0.9224 0.9223 0.9221 0.9221
3740.000000 0.9221 0.9224 0.9236 0.9234 0.9234
3735.000000 0.9234 0.9226 0.9220 0.9230 0.9240
3730.000000 0.9241 0.9243 0.9244 0.9247 0.9249
3725.000000 0.9250 0.9253 0.9254 0.9256 0.9258
3720.000000 0.9260 0.9245 0.9248 0.9265 0.9267
3715.000000 0.9268 0.9270 0.9271 0.9278 0.9286
3710.000000 0.9283 0.9294 0.9295 0.9296 0.9297
3705.000000 0.9298 0.9299 0.9299 0.9300 0.9301
3700.000000 0.9302 0.9302 0.9302 0.9304 0.9291
3695.000000 0.9289 0.9291 0.9291 0.9292 0.9293
3690.000000 0.9293 0.9295 0.9296 0.9293 0.9280
3685.000000 0.9280 0.9282 0.9282 0.9282 0.9282
3680.000000 0.9283 0.9283 0.9283 0.9283 0.9284
3675.000000 0.9284 0.9284 0.9284 0.9285 0.9285
3670.000000 0.9298 0.9287 0.9286 0.9286 0.9286
3665.000000 0.9286 0.9285 0.9285 0.9284 0.9282
3660.000000 0.9280 0.9279 0.9276 0.9274 0.9272
3655.000000 0.9271 0.9269 0.9268 0.9267 0.9265
3650.000000 0.9264 0.9262 0.9259 0.9257 0.9256
3645.000000 0.9255 0.9254 0.9253 0.9253 0.9253
3640.000000 0.9253 0.9252 0.9252 0.9251 0.9251
3635.000000 0.9251 0.9251 0.9253 0.9266 0.9265
3630.000000 0.9260 0.9249 0.9255 0.9264 0.9264
3625.000000 0.9263 0.9263 0.9263 0.9263 0.9261
3620.000000 0.9261 0.9261 0.9261 0.9260 0.9260
3615.000000 0.9259 0.9259 0.9259 0.9259 0.9258
3610.000000 0.9258 0.9256 0.9243 0.9257 0.9257
3605.000000 0.9256 0.9256 0.9251 0.9245 0.9255
3600.000000 0.9248 0.9238 0.9245 0.9254 0.9254
3595.000000 0.9253 0.9253 0.9253 0.9253 0.9252
3590.000000 0.9252 0.9250 0.9250 0.9250 0.9250
3585.000000 0.9249 0.9249 0.9248 0.9248 0.9248
3580.000000 0.9248 0.9248 0.9248 0.9248 0.9243
3575.000000 0.9237 0.9248 0.9248 0.9241 0.9232
3570.000000 0.9232 0.9232 0.9232 0.9232 0.9233
3565.000000 0.9233 0.9233 0.9233 0.9233 0.9233
3560.000000 0.9233 0.9233 0.9233 0.9233 0.9233
3555.000000 0.9248 0.9233 0.9235 0.9249 0.9249
3550.000000 0.9245 0.9237 0.9249 0.9249 0.9249
3545.000000 0.9242 0.9240 0.9249 0.9249 0.9248
3540.000000 0.9238 0.9241 0.9235 0.9241 0.9244
3535.000000 0.9243 0.9243 0.9241 0.9241 0.9241
3530.000000 0.9241 0.9224 0.9224 0.9222 0.9222
3525.000000 0.9222 0.9222 0.9221 0.9221 0.9220
3520.000000 0.9220 0.9218 0.9218 0.9216 0.9216
3515.000000 0.9214 0.9214 0.9214 0.9214 0.9213
3510.000000 0.9213 0.9213 0.9213 0.9212 0.9212
3505.000000 0.9211 0.9211 0.9210 0.9210 0.9210
3500.000000 0.9210 0.9209 0.9209 0.9208 0.9208
3495.000000 0.9208 0.9208 0.9207 0.9207 0.9206
3490.000000 0.9206 0.9206 0.9206 0.9204 0.9204
3485.000000 0.9203 0.9203 0.9203 0.9203 0.9203
3480.000000 0.9203 0.9203 0.9203 0.9203 0.9203
3475.000000 0.9202 0.9202 0.9202 0.9202 0.9202
3470.000000 0.9202 0.9202 0.9202 0.9202 0.9202
3465.000000 0.9202 0.9202 0.9201 0.9201 0.9201
3460.000000 0.9201 0.9201 0.9201 0.9201 0.9201
3455.000000 0.9200 0.9200 0.9199 0.9198 0.9197
3450.000000 0.9197 0.9196 0.9195 0.9194 0.9194
3445.000000 0.9193 0.9192 0.9191 0.9191 0.9190
3440.000000 0.9190 0.9189 0.9189 0.9188 0.9188
3435.000000 0.9186 0.9185 0.9184 0.9183 0.9181
3430.000000 0.9179 0.9178 0.9177 0.9175 0.9174
3425.000000 0.9159 0.9169 0.9168 0.9166 0.9160
3420.000000 0.9155 0.9150 0.9145 0.9139 0.9134
3415.000000 0.9129 0.9124 0.9118 0.9113 0.9108
3410.000000 0.9104 0.9098 0.9093 0.9096 0.9089
3405.000000 0.9076 0.9071 0.9066 0.9060 0.9055
3400.000000 0.9050 0.9045 0.9039 0.9034 0.9029
3395.000000 0.9026 0.9022 0.9019 0.9016 0.9013
3390.000000 0.9010 0.9008 0.9005 0.9002 0.8999
3385.000000 0.8996 0.8994 0.8991 0.8989 0.8985
3380.000000 0.8982 0.8979 0.8977 0.8974 0.8972
3375.000000 0.8969 0.8966 0.8963 0.8960 0.8957
3370.000000 0.8970 0.8954 0.8949 0.8947 0.8945
3365.000000 0.8942 0.8940 0.8937 0.8935 0.8934
3360.000000 0.8933 0.8930 0.8929 0.8928 0.8927
3355.000000 0.8925 0.8924 0.8923 0.8922 0.8920
3350.000000 0.8919 0.8918 0.8917 0.8915 0.8913
3345.000000 0.8925 0.8927 0.8913 0.8926 0.8914
3340.000000 0.8914 0.8915 0.8931 0.8932 0.8931
3335.000000 0.8919 0.8920 0.8921 0.8923 0.8929
3330.000000 0.8935 0.8941 0.8947 0.8952 0.8959
3325.000000 0.8966 0.8972 0.8977 0.8983 0.8995
3320.000000 0.9007 0.9018 0.9031 0.9042 0.9054
3315.000000 0.9067 0.9080 0.9093 0.9121 0.9133
3310.000000 0.9145 0.9149 0.9152 0.9146 0.9164
3305.000000 0.9168 0.9169 0.9162 0.9166 0.9165
3300.000000 0.9164 0.9162 0.9162 0.9159 0.9157
3295.000000 0.9150 0.9143 0.9135 0.9128 0.9120
3290.000000 0.9112 0.9104 0.9096 0.9088 0.9081
3285.000000 0.9072 0.9065 0.9072 0.9063 0.9041
3280.000000 0.9035 0.9038 0.9026 0.9010 0.9012
3275.000000 0.9018 0.9015 0.9011 0.9008 0.9008
3270.000000 0.9009 0.9010 0.9011 0.9016 0.9024
3265.000000 0.9031 0.9038 0.9045 0.9052 0.9058
3260.000000 0.9066 0.9072 0.9079 0.9087 0.9081
3255.000000 0.9103 0.9111 0.9118 0.9126 0.9134
3250.000000 0.9142 0.9150 0.9158 0.9164 0.9172
3245.000000 0.9168 0.9172 0.9183 0.9187 0.9187
3240.000000 0.9188 0.9188 0.9188 0.9188 0.9188
3235.000000 0.9188 0.9189 0.9189 0.9189 0.9189
3230.000000 0.9189 0.9189 0.9190 0.9188 0.9175
3225.000000 0.9179 0.9192 0.9192 0.9193 0.9194
3220.000000 0.9195 0.9195 0.9196 0.9196 0.9197
3215.000000 0.9197 0.9198 0.9198 0.9198 0.9198
3210.000000 0.9198 0.9197 0.9184 0.9180 0.9180
3205.000000 0.9179 0.9179 0.9178 0.9178 0.9177
3200.000000 0.9179 0.9189 0.9179 0.9187 0.9179
3195.000000 0.9190 0.9189 0.9188 0.9188 0.9187
3190.000000 0.9178 0.9178 0.9185 0.9183 0.9173
3185.000000 0.9167 0.9167 0.9166 0.9166 0.9163
3180.000000 0.9160 0.9159 0.9157 0.9155 0.9153
3175.000000 0.9150 0.9149 0.9147 0.9145 0.9143
3170.000000 0.9141 0.9139 0.9138 0.9136 0.9133
3165.000000 0.9131 0.9171 0.9144 0.9135 0.9137
3160.000000 0.9144 0.9143 0.9132 0.9139 0.9131
3155.000000 0.9126 0.9139 0.9141 0.9141 0.9141
3150.000000 0.9141 0.9139 0.9124 0.9123 0.9122
3145.000000 0.9120 0.9118 0.9117 0.9116 0.9119
3140.000000 0.9130 0.9127 0.9127 0.9126 0.9125
3135.000000 0.9123 0.9122 0.9119 0.9118 0.9116
3130.000000 0.9114 0.9110 0.9106 0.9100 0.9096
3125.000000 0.9085 0.9073 0.9053 0.9033 0.9012
3120.000000 0.8992 0.8956 0.8919 0.8867 0.8814
3115.000000 0.8758 0.8704 0.8638 0.8574 0.8564
3110.000000 0.8509 0.8549 0.8548 0.8553 0.8558
3105.000000 0.8563 0.8569 0.8593 0.8616 0.8648
3100.000000 0.8691 0.8728 0.8763 0.8810 0.8859
3095.000000 0.8908 0.8940 0.8964 0.8986 0.8996
3090.000000 0.9017 0.9024 0.9036 0.9053 0.9073
3085.000000 0.9071 0.9074 0.9084 0.9094 0.9103
3080.000000 0.9111 0.9120 0.9138 0.9161 0.9174
3075.000000 0.9176 0.9189 0.9196 0.9185 0.9185
3070.000000 0.9152 0.9174 0.9190 0.9174 0.9172
3065.000000 0.9167 0.9158 0.9139 0.9134 0.9126
3060.000000 0.9123 0.9123 0.9111 0.9093 0.9073
3055.000000 0.9072 0.9064 0.9050 0.9043 0.9055
3050.000000 0.9064 0.9066 0.9067 0.9069 0.9081
3045.000000 0.9084 0.9098 0.9115 0.9131 0.9145
3040.000000 0.9160 0.9156 0.9153 0.9146 0.9125
3035.000000 0.9107 0.9100 0.9075 0.9056 0.9048
3030.000000 0.9033 0.9014 0.9007 0.8971 0.8935
3025.000000 0.8899 0.8864 0.8802 0.8740 0.8669
3020.000000 0.8599 0.8563 0.8519 0.8498 0.8463
3015.000000 0.8447 0.8434 0.8441 0.8449 0.8456
3010.000000 0.8464 0.8469 0.8471 0.8463 0.8472
3005.000000 0.8485 0.8486 0.8480 0.8471 0.8467
3000.000000 0.8473 0.8469 0.8459 0.8435 0.8409
2995.000000 0.8172 0.7935 0.7699 0.7454 0.7242
2990.000000 0.7031 0.6816 0.6605 0.6393 0.6181
2985.000000 0.5969 0.5757 0.5544 0.5332 0.5119
2980.000000 0.4873 0.4884 0.4850 0.4847 0.4852
2975.000000 0.4852 0.4855 0.5366 0.5877 0.6055
2970.000000 0.6234 0.6239 0.6259 0.6230 0.6219
2965.000000 0.6041 0.5864 0.5687 0.5511 0.5406
2960.000000 0.5301 0.5310 0.5340 0.5422 0.5543
2955.000000 0.5749 0.5956 0.6170 0.6376 0.6581
2950.000000 0.6787 0.6993 0.7198 0.7397 0.7596
2945.000000 0.7800 0.8015 0.8084 0.8163 0.8159
2940.000000 0.8165 0.8152 0.8144 0.8081 0.8017
2935.000000 0.7794 0.7583 0.7372 0.7163 0.6953
2930.000000 0.6744 0.6533 0.6324 0.6114 0.5904
2925.000000 0.5865 0.5826 0.5825 0.5844 0.5812
2920.000000 0.5810 0.6306 0.6802 0.7082 0.7363
2915.000000 0.7384 0.7407 0.7424 0.7444 0.7462
2910.000000 0.7480 0.7620 0.7772 0.8042 0.8297
2905.000000 0.8348 0.8400 0.8436 0.8473 0.8510
2900.000000 0.8547 0.8583 0.8621 0.8642 0.8667
2895.000000 0.8687 0.8708 0.8721 0.8736 0.8744
2890.000000 0.8757 0.8759 0.8766 0.8766 0.8767
2885.000000 0.8767 0.8767 0.8766 0.8763 0.8757
2880.000000 0.8751 0.8736 0.8720 0.8657 0.8624
2875.000000 0.8491 0.8359 0.8367 0.8378 0.8390
2870.000000 0.8403 0.8424 0.8447 0.8468 0.8493
2865.000000 0.8516 0.8539 0.8561 0.8585 0.8605
2860.000000 0.8626 0.8631 0.8637 0.8643 0.8650
2855.000000 0.8655 0.8648 0.8664 0.8682 0.8713
2850.000000 0.8745 0.8781 0.8818 0.8840 0.8874
2845.000000 0.8893 0.8908 0.8911 0.8932 0.8942
2840.000000 0.8945 0.8953 0.8972 0.8982 0.8983
2835.000000 0.8985 0.8996 0.9005 0.9016 0.9025
2830.000000 0.9036 0.9057 0.9057 0.9077 0.9087
2825.000000 0.9080 0.9086 0.9109 0.9102 0.9124
2820.000000 0.9133 0.9137 0.9132 0.9139 0.9146
2815.000000 0.9154 0.9161 0.9166 0.9172 0.9177
2810.000000 0.9183 0.9188 0.9203 0.9215 0.9220
2805.000000 0.9225 0.9232 0.9237 0.9242 0.9248
2800.000000 0.9253 0.9258 0.9264 0.9270 0.9275
2795.000000 0.9280 0.9286 0.9290 0.9292 0.9286
2790.000000 0.9301 0.9294 0.9299 0.9303 0.9307
2785.000000 0.9318 0.9334 0.9330 0.9327 0.9341
2780.000000 0.9353 0.9357 0.9361 0.9366 0.9370
2775.000000 0.9373 0.9378 0.9382 0.9387 0.9389
2770.000000 0.9392 0.9393 0.9395 0.9396 0.9397
2765.000000 0.9398 0.9399 0.9400 0.9402 0.9402
2760.000000 0.9402 0.9402 0.9401 0.9399 0.9397
2755.000000 0.9395 0.9393 0.9391 0.9388 0.9386
2750.000000 0.9383 0.9382 0.9380 0.9378 0.9376
2745.000000 0.9373 0.9373 0.9371 0.9370 0.9369
2740.000000 0.9369 0.9368 0.9367 0.9366 0.9366
2735.000000 0.9366 0.9368 0.9372 0.9380 0.9385
2730.000000 0.9391 0.9397 0.9403 0.9408 0.9415
2725.000000 0.9420 0.9425 0.9431 0.9436 0.9442
2720.000000 0.9448 0.9453 0.9459 0.9464 0.9470
2715.000000 0.9476 0.9481 0.9487 0.9492 0.9498
2710.000000 0.9504 0.9509 0.9515 0.9520 0.9526
2705.000000 0.9528 0.9530 0.9530 0.9530 0.9530
2700.000000 0.9530 0.9530 0.9532 0.9532 0.9533
2695.000000 0.9533 0.9533 0.9533 0.9533 0.9533
2690.000000 0.9535 0.9535 0.9535 0.9535 0.9535
2685.000000 0.9533 0.9533 0.9533 0.9533 0.9532
2680.000000 0.9532 0.9530 0.9530 0.9530 0.9530
2675.000000 0.9529 0.9529 0.9528 0.9528 0.9527
2670.000000 0.9526 0.9524 0.9522 0.9520 0.9519
2665.000000 0.9517 0.9516 0.9514 0.9513 0.9511
2660.000000 0.9509 0.9506 0.9507 0.9520 0.9519
2655.000000 0.9515 0.9513 0.9511 0.9509 0.9500
2650.000000 0.9487 0.9484 0.9490 0.9495 0.9493
2645.000000 0.9480 0.9471 0.9468 0.9477 0.9469
2640.000000 0.9465 0.9464 0.9464 0.9463 0.9462
2635.000000 0.9461 0.9477 0.9476 0.9475 0.9458
2630.000000 0.9461 0.9475 0.9475 0.9477 0.9479
2625.000000 0.9481 0.9484 0.9486 0.9490 0.9492
2620.000000 0.9495 0.9496 0.9537 0.9500 0.9503
2615.000000 0.9505 0.9507 0.9508 0.9511 0.9512
2610.000000 0.9514 0.9516 0.9519 0.9521 0.9524
2605.000000 0.9526 0.9528 0.9531 0.9534 0.9536
2600.000000 0.9538 0.9540 0.9543 0.9545 0.9548
2595.000000 0.9551 0.9553 0.9553 0.9556 0.9556
2590.000000 0.9558 0.9559 0.9561 0.9562 0.9564
2585.000000 0.9565 0.9566 0.9566 0.9567 0.9564
2580.000000 0.9562 0.9559 0.9556 0.9551 0.9547
2575.000000 0.9540 0.9532 0.9524 0.9516 0.9506
2570.000000 0.9495 0.9487 0.9477 0.9465 0.9455
2565.000000 0.9442 0.9429 0.9418 0.9406 0.9399
2560.000000 0.9391 0.9384 0.9355 0.9373 0.9373
2555.000000 0.9372 0.9374 0.9385 0.9396 0.9410
2550.000000 0.9425 0.9438 0.9451 0.9462 0.9474
2545.000000 0.9484 0.9495 0.9507 0.9519 0.9527
2540.000000 0.9537 0.9544 0.9554 0.9561 0.9570
2535.000000 0.9578 0.9587 0.9589 0.9592 0.9592
2530.000000 0.9592 0.9592 0.9593 0.9593 0.9594
2525.000000 0.9594 0.9595 0.9595 0.9596 0.9596
2520.000000 0.9597 0.9597 0.9597 0.9597 0.9597
2515.000000 0.9597 0.9597 0.9597 0.9597 0.9597
2510.000000 0.9597 0.9597 0.9597 0.9597 0.9597
2505.000000 0.9597 0.9597 0.9597 0.9597 0.9597
2500.000000 0.9597 0.9597 0.9597 0.9597 0.9597
2495.000000 0.9597 0.9597 0.9597 0.9597 0.9597
2490.000000 0.9597 0.9596 0.9596 0.9596 0.9596
2485.000000 0.9596 0.9596 0.9596 0.9596 0.9607
2480.000000 0.9613 0.9613 0.9613 0.9613 0.9613
2475.000000 0.9613 0.9613 0.9613 0.9613 0.9612
2470.000000 0.9611 0.9610 0.9610 0.9609 0.9607
2465.000000 0.9606 0.9606 0.9605 0.9605 0.9604
2460.000000 0.9603 0.9602 0.9594 0.9593 0.9591
2455.000000 0.9582 0.9582 0.9592 0.9597 0.9596
2450.000000 0.9583 0.9591 0.9593 0.9592 0.9592
2445.000000 0.9591 0.9591 0.9590 0.9589 0.9588
2440.000000 0.9588 0.9587 0.9586 0.9582 0.9578
2435.000000 0.9574 0.9570 0.9567 0.9562 0.9557
2430.000000 0.9553 0.9548 0.9543 0.9538 0.9534
2425.000000 0.9528 0.9524 0.9520 0.9516 0.9511
2420.000000 0.9506 0.9504 0.9501 0.9498 0.9495
2415.000000 0.9492 0.9489 0.9486 0.9484 0.9483
2410.000000 0.9483 0.9493 0.9508 0.9509 0.9529
2405.000000 0.9536 0.9544 0.9551 0.9558 0.9563
2400.000000 0.9567 0.9571 0.9575 0.9578 0.9583
2395.000000 0.9588 0.9592 0.9596 0.9602 0.9601
2390.000000 0.9601 0.9616 0.9615 0.9614 0.9598
2385.000000 0.9612 0.9624 0.9621 0.9622 0.9632
2380.000000 0.9628 0.9631 0.9640 0.9644 0.9651
2375.000000 0.9649 0.9656 0.9661 0.9659 0.9657
2370.000000 0.9656 0.9641 0.9635 0.9633 0.9632
2365.000000 0.9629 0.9627 0.9625 0.9624 0.9623
2360.000000 0.9637 0.9636 0.9649 0.9651 0.9666
2355.000000 0.9679 0.9679 0.9679 0.9679 0.9672
2350.000000 0.9665 0.9665 0.9673 0.9689 0.9695
2345.000000 0.9694 0.9681 0.9675 0.9674 0.9672
2340.000000 0.9671 0.9655 0.9667 0.9667 0.9650
2335.000000 0.9648 0.9664 0.9663 0.9663 0.9664
2330.000000 0.9679 0.9678 0.9678 0.9681 0.9692
2325.000000 0.9697 0.9708 0.9707 0.9707 0.9706
2320.000000 0.9706 0.9704 0.9703 0.9679 0.9655
2315.000000 0.9634 0.9614 0.9595 0.9576 0.9561
2310.000000 0.9547 0.9534 0.9522 0.9513 0.9503
2305.000000 0.9500 0.9496 0.9493 0.9490 0.9488
2300.000000 0.9487 0.9491 0.9502 0.9501 0.9502
2295.000000 0.9502 0.9505 0.9508 0.9512 0.9514
2290.000000 0.9517 0.9525 0.9522 0.9529 0.9540
2285.000000 0.9549 0.9558 0.9550 0.9556 0.9564
2280.000000 0.9571 0.9578 0.9570 0.9577 0.9583
2275.000000 0.9577 0.9584 0.9592 0.9594 0.9590
2270.000000 0.9599 0.9599 0.9597 0.9605 0.9613
2265.000000 0.9609 0.9607 0.9611 0.9617 0.9608
2260.000000 0.9610 0.9614 0.9605 0.9607 0.9612
2255.000000 0.9617 0.9606 0.9610 0.9616 0.9618
2250.000000 0.9606 0.9612 0.9616 0.9619 0.9623
2245.000000 0.9622 0.9615 0.9619 0.9624 0.9628
2240.000000 0.9632 0.9635 0.9639 0.9643 0.9646
2235.000000 0.9636 0.9633 0.9635 0.9636 0.9638
2230.000000 0.9641 0.9643 0.9645 0.9646 0.9648
2225.000000 0.9650 0.9652 0.9653 0.9653 0.9640
2220.000000 0.9642 0.9642 0.9643 0.9643 0.9644
2215.000000 0.9644 0.9645 0.9645 0.9646 0.9646
2210.000000 0.9647 0.9647 0.9648 0.9649 0.9650
2205.000000 0.9650 0.9651 0.9651 0.9652 0.9652
2200.000000 0.9653 0.9653 0.9654 0.9654 0.9653
2195.000000 0.9641 0.9656 0.9652 0.9640 0.9640
2190.000000 0.9641 0.9641 0.9641 0.9641 0.9642
2185.000000 0.9642 0.9653 0.9650 0.9643 0.9643
2180.000000 0.9644 0.9644 0.9658 0.9661 0.9661
2175.000000 0.9661 0.9663 0.9663 0.9663 0.9663
2170.000000 0.9664 0.9662 0.9647 0.9647 0.9647
2165.000000 0.9647 0.9647 0.9647 0.9647 0.9647
2160.000000 0.9647 0.9647 0.9647 0.9647 0.9647
2155.000000 0.9647 0.9647 0.9647 0.9647 0.9647
2150.000000 0.9647 0.9647 0.9647 0.9647 0.9647
2145.000000 0.9647 0.9647 0.9647 0.9647 0.9646
2140.000000 0.9646 0.9646 0.9646 0.9646 0.9646
2135.000000 0.9644 0.9644 0.9644 0.9644 0.9643
2130.000000 0.9642 0.9640 0.9640 0.9639 0.9638
2125.000000 0.9637 0.9637 0.9636 0.9621 0.9632
2120.000000 0.9634 0.9631 0.9628 0.9623 0.9619
2115.000000 0.9615 0.9611 0.9606 0.9601 0.9597
2110.000000 0.9593 0.9588 0.9584 0.9580 0.9576
2105.000000 0.9570 0.9566 0.9560 0.9554 0.9545
2100.000000 0.9537 0.9532 0.9515 0.9506 0.9515
2095.000000 0.9517 0.9502 0.9514 0.9515 0.9514
2090.000000 0.9513 0.9512 0.9511 0.9510 0.9509
2085.000000 0.9508 0.9507 0.9505 0.9505 0.9504
2080.000000 0.9504 0.9504 0.9504 0.9503 0.9503
2075.000000 0.9502 0.9502 0.9501 0.9501 0.9501
2070.000000 0.9501 0.9501 0.9501 0.9501 0.9501
2065.000000 0.9500 0.9500 0.9500 0.9500 0.9500
2060.000000 0.9500 0.9498 0.9497 0.9498 0.9511
2055.000000 0.9510 0.9508 0.9507 0.9499 0.9495
2050.000000 0.9503 0.9494 0.9484 0.9484 0.9483
2045.000000 0.9481 0.9479 0.9476 0.9474 0.9471
2040.000000 0.9468 0.9464 0.9460 0.9457 0.9454
2035.000000 0.9451 0.9448 0.9445 0.9443 0.9441
2030.000000 0.9438 0.9437 0.9441 0.9444 0.9431
2025.000000 0.9436 0.9444 0.9442 0.9440 0.9438
2020.000000 0.9436 0.9434 0.9433 0.9431 0.9429
2015.000000 0.9427 0.9426 0.9423 0.9422 0.9420
2010.000000 0.9419 0.9418 0.9417 0.9416 0.9416
2005.000000 0.9414 0.9412 0.9404 0.9399 0.9389
2000.000000 0.9381 0.9396 0.9404 0.9409 0.9425
1995.000000 0.9440 0.9454 0.9457 0.9461 0.9463
1990.000000 0.9466 0.9469 0.9472 0.9473 0.9460
1985.000000 0.9458 0.9459 0.9460 0.9461 0.9462
1980.000000 0.9463 0.9462 0.9449 0.9449 0.9450
1975.000000 0.9450 0.9452 0.9453 0.9456 0.9457
1970.000000 0.9460 0.9462 0.9464 0.9467 0.9478
1965.000000 0.9477 0.9473 0.9486 0.9493 0.9496
1960.000000 0.9498 0.9500 0.9502 0.9503 0.9505
1955.000000 0.9507 0.9493 0.9494 0.9495 0.9496
1950.000000 0.9495 0.9482 0.9484 0.9485 0.9486
1945.000000 0.9488 0.9489 0.9489 0.9489 0.9488
1940.000000 0.9485 0.9484 0.9482 0.9480 0.9478
1935.000000 0.9477 0.9475 0.9473 0.9471 0.9469
1930.000000 0.9465 0.9463 0.9461 0.9459 0.9457
1925.000000 0.9455 0.9453 0.9451 0.9448 0.9448
1920.000000 0.9448 0.9448 0.9448 0.9448 0.9447
1915.000000 0.9447 0.9446 0.9445 0.9445 0.9443
1910.000000 0.9443 0.9443 0.9442 0.9454 0.9458
1905.000000 0.9458 0.9458 0.9458 0.9456 0.9456
1900.000000 0.9456 0.9456 0.9456 0.9456 0.9455
1895.000000 0.9455 0.9454 0.9452 0.9452 0.9446
1890.000000 0.9435 0.9434 0.9432 0.9432 0.9432
1885.000000 0.9432 0.9441 0.9447 0.9447 0.9447
1880.000000 0.9448 0.9448 0.9450 0.9451 0.9454
1875.000000 0.9469 0.9471 0.9470 0.9467 0.9463
1870.000000 0.9459 0.9456 0.9453 0.9449 0.9445
1865.000000 0.9437 0.9428 0.9419 0.9410 0.9400
1860.000000 0.9392 0.9377 0.9362 0.9357 0.9336
1855.000000 0.9313 0.9298 0.9281 0.9263 0.9239
1850.000000 0.9234 0.9246 0.9253 0.9261 0.9273
1845.000000 0.9286 0.9297 0.9309 0.9323 0.9335
1840.000000 0.9348 0.9361 0.9374 0.9384 0.9384
1835.000000 0.9380 0.9387 0.9386 0.9386 0.9383
1830.000000 0.9380 0.9377 0.9373 0.9367 0.9362
1825.000000 0.9357 0.9352 0.9345 0.9341 0.9335
1820.000000 0.9329 0.9340 0.9334 0.9369 0.9323
1815.000000 0.9316 0.9312 0.9307 0.9305 0.9303
1810.000000 0.9301 0.9293 0.9281 0.9280 0.9280
1805.000000 0.9281 0.9272 0.9266 0.9266 0.9265
1800.000000 0.9264 0.9262 0.9260 0.9257 0.9254
1795.000000 0.9251 0.9248 0.9245 0.9241 0.9228
1790.000000 0.9216 0.9203 0.9191 0.9175 0.9155
1785.000000 0.9134 0.9113 0.9076 0.9038 0.9000
1780.000000 0.8939 0.8870 0.8807 0.8764 0.8711
1775.000000 0.8661 0.8617 0.8573 0.8521 0.8448
1770.000000 0.8408 0.8399 0.8389 0.8382 0.8357
1765.000000 0.8377 0.8377 0.8386 0.8399 0.8427
1760.000000 0.8463 0.8507 0.8560 0.8601 0.8641
1755.000000 0.8682 0.8722 0.8761 0.8801 0.8840
1750.000000 0.8883 0.8926 0.8970 0.9011 0.9041
1745.000000 0.9070 0.9100 0.9130 0.9148 0.9164
1740.000000 0.9177 0.9186 0.9193 0.9201 0.9208
1735.000000 0.9209 0.9210 0.9210 0.9212 0.9212
1730.000000 0.9211 0.9212 0.9211 0.9210 0.9208
1725.000000 0.9206 0.9206 0.9204 0.9202 0.9199
1720.000000 0.9198 0.9195 0.9193 0.9247 0.9189
1715.000000 0.9186 0.9183 0.9181 0.9179 0.9175
1710.000000 0.9172 0.9170 0.9167 0.9163 0.9157
1705.000000 0.9146 0.9135 0.9124 0.9113 0.9101
1700.000000 0.9090 0.9078 0.9067 0.9055 0.9043
1695.000000 0.9030 0.9019 0.9008 0.8992 0.8977
1690.000000 0.8962 0.8946 0.8931 0.8916 0.8899
1685.000000 0.8879 0.8859 0.8839 0.8818 0.8799
1680.000000 0.8773 0.8743 0.8715 0.8687 0.8656
1675.000000 0.8608 0.8561 0.8517 0.8482 0.8440
1670.000000 0.8396 0.8352 0.8306 0.8249 0.8191
1665.000000 0.8133 0.8075 0.7962 0.7757 0.7528
1660.000000 0.7341 0.7146 0.6620 0.6517 0.6394
1655.000000 0.6248 0.5401 0.4795 0.4186 0.3586
1650.000000 0.2982 0.2378 0.1773 0.1169 0.0564
1645.000000 0.0385 0.0412 0.0394 0.0440 0.0572
1640.000000 0.0928 0.1284 0.1642 0.2000 0.2359
1635.000000 0.2718 0.3075 0.3436 0.3796 0.4161
1630.000000 0.4520 0.4887 0.5247 0.5616 0.6396
1625.000000 0.6583 0.6747 0.6895 0.7097 0.7216
1620.000000 0.7311 0.7393 0.7427 0.7465 0.7522
1615.000000 0.7584 0.7678 0.7766 0.7858 0.7959
1610.000000 0.8048 0.8112 0.8156 0.8193 0.8236
1605.000000 0.8259 0.8328 0.8348 0.8387 0.8374
1600.000000 0.8417 0.8443 0.8468 0.8490 0.8486
1595.000000 0.8462 0.8415 0.8341 0.8357 0.8400
1590.000000 0.8403 0.8411 0.8399 0.8380 0.8370
1585.000000 0.8350 0.8375 0.8404 0.8404 0.8415
1580.000000 0.8413 0.8412 0.8385 0.8375 0.8351
1575.000000 0.8345 0.8267 0.8199 0.8130 0.8097
1570.000000 0.8024 0.7974 0.7914 0.7900 0.7885
1565.000000 0.7887 0.7888 0.7884 0.7858 0.7845
1560.000000 0.7865 0.7888 0.7926 0.7972 0.8027
1555.000000 0.8124 0.8206 0.8346 0.8419 0.8511
1550.000000 0.8570 0.8592 0.8610 0.8649 0.8739
1545.000000 0.8856 0.8952 0.9072 0.9148 0.9174
1540.000000 0.9194 0.9191 0.9211 0.9211 0.9242
1535.000000 0.9240 0.9202 0.9151 0.9109 0.9068
1530.000000 0.9038 0.9028 0.9023 0.9019 0.9027
1525.000000 0.9040 0.9062 0.9067 0.9081 0.9072
1520.000000 0.9083 0.9097 0.9098 0.9115 0.9126
1515.000000 0.9127 0.9138 0.9139 0.9148 0.9144
1510.000000 0.9145 0.9152 0.9147 0.9141 0.9136
1505.000000 0.9128 0.9130 0.9112 0.9088 0.9075
1500.000000 0.9066 0.9055 0.9028 0.9014 0.8999
1495.000000 0.9001 0.8987 0.8988 0.8992 0.8992
1490.000000 0.8957 0.8912 0.8866 0.8825 0.8797
1485.000000 0.8782 0.8772 0.8791 0.8824 0.8850
1480.000000 0.8855 0.8834 0.8802 0.8772 0.8760
1475.000000 0.8742 0.8710 0.8693 0.8658 0.8616
1470.000000 0.8554 0.8492 0.8431 0.8382 0.8316
1465.000000 0.8248 0.8169 0.8103 0.8028 0.7945
1460.000000 0.7846 0.7734 0.7593 0.7411 0.7110
1455.000000 0.6678 0.6491 0.6233 0.6035 0.5281
1450.000000 0.4704 0.4131 0.3560 0.2986 0.2416
1445.000000 0.1845 0.1430 0.1433 0.1439 0.1448
1440.000000 0.1690 0.2312 0.2936 0.3559 0.4181
1435.000000 0.4806 0.5429 0.6052 0.6596 0.6641
1430.000000 0.6629 0.6645 0.6598 0.6523 0.5967
1425.000000 0.5417 0.4860 0.4519 0.4520 0.4523
1420.000000 0.4823 0.5123 0.5423 0.5723 0.6014
1415.000000 0.6312 0.6611 0.6911 0.7211 0.7508
1410.000000 0.7792 0.7913 0.7989 0.8050 0.8093
1405.000000 0.8121 0.8144 0.8162 0.8181 0.8179
1400.000000 0.8178 0.8179 0.8175 0.8154 0.8115
1395.000000 0.8065 0.7995 0.7914 0.7825 0.7703
1390.000000 0.7574 0.7449 0.7307 0.7122 0.6739
1385.000000 0.6353 0.5942 0.5511 0.5187 0.5173
1380.000000 0.5313 0.5625 0.5945 0.6265 0.6581
1375.000000 0.6892 0.6952 0.6953 0.6954 0.6976
1370.000000 0.6967 0.6932 0.6664 0.6388 0.6110
1365.000000 0.6034 0.6038 0.6175 0.6525 0.7010
1360.000000 0.7496 0.7982 0.8413 0.8512 0.8576
1355.000000 0.8633 0.8690 0.8751 0.8816 0.8879
1350.000000 0.8926 0.8972 0.9002 0.9024 0.9041
1345.000000 0.9060 0.9072 0.9082 0.9085 0.9089
1340.000000 0.9131 0.9092 0.9094 0.9100 0.9105
1335.000000 0.9109 0.9112 0.9113 0.9115 0.9115
1330.000000 0.9115 0.9095 0.9089 0.9083 0.9075
1325.000000 0.9055 0.9047 0.9035 0.9015 0.9001
1320.000000 0.8988 0.8974 0.8949 0.8919 0.8880
1315.000000 0.8835 0.8789 0.8746 0.8711 0.8678
1310.000000 0.8646 0.8672 0.8631 0.8657 0.8716
1305.000000 0.8799 0.8843 0.8903 0.8961 0.9009
1300.000000 0.9056 0.9104 0.9152 0.9199 0.9237
1295.000000 0.9280 0.9306 0.9322 0.9337 0.9335
1290.000000 0.9331 0.9332 0.9333 0.9332 0.9332
1285.000000 0.9331 0.9324 0.9314 0.9304 0.9293
1280.000000 0.9274 0.9237 0.9199 0.9151 0.9118
1275.000000 0.9045 0.8966 0.8898 0.8837 0.8768
1270.000000 0.8607 0.8424 0.8277 0.8160 0.8056
1265.000000 0.7929 0.7858 0.7833 0.7819 0.7813
1260.000000 0.7813 0.7813 0.7839 0.7882 0.7970
1255.000000 0.8233 0.8356 0.8415 0.8483 0.8547
1250.000000 0.8613 0.8661 0.8701 0.8740 0.8762
1245.000000 0.8780 0.8789 0.8805 0.8815 0.8828
1240.000000 0.8838 0.8855 0.8872 0.8876 0.8880
1235.000000 0.8880 0.8880 0.8891 0.8888 0.8885
1230.000000 0.8882 0.8873 0.8863 0.8853 0.8842
1225.000000 0.8834 0.8823 0.8809 0.8794 0.8781
1220.000000 0.8765 0.8739 0.8714 0.8688 0.8664
1215.000000 0.8637 0.8604 0.8570 0.8543 0.8501
1210.000000 0.8457 0.8412 0.8365 0.8317 0.8268
1205.000000 0.8218 0.8167 0.8122 0.8062 0.7670
1200.000000 0.7424 0.7293 0.7141 0.6984 0.6791
1195.000000 0.6636 0.6498 0.6375 0.6219 0.5994
1190.000000 0.5835 0.5710 0.5276 0.4778 0.4280
1185.000000 0.3782 0.3284 0.2783 0.2281 0.1782
1180.000000 0.1287 0.0790 0.0345 0.0278 0.0256
1175.000000 0.0220 0.0247 0.0272 0.0300 0.0350
1170.000000 0.0468 0.0822 0.1053 0.1337 0.1702
1165.000000 0.2069 0.2436 0.2801 0.3168 0.3534
1160.000000 0.3900 0.4267 0.4634 0.5000 0.5365
1155.000000 0.5733 0.6099 0.6465 0.6832 0.7190
1150.000000 0.7767 0.7825 0.7860 0.7915 0.7976
1145.000000 0.8022 0.8066 0.8092 0.8132 0.8157
1140.000000 0.8172 0.8218 0.8218 0.8230 0.8231
1135.000000 0.8226 0.8189 0.8125 0.7945 0.7639
1130.000000 0.7463 0.7237 0.7173 0.7145 0.7144
1125.000000 0.7142 0.7191 0.7333 0.7618 0.7867
1120.000000 0.8022 0.8177 0.8332 0.8487 0.8656
1115.000000 0.8812 0.8942 0.9030 0.9099 0.9158
1110.000000 0.9187 0.9209 0.9222 0.9251 0.9254
1105.000000 0.9271 0.9287 0.9297 0.9306 0.9313
1100.000000 0.9322 0.9329 0.9337 0.9345 0.9353
1095.000000 0.9359 0.9363 0.9368 0.9372 0.9376
1090.000000 0.9380 0.9385 0.9389 0.9393 0.9397
1085.000000 0.9400 0.9406 0.9411 0.9414 0.9406
1080.000000 0.9410 0.9412 0.9403 0.9400 0.9390
1075.000000 0.9397 0.9393 0.9403 0.9413 0.9403
1070.000000 0.9389 0.9368 0.9339 0.9310 0.9260
1065.000000 0.9191 0.9127 0.9080 0.9095 0.9097
1060.000000 0.9097 0.9243 0.9309 0.9334 0.9334
1055.000000 0.9349 0.9358 0.9374 0.9364 0.9364
1050.000000 0.9370 0.9361 0.9351 0.9341 0.9332
1045.000000 0.9322 0.9314 0.9310 0.9308 0.9308
1040.000000 0.9308 0.9313 0.9319 0.9327 0.9336
1035.000000 0.9346 0.9355 0.9367 0.9380 0.9393
1030.000000 0.9386 0.9394 0.9402 0.9410 0.9411
1025.000000 0.9402 0.9406 0.9411 0.9412 0.9413
1020.000000 0.9412 0.9411 0.9406 0.9395 0.9384
1015.000000 0.9368 0.9351 0.9335 0.9316 0.9297
1010.000000 0.9278 0.9254 0.9215 0.9189 0.9158
1005.000000 0.9117 0.9044 0.8979 0.8898 0.8712
1000.000000 0.8672 0.8689 0.8684 0.8836 0.9078
995.000000 0.9128 0.9178 0.9232 0.9281 0.9331
990.000000 0.9354 0.9371 0.9374 0.9377 0.9380
985.000000 0.9379 0.9378 0.9377 0.9376 0.9373
980.000000 0.9369 0.9365 0.9364 0.9367 0.9369
975.000000 0.9372 0.9375 0.9375 0.9367 0.9383
970.000000 0.9387 0.9388 0.9391 0.9393 0.9394
965.000000 0.9395 0.9397 0.9398 0.9394 0.9382
960.000000 0.9383 0.9383 0.9374 0.9361 0.9350
955.000000 0.9337 0.9325 0.9312 0.9288 0.9268
950.000000 0.9246 0.9224 0.9194 0.9165 0.9135
945.000000 0.9106 0.9075 0.9046 0.9015 0.8975
940.000000 0.8930 0.8885 0.8819 0.8751 0.8672
935.000000 0.8556 0.8429 0.8096 0.7424 0.7014
930.000000 0.6604 0.6194 0.5785 0.5374 0.5324
925.000000 0.5324 0.5338 0.5766 0.6300 0.6832
920.000000 0.7365 0.7899 0.8298 0.8384 0.8464
915.000000 0.8511 0.8556 0.8531 0.8537 0.8533
910.000000 0.8512 0.8489 0.8473 0.8448 0.8410
905.000000 0.8382 0.8337 0.8276 0.8228 0.8155
900.000000 0.8065 0.7834 0.7613 0.7392 0.7173
895.000000 0.6951 0.6740 0.6518 0.6306 0.5985
890.000000 0.5467 0.4947 0.4427 0.3899 0.3367
885.000000 0.2830 0.2289 0.1741 0.1188 0.0630
880.000000 0.0286 0.0235 0.0201 0.0207 0.0230
875.000000 0.0272 0.0333 0.0413 0.0517 0.0664
870.000000 0.0954 0.1360 0.1818 0.2285 0.2750
865.000000 0.3221 0.3701 0.4186 0.4668 0.5157
860.000000 0.5654 0.6149 0.7780 0.8009 0.8160
855.000000 0.8303 0.8431 0.8506 0.8571 0.8617
850.000000 0.8657 0.8685 0.8732 0.8771 0.8801
845.000000 0.8848 0.8887 0.8936 0.8983 0.9014
840.000000 0.9063 0.9124 0.9146 0.9174 0.9191
835.000000 0.9226 0.9268 0.9304 0.9340 0.9367
830.000000 0.9401 0.9438 0.9464 0.9501 0.9513
825.000000 0.9524 0.9544 0.9563 0.9582 0.9574
820.000000 0.9574 0.9578 0.9579 0.9578 0.9596
815.000000 0.9596 0.9596 0.9597 0.9616 0.9631
810.000000 0.9634 0.9648 0.9642 0.9627 0.9630
805.000000 0.9641 0.9638 0.9636 0.9635 0.9633
800.000000 0.9632 0.9630 0.9628 0.9626 0.9626
795.000000 0.9631 0.9622 0.9622 0.9631 0.9656
790.000000 0.9653 0.9664 0.9674 0.9685 0.9697
785.000000 0.9711 0.9724 0.9721 0.9719 0.9725
780.000000 0.9725 0.9737 0.9743 0.9743 0.9748
775.000000 0.9750 0.9751 0.9743 0.9737 0.9738
770.000000 0.9738 0.9718 0.9704 0.9696 0.9688
765.000000 0.9666 0.9654 0.9646 0.9635 0.9628
760.000000 0.9616 0.9604 0.9592 0.9580 0.9563
755.000000 0.9547 0.9544 0.9556 0.9553 0.9553
750.000000 0.9553 0.9555 0.9556 0.9556 0.9558
745.000000 0.9558 0.9558 0.9556 0.9556 0.9555
740.000000 0.9552 0.9551 0.9550 0.9548 0.9548
735.000000 0.9603 0.9545 0.9540 0.9535 0.9530
730.000000 0.9540 0.9535 0.9529 0.9523 0.9522
725.000000 0.9528 0.9520 0.9518 0.9520 0.9519
720.000000 0.9512 0.9496 0.9478 0.9472 0.9460
715.000000 0.9444 0.9444 0.9437 0.9427 0.9415
710.000000 0.9403 0.9393 0.9377 0.9359 0.9342
705.000000 0.9323 0.9308 0.9305 0.9287 0.9271
700.000000 0.9263 0.9244 0.9224 0.9205 0.9197
695.000000 0.9198 0.9208 0.9207 0.9209 0.9214
690.000000 0.9220 0.9227 0.9248 0.9264 0.9273
685.000000 0.9284 0.9285 0.9300 0.9302 0.9303
680.000000 0.9314 0.9305 0.9329 0.9336 0.9358
675.000000 0.9353 0.9321 0.9299 0.9268 0.9251
670.000000 0.9258 0.9348 0.9389 0.9253 0.9131
665.000000 0.9101 0.9076 0.9025 0.8975 0.8933
660.000000 0.8874 0.8813 0.8739 0.8684 0.8621
655.000000 0.8542 0.8461 0.8333 0.8187 0.8053
650.000000 0.7909 0.7765 0.7588 0.7266 0.7007
645.000000 0.6761 0.6442 0.6208 0.5627 0.4881
640.000000 0.4136 0.3400 0.2664 0.1933 0.1208
635.000000 0.0562 0.0528 0.0508 0.0519 0.0540
630.000000 0.0599 0.0761 0.1032 0.1646 0.2312
625.000000 0.2981 0.3651 0.4312 0.4979 0.5647
620.000000 0.6315 0.6916 0.7214 0.7782 0.8004
615.000000 0.8211 0.8332 0.8451 0.8579 0.8710
610.000000 0.8843 0.8923 0.8987 0.9041 0.9099
605.000000 0.9157 0.9205 0.9254 0.9302 0.9351
600.000000 0.9384 0.9412 0.9440 0.9469 0.9498
595.000000 0.9527 0.9554 0.9574 0.9595 0.9614
590.000000 0.9634 0.9654 0.9667 0.9675 0.9685
585.000000 0.9701 0.9705 0.9719 0.9731 0.9737
580.000000 0.9744 0.9749 0.9757 0.9749 0.9752
575.000000 0.9758 0.9779 0.9787 0.9792 0.9797
570.000000 0.9801 0.9805 0.9806 0.9796 0.9799
565.000000 0.9813 0.9808 0.9794 0.9793 0.9791
560.000000 0.9791 0.9790 0.9787 0.9787 0.9786
555.000000 0.9775 0.9765 0.9761 0.9744 0.9744
550.000000 0.9742 0.9733 0.9720 0.9706 0.9693
545.000000 0.9683 0.9674 0.9666 0.9657 0.9660
540.000000 0.9669 0.9685 0.9717 0.9738 0.9769
535.000000 0.9777 0.9777 0.9794 0.9800 0.9804
530.000000 0.9810 0.9813 0.9827 0.9815 0.9826
525.000000 0.9835 0.9835 0.9835 0.9835 0.9834
520.000000 0.9832 0.9830 0.9827 0.9824 0.9821
515.000000 0.9819 0.9817 0.9815 0.9812 0.9805
510.000000 0.9797 0.9788 0.9779 0.9770 0.9760
505.000000 0.9749 0.9735 0.9720 0.9706 0.9692
500.000000 0.9677 0.9662 0.9648 0.9629 0.9610
495.000000 0.9590 0.9571 0.9552 0.9533 0.9513
490.000000 0.9493 0.9475 0.9450 0.9424 0.9397
485.000000 0.9371 0.9344 0.9317 0.9291 0.9262
480.000000 0.9227 0.9192 0.9158 0.9122 0.9088
475.000000 0.9053 0.9017 0.8980 0.8943 0.8904
470.000000 0.8867 0.8829 0.8786 0.8742 0.8699
465.000000 0.8656 0.8612 0.8556 0.8494 0.8434
460.000000 0.8372 0.8312 0.8239 0.8160 0.8080
455.000000 0.7992 0.7889 0.7784 0.7668 0.7541
450.000000 0.7373 0.7101 0.6853 0.6695 0.6573
445.000000 0.6453 0.6351 0.6249 0.5779 0.5452
440.000000 0.4696 0.3940 0.2717 0.2721 0.2720
435.000000 0.2769 0.3369 0.3969 0.4570 0.5170
430.000000 0.5419 0.5471 0.5436 0.5433 0.5416
425.000000 0.5394 0.5343 0.5275 0.5019 0.4701
420.000000 0.4384 0.4065 0.3750 0.3432 0.3115
415.000000 0.2797 0.2479 0.2162 0.1844 0.1528
410.000000 0.1210 0.0893 0.0736 0.0699 0.0668
405.000000 0.0649 0.0633 0.0628 0.0624
##END=
