##TITLE=Carbon tetrabromide
##JCAMP-DX=4.24
##DATA TYPE=INFRARED SPECTRUM
##ORIGIN=EPA-IR VAPOR PHASE LIBRARY
##OWNER=SRD/NIST
Collection (C) 2018 copyright by the U.S. Secretary of Commerce
on behalf of the United States of America. All rights reserved.
##CAS REGISTRY NO=558-13-4
##MOLFORM=C Br 4
##$NIST SOURCE=MSDC-IR
##STATE=gas
##XUNITS=1/CM
##YUNITS=ABSORBANCE
##XFACTOR=1.
##YFACTOR=0.001
##DELTAX=3.85796
##FIRSTX=501.5
##LASTX=4000.7
##FIRSTY=0.377
##MAXX=4000.7
##MINX=501.534
##MAXY=0.093169
##MINY=0
##NPOINTS=908
##XYDATA=(X++(Y..Y))
501.534 0.377 0.4373 0.4379 0.50541 0.38 0.361 0.299 0.285 0.381 0.4102
540.114 0.304 0.4297 0.4902 0.327 0.378 0.342 0.291 0.383 0.374 0.4701
578.693 0.638 0.6863 0.7129 0.7675 0.8026 0.7822 0.6437 0.7004 0.7651 0.8713
617.273 0.9623 1.0348 1.3013 1.599 1.859 2.389 3.239 4.869 7.089 9.289
655.852 12.459 19.459 27.729 40.159 65.739 93.169 78.859 32.159 8.239 4.139
694.432 2.409 1.849 1.4724 1.3152 1.1214 1.0017 0.9197 0.9482 0.8581 0.8197
733.011 0.7634 0.7238 0.7086 0.7026 0.6962 0.7287 0.7017 0.6534 0.645 0.6411
771.591 0.6251 0.6729 0.763 0.7946 0.8169 0.8794 0.8859 0.8837 0.8061 0.6897
810.170 0.59599 0.57838 0.59421 0.56478 0.57451 0.53594 0.5096 0.56328 0.6246 0.6176
848.750 0.6468 0.6717 0.626 0.6158 0.5861 0.59576 0.5809 0.57171 0.58105 0.56153
887.330 0.57044 0.54096 0.4782 0.508282 0.5318 0.4883 0.4784 0.56482 0.6381 0.6475
925.909 0.7022 0.7422 0.8212 0.9764 1.0044 0.8789 0.6904 0.53308 0.4828 0.4795
964.489 0.508114 0.517697 0.51949 0.55132 0.4908 0.396 0.395 0.484 0.53237 0.457
1003.068 0.4239 0.4191 0.408 0.4114 0.305 0.298 0.275 0.153 0.277 0.406
1041.648 0.4169 0.484 0.50059 0.4693 0.4637 0.4523 0.402 0.4211 0.39 0.295
1080.227 0.264 0.225 0.308 0.4101 0.4789 0.4381 0.4581 0.4873 0.4215 0.4623
1118.807 0.4912 0.4713 0.47 0.55725 0.55789 0.4467 0.383 0.401 0.4959 0.4641
1157.387 0.4259 0.4612 0.389 0.309 0.311 0.29 0.325 0.347 0.311 0.257
1195.966 0.223 0.345 0.4229 0.36 0.326 0.288 0.244 0.291 0.33 0.296
1234.546 0.261 0.29 0.32 0.261 0.12 0 0.004 0.023 0.022 0.038
1273.125 0.12 0.238 0.218 0.239 0.277 0.302 0.368 0.4132 0.4828 0.51925
1311.705 0.51932 0.54992 0.60439 0.6575 0.7033 0.7428 0.7716 0.7901 0.791 0.7879
1350.284 0.7834 0.7855 0.7579 0.732 0.687 0.6438 0.627 0.59399 0.57822 0.57008
1388.864 0.56473 0.56796 0.56956 0.56825 0.55946 0.55098 0.5507 0.55995 0.58595 0.5952
1427.443 0.58985 0.59905 0.6261 0.60831 0.57952 0.58406 0.5973 0.6293 0.6432 0.6133
1466.023 0.60721 0.6172 0.6233 0.6252 0.60707 0.6176 0.6597 0.6928 0.6914 0.6843
1504.603 0.6795 0.7051 0.7331 0.7377 0.7556 0.7609 0.7469 0.7415 0.7427 0.7359
1543.182 0.7225 0.6824 0.6388 0.6266 0.6315 0.6424 0.6508 0.6434 0.6386 0.6151
1581.762 0.59394 0.59907 0.59279 0.59024 0.57668 0.56948 0.5804 0.5776 0.58758 0.59043
1620.341 0.57925 0.56973 0.57657 0.59122 0.57122 0.53546 0.52635 0.54425 0.55991 0.54198
1658.921 0.50354 0.4933 0.5014 0.52193 0.53558 0.54643 0.5601 0.53434 0.517336 0.53252
1697.500 0.53398 0.515619 0.51949 0.52738 0.508053 0.50451 0.4918 0.469 0.465 0.4808
1736.080 0.504 0.50971 0.4829 0.459 0.4674 0.4871 0.4954 0.4965 0.4894 0.4906
1774.659 0.4982 0.4925 0.4889 0.4837 0.50325 0.52951 0.52782 0.52592 0.52709 0.54164
1813.239 0.56207 0.54603 0.517362 0.517221 0.53682 0.54709 0.55979 0.54911 0.55424 0.56505
1851.819 0.55196 0.54279 0.5236 0.53606 0.54544 0.52468 0.53404 0.56394 0.55142 0.53027
1890.398 0.54133 0.5634 0.56386 0.54739 0.54617 0.52061 0.513264 0.52937 0.53628 0.56796
1928.978 0.55536 0.5384 0.54705 0.53255 0.53175 0.54339 0.54495 0.54363 0.54871 0.57608
1967.557 0.55333 0.53438 0.54952 0.54141 0.55147 0.54912 0.53838 0.53722 0.54638 0.54781
2006.137 0.53489 0.54895 0.55066 0.53657 0.53951 0.5444 0.54412 0.54386 0.55721 0.57702
2044.716 0.5641 0.55526 0.56868 0.56453 0.56576 0.56312 0.54673 0.54047 0.52974 0.54619
2083.296 0.57647 0.57082 0.53226 0.53743 0.54197 0.52628 0.53788 0.53285 0.54319 0.53199
2121.875 0.514937 0.54265 0.55653 0.53296 0.52585 0.52561 0.51995 0.53931 0.53202 0.52225
2160.455 0.52897 0.515462 0.53739 0.57939 0.56361 0.56168 0.58407 0.56063 0.54647 0.55558
2199.035 0.56005 0.55157 0.54643 0.55358 0.55734 0.5545 0.56524 0.56698 0.57349 0.59149
2237.614 0.56829 0.54111 0.55843 0.59021 0.58194 0.54151 0.52727 0.53116 0.52791 0.54235
2276.194 0.56166 0.5516 0.53007 0.518172 0.54023 0.565 0.58996 0.60186 0.59004 0.58891
2314.773 0.58017 0.55819 0.55783 0.58007 0.59873 0.6126 0.58593 0.56167 0.56842 0.58456
2353.353 0.59336 0.58744 0.58144 0.5766 0.60025 0.6103 0.59042 0.59442 0.58859 0.60155
2391.932 0.59636 0.55611 0.56691 0.5817 0.59012 0.6129 0.6103 0.58156 0.57123 0.57987
2430.512 0.53681 0.52427 0.58527 0.55393 0.52026 0.55038 0.54466 0.56809 0.59269 0.60365
2469.092 0.60667 0.58077 0.58412 0.57993 0.5637 0.5597 0.55594 0.53911 0.53815 0.54872
2507.671 0.55733 0.56042 0.5684 0.57634 0.58837 0.58108 0.5565 0.5891 0.58477 0.57027
2546.251 0.5699 0.55243 0.57337 0.58252 0.5645 0.56982 0.57874 0.57636 0.56525 0.5904
2584.830 0.6106 0.59594 0.59768 0.59761 0.6129 0.6244 0.58651 0.56916 0.59433 0.58417
2623.410 0.59883 0.642 0.6242 0.58645 0.5881 0.60319 0.57953 0.55717 0.58444 0.59936
2661.989 0.6101 0.6165 0.60188 0.6208 0.6293 0.59558 0.55451 0.55885 0.60327 0.57573
2700.569 0.56693 0.6108 0.60364 0.57774 0.59705 0.6197 0.6306 0.6455 0.6625 0.6818
2739.148 0.6458 0.6419 0.665 0.6411 0.60738 0.6131 0.60486 0.617 0.6369 0.6125
2777.728 0.6267 0.57662 0.52833 0.55565 0.57147 0.6162 0.6607 0.6406 0.6246 0.6176
2816.308 0.6252 0.6024 0.57659 0.60171 0.58995 0.59447 0.59774 0.6134 0.6427 0.6489
2854.887 0.6284 0.56665 0.6252 0.6907 0.6525 0.645 0.6002 0.59571 0.615 0.58499
2893.467 0.57861 0.57342 0.6122 0.6365 0.60472 0.6171 0.6223 0.6202 0.60686 0.59452
2932.046 0.6248 0.6305 0.634 0.622 0.58835 0.5856 0.6411 0.6232 0.55193 0.55812
2970.626 0.56858 0.58555 0.6384 0.6709 0.6374 0.6234 0.6221 0.6492 0.6447 0.59669
3009.205 0.58385 0.582 0.58891 0.5787 0.60177 0.6259 0.6216 0.6217 0.6177 0.6312
3047.785 0.60381 0.5983 0.6103 0.60271 0.59711 0.5756 0.60029 0.6348 0.6791 0.6511
3086.364 0.6214 0.6196 0.60722 0.6387 0.6304 0.6302 0.6542 0.6771 0.6744 0.6155
3124.944 0.6177 0.6342 0.6998 0.7641 0.7459 0.678 0.6516 0.6622 0.6477 0.685
3163.524 0.685 0.651 0.6339 0.6408 0.6761 0.687 0.6515 0.6415 0.6125 0.6271
3202.103 0.60704 0.59795 0.6478 0.6121 0.57759 0.57263 0.56691 0.52529 0.53315 0.55976
3240.683 0.55611 0.57939 0.57784 0.56947 0.60483 0.59508 0.59584 0.6437 0.6119 0.56659
3279.262 0.58773 0.6224 0.6583 0.6312 0.61 0.6131 0.58352 0.57473 0.5948 0.58672
3317.842 0.57679 0.6425 0.6152 0.6116 0.64 0.623 0.59921 0.58991 0.6447 0.6663
3356.421 0.671 0.6538 0.6735 0.6995 0.731 0.6816 0.6281 0.645 0.6207 0.60649
3395.001 0.6205 0.6259 0.6239 0.6329 0.6534 0.664 0.6344 0.6257 0.6296 0.6301
3433.580 0.6262 0.6737 0.7124 0.7177 0.693 0.6724 0.60454 0.5561 0.6595 0.7103
3472.160 0.7043 0.6794 0.59366 0.59917 0.6623 0.6872 0.6595 0.58775 0.60333 0.6201
3510.740 0.6136 0.60138 0.5984 0.6267 0.5335 0.4944 0.56784 0.56137 0.54717 0.6082
3549.319 0.6356 0.60272 0.57392 0.54294 0.6199 0.7023 0.6645 0.664 0.6799 0.6458
3587.899 0.6209 0.6471 0.7008 0.6376 0.57639 0.58483 0.536 0.52168 0.57737 0.5922
3626.478 0.57877 0.57477 0.58354 0.6438 0.6375 0.6321 0.6212 0.643 0.6636 0.59654
3665.058 0.6233 0.6574 0.6797 0.6891 0.6556 0.59916 0.5938 0.6211 0.653 0.6614
3703.637 0.688 0.7239 0.7365 0.7025 0.6311 0.6562 0.6619 0.6248 0.6164 0.60217
3742.217 0.6508 0.6932 0.6584 0.6663 0.6616 0.6283 0.57186 0.57075 0.55299 0.55486
3780.797 0.6667 0.6924 0.6645 0.6375 0.56856 0.60695 0.681 0.7048 0.7375 0.6462
3819.376 0.59649 0.6469 0.6364 0.6572 0.6132 0.56474 0.56125 0.5951 0.6633 0.6923
3857.956 0.6859 0.661 0.6193 0.55659 0.6224 0.6579 0.60618 0.60126 0.6241 0.6426
3896.535 0.676 0.6973 0.7212 0.6579 0.6337 0.6559 0.6253 0.6879 0.7244 0.675
3935.115 0.629 0.6589 0.618 0.6684 0.7134 0.59762 0.55756 0.55028 0.59051 0.57937
3973.694 0.55277 0.59032 0.58991 0.55744 0.57876 0.652 0.7419 0.7478
##END=
