##TITLE=ISOBUTYRAMIDE
##JCAMP-DX=4.24
##DATA TYPE=INFRARED SPECTRUM
##CLASS=COBLENTZ II
##ORIGIN=DOW CHEMICAL COMPANY
##OWNER=COBLENTZ SOC.
Collection (C) 2018 copyright by the U.S. Secretary of Commerce
on behalf of the United States of America. All rights reserved.
##DATE=1966/07/15
##NAMES=2-methylpropanamide
##CAS REGISTRY NO=563-83-7
##MOLFORM=C4 H9 N O
##SOURCE REFERENCE=COBLENTZ NO. 06369
##$NIST SOURCE=COBLENTZ
##$NIST IMAGE=cob6369
##SPECTROMETER/DATA SYSTEM=BECKMAN IR-9 (GRATING)
##INSTRUMENT PARAMETERS=ORDER CHANGES: 670, 1200, 2000 CM^-^1
##STATE=SOLID (SPLIT MULL)
$$ SPECTRAL FEATURE AT 1342 CM^-^1 IS AFFECTED BY A CHANGE IN GRATING
##SAMPLING PROCEDURE=TRANSMISSION
##RESOLUTION=2
##DATA PROCESSING=DIGITIZED BY COBLENTZ SOCIETY (BATCH I) FROM HARD COPY
##XUNITS=1/CM
##YUNITS=TRANSMITTANCE
##XLABEL=Wavenumbers (cm-1)
##YLABEL=% Transmission
##XFACTOR=1
##YFACTOR=1
##DELTAX=1
##FIRSTX=402
##LASTX=3816
##FIRSTY=0.6588
##MAXX=3816
##MINX=402
##MAXY=0.9175
##MINY=0.0423
##NPOINTS=3415
##XYDATA=(X++(Y..Y))
402.000000 0.6588 0.6553 0.6535 0.6518 0.6518
407.000000 0.6530 0.6544 0.6558 0.6588 0.6649
412.000000 0.6722 0.6785 0.6845 0.6901 0.6956
417.000000 0.6993 0.7026 0.7061 0.7096 0.7133
422.000000 0.7169 0.7210 0.7264 0.7318 0.7372
427.000000 0.7436 0.7514 0.7593 0.7646 0.7693
432.000000 0.7740 0.7789 0.7839 0.7890 0.7940
437.000000 0.7990 0.8034 0.8078 0.8122 0.8167
442.000000 0.8203 0.8238 0.8274 0.8309 0.8344
447.000000 0.8380 0.8416 0.8452 0.8488 0.8521
452.000000 0.8553 0.8584 0.8616 0.8648 0.8678
457.000000 0.8711 0.8743 0.8775 0.8807 0.8838
462.000000 0.8870 0.8899 0.8928 0.8957 0.8986
467.000000 0.9016 0.9039 0.9062 0.9085 0.9104
472.000000 0.9117 0.9128 0.9142 0.9150 0.9154
477.000000 0.9158 0.9160 0.9162 0.9163 0.9162
482.000000 0.9162 0.9160 0.9175 0.9151 0.9141
487.000000 0.9125 0.9111 0.9095 0.9080 0.9065
492.000000 0.9040 0.9009 0.8978 0.8930 0.8880
497.000000 0.8828 0.8775 0.8712 0.8625 0.8457
502.000000 0.8341 0.8215 0.8080 0.7851 0.7747
507.000000 0.7643 0.6957 0.6084 0.5210 0.4339
512.000000 0.4231 0.4224 0.4410 0.5038 0.5664
517.000000 0.6290 0.6915 0.7528 0.7855 0.8024
522.000000 0.8135 0.8225 0.8308 0.8385 0.8446
527.000000 0.8506 0.8563 0.8615 0.8664 0.8685
532.000000 0.8698 0.8702 0.8702 0.8705 0.8708
537.000000 0.8714 0.8720 0.8725 0.8740 0.8751
542.000000 0.8751 0.8751 0.8783 0.8744 0.8725
547.000000 0.8709 0.8697 0.8684 0.8671 0.8658
552.000000 0.8642 0.8625 0.8609 0.8593 0.8575
557.000000 0.8554 0.8532 0.8511 0.8489 0.8468
562.000000 0.8446 0.8421 0.8396 0.8368 0.8343
567.000000 0.8316 0.8288 0.8261 0.8234 0.8194
572.000000 0.8149 0.8103 0.8054 0.8021 0.8006
577.000000 0.7991 0.7975 0.7956 0.7936 0.7915
582.000000 0.7897 0.7882 0.7867 0.7837 0.7803
587.000000 0.7762 0.7721 0.7680 0.7621 0.7561
592.000000 0.7511 0.7467 0.7421 0.7378 0.7336
597.000000 0.7293 0.7249 0.7207 0.7164 0.7121
602.000000 0.7078 0.7037 0.6993 0.6932 0.6871
607.000000 0.6810 0.6741 0.6668 0.6596 0.6528
612.000000 0.6468 0.6408 0.6347 0.6282 0.6206
617.000000 0.6131 0.6056 0.5973 0.5208 0.4980
622.000000 0.4814 0.4649 0.4483 0.4318 0.4176
627.000000 0.4224 0.4165 0.4460 0.4579 0.4610
632.000000 0.4617 0.4618 0.4632 0.4604 0.4588
637.000000 0.4554 0.4523 0.4475 0.4429 0.4385
642.000000 0.4342 0.4298 0.4254 0.4210 0.4166
647.000000 0.4125 0.4084 0.4045 0.4012 0.3987
652.000000 0.3960 0.3937 0.3914 0.3900 0.3892
657.000000 0.3862 0.3884 0.3884 0.3887 0.3899
662.000000 0.3928 0.3962 0.3998 0.4044 0.4088
667.000000 0.4126 0.4164 0.4233 0.4295 0.4375
672.000000 0.4503 0.4872 0.4950 0.4997 0.5044
677.000000 0.5091 0.5133 0.5173 0.5214 0.5271
682.000000 0.5330 0.5390 0.5430 0.5467 0.5504
687.000000 0.5540 0.5576 0.5612 0.5648 0.5694
692.000000 0.5712 0.5715 0.5718 0.5718 0.5718
697.000000 0.5712 0.5709 0.5705 0.5697 0.5678
702.000000 0.5659 0.5640 0.5622 0.5604 0.5603
707.000000 0.5603 0.5609 0.5626 0.5651 0.5693
712.000000 0.5729 0.5760 0.5792 0.5824 0.5857
717.000000 0.5885 0.5912 0.5938 0.5964 0.5990
722.000000 0.6028 0.6071 0.6125 0.6204 0.6280
727.000000 0.6344 0.6407 0.6475 0.6545 0.6661
732.000000 0.6755 0.6776 0.6790 0.6799 0.6812
737.000000 0.6803 0.6797 0.6776 0.6756 0.6734
742.000000 0.6711 0.6675 0.6641 0.6605 0.6569
747.000000 0.6539 0.6511 0.6504 0.6515 0.6495
752.000000 0.6628 0.6693 0.6753 0.6810 0.6868
757.000000 0.6930 0.6992 0.7055 0.7117 0.7178
762.000000 0.7242 0.7304 0.7365 0.7439 0.7515
767.000000 0.7585 0.7637 0.7658 0.7674 0.7688
772.000000 0.7703 0.7708 0.7708 0.7708 0.7698
777.000000 0.7642 0.7593 0.7517 0.7445 0.7395
782.000000 0.7345 0.7132 0.6915 0.6699 0.6482
787.000000 0.6310 0.6312 0.6312 0.7074 0.7530
792.000000 0.7871 0.7982 0.8083 0.8118 0.8149
797.000000 0.8165 0.8183 0.8192 0.8200 0.8208
802.000000 0.8216 0.8224 0.8233 0.8227 0.8227
807.000000 0.8218 0.8211 0.8202 0.8194 0.8185
812.000000 0.8168 0.8151 0.8115 0.8074 0.8034
817.000000 0.7993 0.7951 0.7911 0.7857 0.7776
822.000000 0.7697 0.7656 0.7614 0.7571 0.7532
827.000000 0.7498 0.7464 0.7430 0.7396 0.7350
832.000000 0.7297 0.7253 0.7224 0.7195 0.7174
837.000000 0.7158 0.7130 0.7136 0.7145 0.7161
842.000000 0.7180 0.7208 0.7240 0.7272 0.7315
847.000000 0.7365 0.7417 0.7471 0.7543 0.7614
852.000000 0.7683 0.7746 0.7808 0.7861 0.7914
857.000000 0.7967 0.8018 0.8071 0.8122 0.8164
862.000000 0.8201 0.8239 0.8275 0.8305 0.8334
867.000000 0.8363 0.8392 0.8418 0.8443 0.8467
872.000000 0.8491 0.8515 0.8537 0.8554 0.8571
877.000000 0.8588 0.8605 0.8618 0.8633 0.8648
882.000000 0.8656 0.8687 0.8664 0.8661 0.8658
887.000000 0.8654 0.8649 0.8644 0.8638 0.8633
892.000000 0.8628 0.8627 0.8625 0.8623 0.8621
897.000000 0.8621 0.8621 0.8621 0.8624 0.8625
902.000000 0.8627 0.8604 0.8565 0.8525 0.8487
907.000000 0.8115 0.7658 0.7200 0.6742 0.6565
912.000000 0.6564 0.6796 0.7211 0.7626 0.8042
917.000000 0.8171 0.8225 0.8264 0.8294 0.8316
922.000000 0.8331 0.8328 0.8146 0.8030 0.7914
927.000000 0.7899 0.7887 0.8035 0.8157 0.8278
932.000000 0.8328 0.8362 0.8385 0.8401 0.8418
937.000000 0.8435 0.8453 0.8471 0.8484 0.8497
942.000000 0.8510 0.8517 0.8525 0.8532 0.8540
947.000000 0.8548 0.8557 0.8565 0.8573 0.8574
952.000000 0.8575 0.8575 0.8577 0.8571 0.8567
957.000000 0.8562 0.8550 0.8534 0.8518 0.8501
962.000000 0.8483 0.8466 0.8465 0.8465 0.8477
967.000000 0.8489 0.8498 0.8508 0.8517 0.8527
972.000000 0.8536 0.8545 0.8554 0.8563 0.8571
977.000000 0.8581 0.8590 0.8599 0.8609 0.8618
982.000000 0.8628 0.8640 0.8650 0.8660 0.8671
987.000000 0.8680 0.8684 0.8689 0.8694 0.8698
992.000000 0.8712 0.8707 0.8710 0.8710 0.8711
997.000000 0.8712 0.8713 0.8714 0.8714 0.8712
1002.000000 0.8711 0.8709 0.8708 0.8706 0.8705
1007.000000 0.8703 0.8701 0.8698 0.8695 0.8691
1012.000000 0.8688 0.8685 0.8682 0.8678 0.8674
1017.000000 0.8667 0.8661 0.8654 0.8647 0.8641
1022.000000 0.8634 0.8628 0.8621 0.8614 0.8608
1027.000000 0.8601 0.8595 0.8588 0.8582 0.8575
1032.000000 0.8568 0.8562 0.8556 0.8549 0.8543
1037.000000 0.8536 0.8530 0.8523 0.8517 0.8510
1042.000000 0.8504 0.8496 0.8486 0.8475 0.8467
1047.000000 0.8457 0.8448 0.8438 0.8428 0.8418
1052.000000 0.8409 0.8397 0.8381 0.8365 0.8349
1057.000000 0.8332 0.8316 0.8300 0.8283 0.8267
1062.000000 0.8251 0.8225 0.8201 0.8175 0.8150
1067.000000 0.8124 0.8099 0.8072 0.8021 0.7956
1072.000000 0.7891 0.7807 0.7706 0.7606 0.7504
1077.000000 0.7403 0.7287 0.7151 0.6862 0.6707
1082.000000 0.6550 0.6394 0.6237 0.6080 0.5924
1087.000000 0.5767 0.5610 0.5454 0.5425 0.5424
1092.000000 0.5516 0.5927 0.6338 0.6749 0.7160
1097.000000 0.7335 0.7508 0.7625 0.7650 0.7658
1102.000000 0.7610 0.7558 0.7506 0.7454 0.7436
1107.000000 0.7505 0.7760 0.7806 0.7836 0.7857
1112.000000 0.7875 0.7883 0.7889 0.7887 0.7884
1117.000000 0.7876 0.7853 0.7804 0.7757 0.7708
1122.000000 0.7658 0.7608 0.7549 0.7489 0.7401
1127.000000 0.7301 0.7191 0.7080 0.6961 0.6843
1132.000000 0.6695 0.6546 0.6418 0.6291 0.6160
1137.000000 0.6071 0.5634 0.5192 0.4750 0.4308
1142.000000 0.3866 0.3425 0.2983 0.2541 0.2291
1147.000000 0.2303 0.2368 0.3197 0.4027 0.4856
1152.000000 0.5685 0.6108 0.6546 0.6697 0.6971
1157.000000 0.7075 0.7158 0.7201 0.7201 0.7201
1162.000000 0.7201 0.7055 0.6856 0.6657 0.6457
1167.000000 0.6258 0.6059 0.5860 0.5719 0.5722
1172.000000 0.5909 0.6281 0.6653 0.7024 0.7396
1177.000000 0.7657 0.7751 0.7833 0.7896 0.7955
1182.000000 0.7997 0.8035 0.8072 0.8110 0.8128
1187.000000 0.8147 0.8165 0.8176 0.8182 0.8187
1192.000000 0.8186 0.8197 0.8196 0.8195 0.8195
1197.000000 0.8191 0.8186 0.8181 0.8175 0.8168
1202.000000 0.8161 0.8153 0.8145 0.8137 0.8128
1207.000000 0.8121 0.8112 0.8105 0.8096 0.8087
1212.000000 0.8078 0.8068 0.8058 0.8050 0.8037
1217.000000 0.8021 0.8006 0.7991 0.7975 0.7961
1222.000000 0.7949 0.7936 0.7924 0.7911 0.7899
1227.000000 0.7886 0.7874 0.7861 0.7845 0.7830
1232.000000 0.7814 0.7799 0.7783 0.7768 0.7748
1237.000000 0.7725 0.7701 0.7678 0.7656 0.7631
1242.000000 0.7606 0.7580 0.7555 0.7528 0.7504
1247.000000 0.7478 0.7447 0.7412 0.7378 0.7343
1252.000000 0.7308 0.7271 0.7225 0.7178 0.7133
1257.000000 0.7086 0.7035 0.6980 0.6925 0.6868
1262.000000 0.6814 0.6758 0.6704 0.6650 0.6595
1267.000000 0.6541 0.6487 0.6431 0.6344 0.6257
1272.000000 0.6170 0.6083 0.5977 0.5862 0.5746
1277.000000 0.5604 0.5399 0.5217 0.5058 0.4906
1282.000000 0.4784 0.4662 0.4536 0.4375 0.3887
1287.000000 0.3550 0.3212 0.2875 0.2537 0.2200
1292.000000 0.1862 0.1525 0.1187 0.1050 0.1049
1297.000000 0.1048 0.1032 0.1625 0.2872 0.4119
1302.000000 0.4462 0.4619 0.4768 0.4915 0.5255
1307.000000 0.5382 0.5486 0.5558 0.5599 0.5628
1312.000000 0.5644 0.5665 0.5688 0.5710 0.5747
1317.000000 0.5826 0.5914 0.5960 0.5986 0.5979
1322.000000 0.5959 0.5958 0.5958 0.5949 0.5939
1327.000000 0.5921 0.5900 0.5864 0.5825 0.5784
1332.000000 0.5742 0.5696 0.5651 0.5389 0.4936
1337.000000 0.4484 0.4032 0.3580 0.3168 0.3148
1342.000000 0.3128 0.3108 0.3106 0.3103 0.3119
1347.000000 0.3176 0.3229 0.3291 0.3384 0.3459
1352.000000 0.3489 0.3492 0.3512 0.3447 0.3312
1357.000000 0.3176 0.3041 0.2905 0.2769 0.2753
1362.000000 0.2871 0.3135 0.3402 0.3668 0.3934
1367.000000 0.3993 0.3921 0.3764 0.3607 0.3450
1372.000000 0.3303 0.3282 0.3334 0.3534 0.3734
1377.000000 0.3934 0.4135 0.4271 0.4297 0.4312
1382.000000 0.4318 0.4333 0.4310 0.4291 0.4260
1387.000000 0.4226 0.4187 0.4149 0.4110 0.4072
1392.000000 0.4034 0.3998 0.3962 0.3932 0.3914
1397.000000 0.3899 0.3882 0.3871 0.3859 0.3849
1402.000000 0.3838 0.3828 0.3820 0.3818 0.3818
1407.000000 0.3806 0.3749 0.3684 0.3618 0.3543
1412.000000 0.3459 0.3377 0.3300 0.3226 0.3150
1417.000000 0.3075 0.2988 0.2896 0.2803 0.2692
1422.000000 0.2550 0.2429 0.2334 0.2239 0.2144
1427.000000 0.2049 0.1954 0.1867 0.1829 0.1791
1432.000000 0.1820 0.2050 0.2335 0.2622 0.2909
1437.000000 0.3195 0.3482 0.3768 0.4054 0.4310
1442.000000 0.4318 0.4327 0.4336 0.4345 0.4352
1447.000000 0.4359 0.4366 0.4374 0.4384 0.4426
1452.000000 0.4338 0.4188 0.4037 0.3886 0.3734
1457.000000 0.3584 0.3573 0.3726 0.3987 0.4249
1462.000000 0.4510 0.4658 0.4612 0.4275 0.3938
1467.000000 0.3600 0.3264 0.2926 0.2589 0.2252
1472.000000 0.2073 0.2072 0.2071 0.2694 0.3234
1477.000000 0.3775 0.4315 0.4518 0.4712 0.4835
1482.000000 0.4949 0.5052 0.5135 0.5206 0.5254
1487.000000 0.5295 0.5328 0.5355 0.5384 0.5414
1492.000000 0.5444 0.5474 0.5499 0.5520 0.5540
1497.000000 0.5559 0.5577 0.5596 0.5615 0.5631
1502.000000 0.5642 0.5652 0.5662 0.5674 0.5681
1507.000000 0.5686 0.5691 0.5695 0.5700 0.5703
1512.000000 0.5704 0.5706 0.5708 0.5709 0.5710
1517.000000 0.5732 0.5714 0.5714 0.5712 0.5712
1522.000000 0.5710 0.5705 0.5700 0.5695 0.5687
1527.000000 0.5679 0.5671 0.5662 0.5651 0.5639
1532.000000 0.5627 0.5615 0.5603 0.5591 0.5579
1537.000000 0.5566 0.5553 0.5540 0.5526 0.5512
1542.000000 0.5500 0.5486 0.5471 0.5454 0.5437
1547.000000 0.5421 0.5403 0.5385 0.5367 0.5349
1552.000000 0.5330 0.5312 0.5294 0.5276 0.5253
1557.000000 0.5224 0.5196 0.5167 0.5139 0.5110
1562.000000 0.5086 0.5060 0.5036 0.5010 0.4987
1567.000000 0.4962 0.4947 0.4933 0.4918 0.4906
1572.000000 0.4893 0.4881 0.4869 0.4857 0.4844
1577.000000 0.4818 0.4751 0.4696 0.4644 0.4593
1582.000000 0.4541 0.4490 0.4439 0.4383 0.4327
1587.000000 0.4272 0.4216 0.4153 0.4072 0.3991
1592.000000 0.3906 0.3816 0.3728 0.3638 0.3514
1597.000000 0.3386 0.3264 0.3147 0.3028 0.2935
1602.000000 0.2846 0.2757 0.2667 0.2575 0.2473
1607.000000 0.2371 0.2269 0.2180 0.2092 0.2004
1612.000000 0.1921 0.1846 0.1772 0.1698 0.1634
1617.000000 0.1578 0.1520 0.1463 0.1387 0.1289
1622.000000 0.1190 0.1042 0.0895 0.0842 0.0790
1627.000000 0.0738 0.0691 0.0659 0.0627 0.0595
1632.000000 0.0564 0.0536 0.0507 0.0483 0.0471
1637.000000 0.0459 0.0451 0.0445 0.0440 0.0434
1642.000000 0.0429 0.0423 0.0423 0.0425 0.0425
1647.000000 0.0429 0.0435 0.0446 0.0458 0.0477
1652.000000 0.0499 0.0520 0.0549 0.0578 0.0605
1657.000000 0.0629 0.0654 0.0678 0.0703 0.0727
1662.000000 0.0752 0.0778 0.0809 0.0838 0.0863
1667.000000 0.0888 0.0913 0.0937 0.0959 0.0980
1672.000000 0.1002 0.1025 0.1055 0.1086 0.1145
1677.000000 0.1207 0.1267 0.1370 0.1548 0.1773
1682.000000 0.1934 0.2049 0.2141 0.2290 0.2438
1687.000000 0.2569 0.2701 0.2884 0.3034 0.3158
1692.000000 0.3256 0.3354 0.3452 0.3673 0.3877
1697.000000 0.4062 0.4194 0.4323 0.4756 0.4845
1702.000000 0.4933 0.5022 0.5112 0.5228 0.5343
1707.000000 0.5458 0.5578 0.5702 0.5819 0.5880
1712.000000 0.5942 0.6003 0.6064 0.6130 0.6226
1717.000000 0.6322 0.6392 0.6446 0.6500 0.6555
1722.000000 0.6608 0.6664 0.6719 0.6775 0.6832
1727.000000 0.6891 0.6956 0.7021 0.7088 0.7132
1732.000000 0.7168 0.7204 0.7240 0.7275 0.7311
1737.000000 0.7347 0.7378 0.7406 0.7434 0.7461
1742.000000 0.7490 0.7517 0.7546 0.7574 0.7601
1747.000000 0.7630 0.7657 0.7682 0.7708 0.7731
1752.000000 0.7749 0.7768 0.7787 0.7805 0.7824
1757.000000 0.7841 0.7857 0.7872 0.7881 0.7889
1762.000000 0.7896 0.7903 0.7910 0.7914 0.7918
1767.000000 0.7924 0.7928 0.7934 0.7938 0.7944
1772.000000 0.7955 0.7965 0.7975 0.7987 0.7997
1777.000000 0.8008 0.8024 0.8038 0.8051 0.8067
1782.000000 0.8096 0.8130 0.8158 0.8176 0.8195
1787.000000 0.8213 0.8232 0.8243 0.8247 0.8252
1792.000000 0.8256 0.8261 0.8265 0.8278 0.8297
1797.000000 0.8325 0.8356 0.8387 0.8400 0.8404
1802.000000 0.8408 0.8413 0.8417 0.8423 0.8434
1807.000000 0.8445 0.8455 0.8465 0.8474 0.8484
1812.000000 0.8494 0.8503 0.8513 0.8523 0.8534
1817.000000 0.8544 0.8555 0.8565 0.8575 0.8586
1822.000000 0.8596 0.8604 0.8613 0.8621 0.8628
1827.000000 0.8637 0.8645 0.8653 0.8660 0.8667
1832.000000 0.8674 0.8682 0.8689 0.8694 0.8698
1837.000000 0.8701 0.8705 0.8708 0.8712 0.8715
1842.000000 0.8718 0.8721 0.8723 0.8723 0.8723
1847.000000 0.8723 0.8723 0.8721 0.8721 0.8721
1852.000000 0.8720 0.8718 0.8716 0.8714 0.8712
1857.000000 0.8710 0.8708 0.8706 0.8704 0.8700
1862.000000 0.8694 0.8688 0.8683 0.8677 0.8671
1867.000000 0.8665 0.8659 0.8653 0.8648 0.8642
1872.000000 0.8642 0.8642 0.8645 0.8648 0.8653
1877.000000 0.8661 0.8668 0.8675 0.8684 0.8691
1882.000000 0.8699 0.8705 0.8709 0.8714 0.8718
1887.000000 0.8721 0.8724 0.8725 0.8746 0.8728
1892.000000 0.8731 0.8733 0.8736 0.8739 0.8742
1897.000000 0.8745 0.8748 0.8749 0.8750 0.8751
1902.000000 0.8751 0.8752 0.8752 0.8753 0.8754
1907.000000 0.8754 0.8755 0.8755 0.8755 0.8756
1912.000000 0.8756 0.8756 0.8756 0.8756 0.8755
1917.000000 0.8754 0.8753 0.8752 0.8749 0.8744
1922.000000 0.8739 0.8734 0.8725 0.8710 0.8696
1927.000000 0.8681 0.8677 0.8673 0.8668 0.8664
1932.000000 0.8660 0.8660 0.8662 0.8663 0.8664
1937.000000 0.8665 0.8667 0.8674 0.8680 0.8686
1942.000000 0.8691 0.8696 0.8700 0.8704 0.8708
1947.000000 0.8711 0.8714 0.8717 0.8720 0.8723
1952.000000 0.8725 0.8728 0.8732 0.8736 0.8739
1957.000000 0.8742 0.8746 0.8751 0.8755 0.8760
1962.000000 0.8764 0.8768 0.8768 0.8768 0.8766
1967.000000 0.8765 0.8764 0.8763 0.8762 0.8761
1972.000000 0.8759 0.8758 0.8757 0.8755 0.8754
1977.000000 0.8753 0.8751 0.8750 0.8749 0.8747
1982.000000 0.8746 0.8743 0.8739 0.8736 0.8733
1987.000000 0.8728 0.8725 0.8723 0.8718 0.8716
1992.000000 0.8713 0.8709 0.8702 0.8696 0.8689
1997.000000 0.8683 0.8675 0.8668 0.8663 0.8656
2002.000000 0.8649 0.8646 0.8643 0.8639 0.8636
2007.000000 0.8632 0.8628 0.8625 0.8621 0.8617
2012.000000 0.8614 0.8610 0.8606 0.8602 0.8599
2017.000000 0.8595 0.8591 0.8587 0.8584 0.8580
2022.000000 0.8575 0.8571 0.8568 0.8565 0.8561
2027.000000 0.8557 0.8554 0.8550 0.8546 0.8542
2032.000000 0.8539 0.8535 0.8532 0.8528 0.8524
2037.000000 0.8520 0.8517 0.8513 0.8509 0.8505
2042.000000 0.8502 0.8498 0.8495 0.8491 0.8487
2047.000000 0.8483 0.8480 0.8475 0.8471 0.8468
2052.000000 0.8465 0.8461 0.8458 0.8454 0.8450
2057.000000 0.8446 0.8443 0.8439 0.8435 0.8431
2062.000000 0.8428 0.8424 0.8420 0.8416 0.8413
2067.000000 0.8409 0.8406 0.8402 0.8398 0.8394
2072.000000 0.8391 0.8387 0.8383 0.8378 0.8375
2077.000000 0.8371 0.8368 0.8364 0.8361 0.8357
2082.000000 0.8353 0.8349 0.8346 0.8342 0.8338
2087.000000 0.8334 0.8331 0.8327 0.8324 0.8320
2092.000000 0.8316 0.8312 0.8309 0.8305 0.8301
2097.000000 0.8297 0.8294 0.8290 0.8287 0.8283
2102.000000 0.8278 0.8275 0.8271 0.8268 0.8264
2107.000000 0.8260 0.8257 0.8253 0.8250 0.8245
2112.000000 0.8241 0.8237 0.8233 0.8228 0.8225
2117.000000 0.8221 0.8217 0.8212 0.8208 0.8204
2122.000000 0.8200 0.8196 0.8192 0.8188 0.8184
2127.000000 0.8181 0.8178 0.8174 0.8171 0.8168
2132.000000 0.8165 0.8161 0.8158 0.8155 0.8151
2137.000000 0.8149 0.8147 0.8144 0.8141 0.8138
2142.000000 0.8136 0.8133 0.8131 0.8128 0.8125
2147.000000 0.8121 0.8119 0.8117 0.8115 0.8111
2152.000000 0.8110 0.8107 0.8105 0.8103 0.8101
2157.000000 0.8098 0.8096 0.8094 0.8092 0.8083
2162.000000 0.8075 0.8055 0.8036 0.8015 0.7996
2167.000000 0.7980 0.7965 0.7956 0.7948 0.7939
2172.000000 0.7931 0.7921 0.7914 0.7904 0.7894
2177.000000 0.7883 0.7872 0.7861 0.7851 0.7841
2182.000000 0.7831 0.7830 0.7828 0.7828 0.7826
2187.000000 0.7825 0.7824 0.7824 0.7825 0.7825
2192.000000 0.7825 0.7826 0.7828 0.7828 0.7828
2197.000000 0.7828 0.7828 0.7828 0.7828 0.7828
2202.000000 0.7830 0.7830 0.7830 0.7830 0.7830
2207.000000 0.7830 0.7830 0.7828 0.7826 0.7824
2212.000000 0.7821 0.7818 0.7815 0.7811 0.7807
2217.000000 0.7799 0.7792 0.7784 0.7775 0.7768
2222.000000 0.7761 0.7753 0.7745 0.7737 0.7728
2227.000000 0.7719 0.7711 0.7701 0.7693 0.7684
2232.000000 0.7675 0.7665 0.7657 0.7648 0.7639
2237.000000 0.7630 0.7621 0.7611 0.7603 0.7593
2242.000000 0.7583 0.7572 0.7562 0.7553 0.7543
2247.000000 0.7533 0.7522 0.7512 0.7503 0.7493
2252.000000 0.7483 0.7472 0.7462 0.7453 0.7443
2257.000000 0.7433 0.7422 0.7412 0.7404 0.7394
2262.000000 0.7385 0.7375 0.7365 0.7357 0.7348
2267.000000 0.7338 0.7328 0.7318 0.7310 0.7300
2272.000000 0.7291 0.7282 0.7272 0.7262 0.7254
2277.000000 0.7245 0.7237 0.7228 0.7219 0.7211
2282.000000 0.7201 0.7193 0.7185 0.7175 0.7168
2287.000000 0.7161 0.7155 0.7148 0.7142 0.7136
2292.000000 0.7130 0.7122 0.7117 0.7111 0.7106
2297.000000 0.7101 0.7111 0.7095 0.7091 0.7093
2302.000000 0.7096 0.7099 0.7101 0.7104 0.7107
2307.000000 0.7108 0.7111 0.7115 0.7119 0.7124
2312.000000 0.7128 0.7133 0.7138 0.7141 0.7145
2317.000000 0.7148 0.7151 0.7155 0.7158 0.7161
2322.000000 0.7165 0.7168 0.7171 0.7175 0.7178
2327.000000 0.7182 0.7186 0.7190 0.7195 0.7199
2332.000000 0.7204 0.7208 0.7212 0.7217 0.7221
2337.000000 0.7225 0.7231 0.7235 0.7240 0.7245
2342.000000 0.7250 0.7254 0.7258 0.7262 0.7268
2347.000000 0.7271 0.7276 0.7281 0.7286 0.7290
2352.000000 0.7294 0.7298 0.7303 0.7307 0.7311
2357.000000 0.7315 0.7318 0.7322 0.7328 0.7332
2362.000000 0.7336 0.7340 0.7344 0.7347 0.7350
2367.000000 0.7353 0.7357 0.7360 0.7364 0.7365
2372.000000 0.7367 0.7361 0.7358 0.7353 0.7349
2377.000000 0.7341 0.7334 0.7326 0.7319 0.7311
2382.000000 0.7304 0.7294 0.7285 0.7275 0.7265
2387.000000 0.7264 0.7264 0.7264 0.7264 0.7265
2392.000000 0.7267 0.7268 0.7271 0.7276 0.7283
2397.000000 0.7288 0.7293 0.7298 0.7304 0.7310
2402.000000 0.7315 0.7321 0.7328 0.7335 0.7342
2407.000000 0.7349 0.7356 0.7364 0.7372 0.7382
2412.000000 0.7391 0.7399 0.7408 0.7415 0.7424
2417.000000 0.7431 0.7439 0.7444 0.7450 0.7449
2422.000000 0.7448 0.7446 0.7445 0.7444 0.7443
2427.000000 0.7442 0.7441 0.7439 0.7438 0.7436
2432.000000 0.7435 0.7433 0.7432 0.7430 0.7428
2437.000000 0.7426 0.7425 0.7424 0.7421 0.7417
2442.000000 0.7412 0.7408 0.7405 0.7400 0.7396
2447.000000 0.7392 0.7388 0.7385 0.7383 0.7382
2452.000000 0.7382 0.7382 0.7382 0.7381 0.7381
2457.000000 0.7381 0.7381 0.7383 0.7385 0.7387
2462.000000 0.7389 0.7391 0.7393 0.7395 0.7398
2467.000000 0.7403 0.7408 0.7412 0.7418 0.7424
2472.000000 0.7430 0.7435 0.7441 0.7446 0.7451
2477.000000 0.7456 0.7461 0.7467 0.7472 0.7478
2482.000000 0.7483 0.7489 0.7495 0.7501 0.7508
2487.000000 0.7515 0.7522 0.7530 0.7537 0.7543
2492.000000 0.7550 0.7557 0.7564 0.7569 0.7576
2497.000000 0.7581 0.7586 0.7590 0.7595 0.7600
2502.000000 0.7605 0.7608 0.7614 0.7617 0.7621
2507.000000 0.7621 0.7624 0.7625 0.7626 0.7628
2512.000000 0.7630 0.7632 0.7634 0.7635 0.7637
2517.000000 0.7638 0.7640 0.7641 0.7642 0.7642
2522.000000 0.7643 0.7644 0.7645 0.7646 0.7647
2527.000000 0.7648 0.7649 0.7650 0.7651 0.7651
2532.000000 0.7653 0.7653 0.7654 0.7655 0.7656
2537.000000 0.7657 0.7658 0.7658 0.7658 0.7658
2542.000000 0.7657 0.7656 0.7655 0.7653 0.7651
2547.000000 0.7651 0.7650 0.7649 0.7648 0.7646
2552.000000 0.7644 0.7640 0.7637 0.7633 0.7630
2557.000000 0.7626 0.7611 0.7619 0.7617 0.7612
2562.000000 0.7610 0.7607 0.7604 0.7600 0.7597
2567.000000 0.7594 0.7591 0.7587 0.7584 0.7580
2572.000000 0.7576 0.7574 0.7571 0.7567 0.7564
2577.000000 0.7561 0.7560 0.7558 0.7556 0.7554
2582.000000 0.7551 0.7550 0.7548 0.7546 0.7544
2587.000000 0.7542 0.7540 0.7538 0.7536 0.7534
2592.000000 0.7532 0.7530 0.7528 0.7525 0.7524
2597.000000 0.7524 0.7524 0.7522 0.7522 0.7522
2602.000000 0.7522 0.7521 0.7521 0.7521 0.7521
2607.000000 0.7519 0.7518 0.7517 0.7515 0.7512
2612.000000 0.7511 0.7508 0.7507 0.7505 0.7503
2617.000000 0.7501 0.7499 0.7496 0.7494 0.7491
2622.000000 0.7488 0.7485 0.7483 0.7480 0.7476
2627.000000 0.7474 0.7471 0.7468 0.7465 0.7462
2632.000000 0.7461 0.7458 0.7455 0.7451 0.7448
2637.000000 0.7443 0.7439 0.7434 0.7430 0.7425
2642.000000 0.7421 0.7417 0.7412 0.7408 0.7405
2647.000000 0.7400 0.7396 0.7391 0.7387 0.7383
2652.000000 0.7378 0.7374 0.7369 0.7365 0.7361
2657.000000 0.7356 0.7351 0.7346 0.7342 0.7337
2662.000000 0.7333 0.7328 0.7324 0.7318 0.7315
2667.000000 0.7310 0.7306 0.7301 0.7297 0.7292
2672.000000 0.7288 0.7283 0.7278 0.7274 0.7268
2677.000000 0.7264 0.7260 0.7255 0.7250 0.7245
2682.000000 0.7241 0.7236 0.7231 0.7225 0.7221
2687.000000 0.7215 0.7208 0.7201 0.7196 0.7190
2692.000000 0.7184 0.7176 0.7171 0.7164 0.7158
2697.000000 0.7151 0.7145 0.7138 0.7132 0.7124
2702.000000 0.7117 0.7108 0.7101 0.7094 0.7086
2707.000000 0.7078 0.7071 0.7062 0.7056 0.7048
2712.000000 0.7041 0.7033 0.7025 0.7018 0.7010
2717.000000 0.7001 0.6995 0.6987 0.6980 0.6971
2722.000000 0.6965 0.6957 0.6950 0.6942 0.6934
2727.000000 0.6925 0.6918 0.6911 0.6904 0.6896
2732.000000 0.6889 0.6881 0.6874 0.6865 0.6858
2737.000000 0.6850 0.6843 0.6833 0.6824 0.6814
2742.000000 0.6805 0.6795 0.6785 0.6775 0.6765
2747.000000 0.6749 0.6732 0.6714 0.6696 0.6678
2752.000000 0.6660 0.6642 0.6625 0.6608 0.6593
2757.000000 0.6580 0.6567 0.6554 0.6542 0.6528
2762.000000 0.6517 0.6504 0.6492 0.6478 0.6467
2767.000000 0.6458 0.6450 0.6442 0.6434 0.6430
2772.000000 0.6426 0.6426 0.6428 0.6428 0.6428
2777.000000 0.6428 0.6428 0.6430 0.6432 0.6434
2782.000000 0.6436 0.6438 0.6441 0.6444 0.6447
2787.000000 0.6450 0.6453 0.6451 0.6451 0.6430
2792.000000 0.6410 0.6389 0.6369 0.6348 0.6328
2797.000000 0.6305 0.6282 0.6257 0.6233 0.6208
2802.000000 0.6184 0.6155 0.6126 0.6093 0.6060
2807.000000 0.6027 0.5995 0.5965 0.5935 0.5905
2812.000000 0.5875 0.5838 0.5802 0.5784 0.5710
2817.000000 0.5760 0.5757 0.5757 0.5758 0.5760
2822.000000 0.5765 0.5781 0.5797 0.5810 0.5826
2827.000000 0.5841 0.5856 0.5873 0.5891 0.5908
2832.000000 0.5925 0.5941 0.5958 0.5973 0.5989
2837.000000 0.5999 0.6009 0.6017 0.6026 0.6034
2842.000000 0.6043 0.6051 0.6060 0.6062 0.6062
2847.000000 0.6062 0.6062 0.6059 0.6057 0.6054
2852.000000 0.6052 0.6037 0.6023 0.6001 0.5979
2857.000000 0.5957 0.5936 0.5879 0.5823 0.5712
2862.000000 0.5603 0.5493 0.5384 0.5274 0.5164
2867.000000 0.5100 0.5036 0.5025 0.5015 0.5012
2872.000000 0.5012 0.5012 0.5015 0.5028 0.5042
2877.000000 0.5058 0.5075 0.5091 0.5108 0.5125
2882.000000 0.5142 0.5159 0.5176 0.5193 0.5210
2887.000000 0.5230 0.5250 0.5270 0.5290 0.5309
2892.000000 0.5329 0.5352 0.5375 0.5378 0.5381
2897.000000 0.5381 0.5382 0.5382 0.5382 0.5354
2902.000000 0.5327 0.5275 0.5224 0.5172 0.5121
2907.000000 0.5069 0.5018 0.4966 0.4915 0.4870
2912.000000 0.4825 0.4825 0.4826 0.4828 0.4831
2917.000000 0.4833 0.4836 0.4839 0.4842 0.4800
2922.000000 0.4759 0.4675 0.4592 0.4508 0.4425
2927.000000 0.4341 0.4258 0.4175 0.4092 0.4008
2932.000000 0.3925 0.3841 0.3758 0.3687 0.3600
2937.000000 0.3616 0.3618 0.3618 0.3618 0.3929
2942.000000 0.4239 0.4495 0.4752 0.4749 0.4746
2947.000000 0.4744 0.4755 0.4619 0.4496 0.4322
2952.000000 0.4149 0.3975 0.3802 0.3628 0.3454
2957.000000 0.3280 0.3107 0.2933 0.2760 0.2585
2962.000000 0.2412 0.2238 0.2065 0.1833 0.1602
2967.000000 0.1530 0.1459 0.1453 0.1448 0.1446
2972.000000 0.1446 0.1449 0.1452 0.1463 0.1474
2977.000000 0.1828 0.2182 0.2865 0.3549 0.4232
2982.000000 0.4916 0.5181 0.5446 0.5641 0.5836
2987.000000 0.5948 0.6060 0.6123 0.6186 0.6207
2992.000000 0.6228 0.6246 0.6264 0.6275 0.6287
2997.000000 0.6296 0.6305 0.6308 0.6293 0.6310
3002.000000 0.6310 0.6307 0.6303 0.6298 0.6293
3007.000000 0.6288 0.6284 0.6276 0.6268 0.6258
3012.000000 0.6249 0.6238 0.6228 0.6216 0.6204
3017.000000 0.6191 0.6178 0.6164 0.6150 0.6136
3022.000000 0.6122 0.6106 0.6091 0.6075 0.6059
3027.000000 0.6043 0.6027 0.6010 0.5994 0.5978
3032.000000 0.5962 0.5945 0.5929 0.5912 0.5896
3037.000000 0.5880 0.5864 0.5847 0.5830 0.5805
3042.000000 0.5780 0.5755 0.5730 0.5705 0.5680
3047.000000 0.5654 0.5629 0.5604 0.5579 0.5554
3052.000000 0.5529 0.5504 0.5479 0.5454 0.5429
3057.000000 0.5404 0.5379 0.5353 0.5328 0.5303
3062.000000 0.5278 0.5253 0.5228 0.5203 0.5178
3067.000000 0.5153 0.5128 0.5102 0.5077 0.5052
3072.000000 0.5027 0.5001 0.4975 0.4943 0.4910
3077.000000 0.4879 0.4848 0.4821 0.4794 0.4767
3082.000000 0.4740 0.4712 0.4686 0.4659 0.4633
3087.000000 0.4602 0.4572 0.4541 0.4510 0.4478
3092.000000 0.4447 0.4416 0.4385 0.4353 0.4322
3097.000000 0.4290 0.4258 0.4224 0.4191 0.4157
3102.000000 0.4124 0.4090 0.4057 0.4026 0.3996
3107.000000 0.3966 0.3936 0.3905 0.3875 0.3844
3112.000000 0.3814 0.3779 0.3744 0.3709 0.3675
3117.000000 0.3640 0.3605 0.3570 0.3536 0.3497
3122.000000 0.3459 0.3416 0.3376 0.3334 0.3293
3127.000000 0.3250 0.3209 0.3166 0.3124 0.3080
3132.000000 0.3037 0.2993 0.2950 0.2906 0.2863
3137.000000 0.2819 0.2776 0.2732 0.2688 0.2643
3142.000000 0.2599 0.2555 0.2511 0.2468 0.2426
3147.000000 0.2384 0.2342 0.2299 0.2257 0.2213
3152.000000 0.2170 0.2122 0.2075 0.2028 0.1981
3157.000000 0.1939 0.1898 0.1867 0.1836 0.1806
3162.000000 0.1775 0.1744 0.1713 0.1682 0.1651
3167.000000 0.1617 0.1583 0.1541 0.1500 0.1458
3172.000000 0.1417 0.1407 0.1398 0.1389 0.1381
3177.000000 0.1373 0.1365 0.1361 0.1357 0.1353
3182.000000 0.1350 0.1346 0.1362 0.1344 0.1345
3187.000000 0.1345 0.1345 0.1351 0.1358 0.1368
3192.000000 0.1378 0.1389 0.1401 0.1411 0.1421
3197.000000 0.1429 0.1437 0.1445 0.1454 0.1463
3202.000000 0.1473 0.1485 0.1496 0.1509 0.1521
3207.000000 0.1535 0.1549 0.1566 0.1583 0.1599
3212.000000 0.1616 0.1633 0.1650 0.1667 0.1684
3217.000000 0.1701 0.1718 0.1741 0.1765 0.1792
3222.000000 0.1819 0.1845 0.1873 0.1900 0.1927
3227.000000 0.1954 0.1981 0.2012 0.2044 0.2076
3232.000000 0.2109 0.2141 0.2173 0.2205 0.2237
3237.000000 0.2269 0.2302 0.2327 0.2353 0.2378
3242.000000 0.2403 0.2428 0.2454 0.2478 0.2503
3247.000000 0.2519 0.2534 0.2551 0.2568 0.2570
3252.000000 0.2573 0.2573 0.2574 0.2574 0.2574
3257.000000 0.2574 0.2574 0.2574 0.2574 0.2571
3262.000000 0.2569 0.2564 0.2560 0.2556 0.2552
3267.000000 0.2543 0.2534 0.2523 0.2512 0.2501
3272.000000 0.2490 0.2479 0.2468 0.2457 0.2446
3277.000000 0.2434 0.2424 0.2413 0.2402 0.2391
3282.000000 0.2380 0.2369 0.2358 0.2344 0.2330
3287.000000 0.2316 0.2302 0.2288 0.2275 0.2261
3292.000000 0.2247 0.2233 0.2219 0.2204 0.2190
3297.000000 0.2175 0.2160 0.2145 0.2130 0.2115
3302.000000 0.2100 0.2084 0.2070 0.2055 0.2040
3307.000000 0.2025 0.2010 0.1992 0.1974 0.1954
3312.000000 0.1934 0.1916 0.1896 0.1877 0.1858
3317.000000 0.1837 0.1819 0.1800 0.1781 0.1758
3322.000000 0.1735 0.1710 0.1684 0.1658 0.1632
3327.000000 0.1606 0.1580 0.1554 0.1528 0.1502
3332.000000 0.1476 0.1450 0.1424 0.1396 0.1371
3337.000000 0.1345 0.1319 0.1292 0.1266 0.1239
3342.000000 0.1213 0.1186 0.1159 0.1131 0.1103
3347.000000 0.1075 0.1046 0.1019 0.0991 0.0964
3352.000000 0.0938 0.0919 0.0901 0.0882 0.0864
3357.000000 0.0845 0.0826 0.0808 0.0790 0.0768
3362.000000 0.0747 0.0733 0.0719 0.0718 0.0718
3367.000000 0.0719 0.0720 0.0721 0.0707 0.0725
3372.000000 0.0728 0.0730 0.0733 0.0738 0.0743
3377.000000 0.0755 0.0768 0.0784 0.0801 0.0833
3382.000000 0.0866 0.0926 0.0988 0.1030 0.1073
3387.000000 0.1136 0.1199 0.1274 0.1349 0.1416
3392.000000 0.1484 0.1554 0.1625 0.1706 0.1787
3397.000000 0.1970 0.2152 0.2220 0.2288 0.2356
3402.000000 0.2424 0.2492 0.2560 0.2714 0.2869
3407.000000 0.2970 0.3071 0.3163 0.3255 0.3329
3412.000000 0.3404 0.3479 0.3554 0.3632 0.3712
3417.000000 0.3793 0.3875 0.3957 0.4039 0.4121
3422.000000 0.4203 0.4285 0.4368 0.4450 0.4532
3427.000000 0.4665 0.4799 0.4929 0.5060 0.5146
3432.000000 0.5233 0.5319 0.5405 0.5496 0.5588
3437.000000 0.5680 0.5773 0.6023 0.6274 0.6345
3442.000000 0.6415 0.6486 0.6557 0.6605 0.6653
3447.000000 0.6695 0.6738 0.6780 0.6822 0.6861
3452.000000 0.6901 0.6934 0.6967 0.7000 0.7033
3457.000000 0.7065 0.7098 0.7131 0.7164 0.7196
3462.000000 0.7228 0.7261 0.7294 0.7325 0.7358
3467.000000 0.7391 0.7425 0.7458 0.7494 0.7528
3472.000000 0.7564 0.7599 0.7634 0.7655 0.7675
3477.000000 0.7697 0.7718 0.7740 0.7761 0.7781
3482.000000 0.7801 0.7811 0.7822 0.7834 0.7845
3487.000000 0.7856 0.7867 0.7876 0.7888 0.7899
3492.000000 0.7910 0.7921 0.7932 0.7942 0.7953
3497.000000 0.7964 0.7975 0.7986 0.7997 0.8012
3502.000000 0.8030 0.8042 0.8054 0.8060 0.8065
3507.000000 0.8068 0.8072 0.8075 0.8080 0.8084
3512.000000 0.8088 0.8091 0.8095 0.8098 0.8101
3517.000000 0.8105 0.8108 0.8112 0.8117 0.8119
3522.000000 0.8124 0.8126 0.8131 0.8135 0.8139
3527.000000 0.8141 0.8143 0.8144 0.8145 0.8146
3532.000000 0.8148 0.8149 0.8150 0.8151 0.8151
3537.000000 0.8151 0.8151 0.8151 0.8151 0.8151
3542.000000 0.8151 0.8150 0.8150 0.8150 0.8150
3547.000000 0.8149 0.8149 0.8148 0.8148 0.8148
3552.000000 0.8148 0.8148 0.8148 0.8148 0.8149
3557.000000 0.8149 0.8149 0.8149 0.8149 0.8149
3562.000000 0.8149 0.8149 0.8149 0.8148 0.8147
3567.000000 0.8145 0.8143 0.8141 0.8139 0.8137
3572.000000 0.8135 0.8132 0.8130 0.8128 0.8125
3577.000000 0.8124 0.8121 0.8118 0.8115 0.8112
3582.000000 0.8111 0.8108 0.8105 0.8101 0.8100
3587.000000 0.8097 0.8094 0.8091 0.8089 0.8078
3592.000000 0.8068 0.8046 0.8024 0.7964 0.7905
3597.000000 0.7888 0.7871 0.7871 0.7872 0.7874
3602.000000 0.7875 0.7897 0.7919 0.7956 0.7992
3607.000000 0.8010 0.8028 0.8040 0.8053 0.8064
3612.000000 0.8075 0.8081 0.8087 0.8089 0.8092
3617.000000 0.8094 0.8096 0.8097 0.8099 0.8100
3622.000000 0.8101 0.8101 0.8104 0.8105 0.8106
3627.000000 0.8107 0.8108 0.8108 0.8111 0.8111
3632.000000 0.8114 0.8115 0.8117 0.8118 0.8119
3637.000000 0.8121 0.8122 0.8124 0.8125 0.8126
3642.000000 0.8128 0.8130 0.8132 0.8133 0.8135
3647.000000 0.8135 0.8136 0.8136 0.8136 0.8136
3652.000000 0.8136 0.8136 0.8136 0.8136 0.8137
3657.000000 0.8137 0.8137 0.8137 0.8137 0.8137
3662.000000 0.8137 0.8137 0.8138 0.8138 0.8138
3667.000000 0.8138 0.8138 0.8138 0.8138 0.8138
3672.000000 0.8138 0.8138 0.8138 0.8136 0.8135
3677.000000 0.8133 0.8132 0.8130 0.8128 0.8126
3682.000000 0.8125 0.8125 0.8124 0.8121 0.8121
3687.000000 0.8118 0.8118 0.8115 0.8115 0.8112
3692.000000 0.8111 0.8108 0.8106 0.8103 0.8100
3697.000000 0.8097 0.8094 0.8091 0.8088 0.8085
3702.000000 0.8083 0.8080 0.8076 0.8074 0.8071
3707.000000 0.8068 0.8065 0.8061 0.8060 0.8057
3712.000000 0.8055 0.8051 0.8049 0.8046 0.8044
3717.000000 0.8041 0.8039 0.8036 0.8034 0.8031
3722.000000 0.8028 0.8025 0.8024 0.8021 0.8018
3727.000000 0.8015 0.8014 0.8011 0.8008 0.8007
3732.000000 0.8005 0.8003 0.8001 0.8000 0.7999
3737.000000 0.7998 0.7997 0.7995 0.7994 0.7992
3742.000000 0.7991 0.7989 0.7988 0.7986 0.7985
3747.000000 0.7984 0.7983 0.7981 0.7980 0.7978
3752.000000 0.7976 0.7975 0.7974 0.7972 0.7971
3757.000000 0.7971 0.7971 0.7969 0.7968 0.7968
3762.000000 0.7967 0.7965 0.7965 0.7964 0.7962
3767.000000 0.7961 0.7961 0.7960 0.7958 0.7958
3772.000000 0.7958 0.7957 0.7956 0.7955 0.7954
3777.000000 0.7953 0.7951 0.7951 0.7951 0.7951
3782.000000 0.7951 0.7951 0.7951 0.7950 0.7950
3787.000000 0.7950 0.7950 0.7950 0.7950 0.7949
3792.000000 0.7949 0.7949 0.7949 0.7948 0.7948
3797.000000 0.7947 0.7947 0.7946 0.7946 0.7945
3802.000000 0.7945 0.7944 0.7943 0.7942 0.7942
3807.000000 0.7941 0.7940 0.7939 0.7939 0.7938
3812.000000 0.7937 0.7936 0.7936 0.7936 0.7936
##END=
