##TITLE=UREA
##JCAMP-DX=4.24
##DATA TYPE=INFRARED SPECTRUM
##CLASS=COBLENTZ III
##ORIGIN=DOW CHEMICAL COMPANY
##OWNER=COBLENTZ SOCIETY
Collection (C) 2018 copyright by the U.S. Secretary of Commerce
on behalf of the United States of America. All rights reserved.
##DATE=1963/11/27
##CAS REGISTRY NO=57-13-6
##MOLFORM=C H4 N2 O
##SOURCE REFERENCE=COBLENTZ NO. 10212
##$NIST SOURCE=COBLENTZ
##$NIST IMAGE=cob10212
##SPECTROMETER/DATA SYSTEM=DOW KBr FOREPRISM-GRATING
##INSTRUMENT PARAMETERS=BLAZED AT 3.5, 12.0, 20.0 MICRON, CHANGED AT 5.0, 7.5, 14.9 MICRON
##STATE=SOLID (SPLIT MULL, FLUOROLUBE FOR 3800-1333 AND NUJOL FOR 1333-450 CM ^-^1)
##SAMPLING PROCEDURE=TRANSMISSION
##RESOLUTION=4
##DATA PROCESSING=DIGITIZED BY NIST FROM HARD COPY (FROM TWO SEGMENTS)
##XUNITS=1/CM
##YUNITS=TRANSMITTANCE
##XFACTOR=1.000000
##YFACTOR=1
##DELTAX=0.852760
##FIRSTX=449.687
##LASTX=3801.88
##FIRSTY=0.122
##MAXX=3801.88
##MINX=449.687
##MAXY=1
##MINY=0.011
##NPOINTS=3932
##XYDATA=(X++(Y..Y))
449.687000 0.1220 0.1210 0.1190 0.1170 0.1170
453.950798 0.1140 0.1130 0.1100 0.1070 0.1060
458.214595 0.1050 0.1020 0.0990 0.0990 0.0980
462.478393 0.0970 0.0950 0.0950 0.0930 0.0900
466.742190 0.0890 0.0870 0.0860 0.0860 0.0830
471.005988 0.0810 0.0790 0.0780 0.0770 0.0770
475.269786 0.0770 0.0750 0.0740 0.0730 0.0710
479.533583 0.0710 0.0700 0.0690 0.0670 0.0660
483.797381 0.0650 0.0630 0.0620 0.0620 0.0610
488.061179 0.0610 0.0610 0.0590 0.0580 0.0580
492.324976 0.0580 0.0580 0.0580 0.0570 0.0550
496.588774 0.0550 0.0540 0.0540 0.0540 0.0530
500.852571 0.0530 0.0510 0.0510 0.0510 0.0510
505.116369 0.0500 0.0500 0.0500 0.0500 0.0490
509.380167 0.0490 0.0490 0.0470 0.0470 0.0470
513.643964 0.0470 0.0470 0.0460 0.0460 0.0460
517.907762 0.0460 0.0460 0.0460 0.0450 0.0430
522.171559 0.0430 0.0430 0.0420 0.0410 0.0410
526.435357 0.0410 0.0410 0.0410 0.0390 0.0390
530.699155 0.0390 0.0380 0.0380 0.0380 0.0380
534.962952 0.0380 0.0380 0.0370 0.0370 0.0340
539.226750 0.0330 0.0310 0.0300 0.0300 0.0290
543.490548 0.0290 0.0270 0.0270 0.0260 0.0250
547.754345 0.0230 0.0230 0.0210 0.0190 0.0180
552.018143 0.0170 0.0150 0.0140 0.0140 0.0130
556.281940 0.0130 0.0130 0.0110 0.0110 0.0110
560.545738 0.0110 0.0130 0.0130 0.0140 0.0170
564.809536 0.0190 0.0230 0.0300 0.0310 0.0340
569.073333 0.0370 0.0370 0.0330 0.0290 0.0270
573.337131 0.0260 0.0270 0.0290 0.0310 0.0380
577.600928 0.0410 0.0460 0.0470 0.0540 0.0610
581.864726 0.0650 0.0700 0.0770 0.0790 0.0860
586.128524 0.0910 0.1020 0.1030 0.1100 0.1150
590.392321 0.1230 0.1310 0.1340 0.1390 0.1460
594.656119 0.1500 0.1580 0.1600 0.1680 0.1680
598.919917 0.1790 0.1870 0.1940 0.1980 0.2020
603.183714 0.2040 0.2100 0.2140 0.2200 0.2260
607.447512 0.2300 0.2320 0.2380 0.2470 0.2520
611.711309 0.2570 0.2590 0.2630 0.2680 0.2720
615.975107 0.2800 0.2850 0.2910 0.2930 0.3000
620.238905 0.3050 0.3120 0.3190 0.3210 0.3240
624.502702 0.3310 0.3370 0.3410 0.3440 0.3480
628.766500 0.3510 0.3560 0.3630 0.3690 0.3750
633.030297 0.3770 0.3810 0.3860 0.3880 0.3960
637.294095 0.3970 0.4020 0.4060 0.4120 0.4170
641.557893 0.4200 0.4240 0.4260 0.4290 0.4330
645.821690 0.4330 0.4340 0.4370 0.4380 0.4420
650.085488 0.4450 0.4460 0.4460 0.4490 0.4540
654.349285 0.4560 0.4560 0.4570 0.4600 0.4610
658.613083 0.4650 0.4660 0.4690 0.4720 0.4720
662.876881 0.4760 0.4760 0.4800 0.4820 0.4850
667.140678 0.4850 0.4860 0.4880 0.4890 0.4920
671.404476 0.4960 0.4970 0.4980 0.4980 0.5000
675.668274 0.5000 0.5010 0.5010 0.5030 0.5030
679.932071 0.5030 0.5060 0.5070 0.5070 0.5090
684.195869 0.5090 0.5090 0.5090 0.5100 0.5100
688.459666 0.5100 0.5100 0.5090 0.5060 0.5030
692.723464 0.5010 0.5000 0.5000 0.4970 0.4960
696.987262 0.4930 0.4930 0.4890 0.4880 0.4820
701.251059 0.4780 0.4760 0.4690 0.4660 0.4650
705.514857 0.4570 0.4540 0.4540 0.4500 0.4450
709.778654 0.4380 0.4340 0.4300 0.4240 0.4170
714.042452 0.4140 0.4060 0.4010 0.4000 0.3970
718.306250 0.3880 0.3840 0.3820 0.3840 0.3850
722.570047 0.4000 0.4050 0.4100 0.4160 0.4220
726.833845 0.4250 0.4300 0.4380 0.4450 0.4520
731.097643 0.4570 0.4640 0.4680 0.4720 0.4770
735.361440 0.4860 0.4890 0.5000 0.5010 0.5100
739.625238 0.5130 0.5190 0.5260 0.5290 0.5350
743.889035 0.5390 0.5460 0.5490 0.5530 0.5580
748.152833 0.5610 0.5630 0.5690 0.5740 0.5740
752.416631 0.5770 0.5810 0.5860 0.5860 0.5890
756.680428 0.5930 0.5950 0.5990 0.5990 0.6010
760.944226 0.6020 0.6020 0.6030 0.6050 0.6060
765.208023 0.6070 0.6070 0.6090 0.6090 0.6100
769.471821 0.6110 0.6130 0.6130 0.6130 0.6130
773.735619 0.6130 0.6130 0.6100 0.6100 0.6030
777.999416 0.6010 0.5970 0.5860 0.5740 0.5611
782.263214 0.5490 0.5370 0.5230 0.5010 0.4651
786.527012 0.4201 0.4200 0.4648 0.4819 0.5019
790.790809 0.5740 0.5850 0.5970 0.6300 0.6420
795.054607 0.6430 0.6440 0.6480 0.6510 0.6550
799.318404 0.6580 0.6590 0.6590 0.6590 0.6590
803.582202 0.6600 0.6600 0.6620 0.6630 0.6630
807.846000 0.6630 0.6630 0.6630 0.6630 0.6630
812.109797 0.6630 0.6630 0.6620 0.6620 0.6620
816.373595 0.6620 0.6600 0.6600 0.6590 0.6580
820.637392 0.6580 0.6560 0.6560 0.6550 0.6540
824.901190 0.6540 0.6520 0.6500 0.6500 0.6500
829.164988 0.6480 0.6460 0.6440 0.6430 0.6430
833.428785 0.6430 0.6420 0.6420 0.6400 0.6390
837.692583 0.6380 0.6350 0.6310 0.6300 0.6280
841.956381 0.6280 0.6260 0.6260 0.6250 0.6250
846.220178 0.6230 0.6230 0.6220 0.6210 0.6180
850.483976 0.6170 0.6150 0.6140 0.6140 0.6140
854.747773 0.6130 0.6110 0.6100 0.6090 0.6070
859.011571 0.6060 0.6030 0.6020 0.6010 0.5990
863.275369 0.5990 0.5980 0.5980 0.5970 0.5950
867.539166 0.5940 0.5940 0.5900 0.5870 0.5870
871.802964 0.5860 0.5860 0.5860 0.5830 0.5820
876.066761 0.5810 0.5810 0.5790 0.5750 0.5730
880.330559 0.5730 0.5690 0.5670 0.5660 0.5630
884.594357 0.5610 0.5590 0.5590 0.5540 0.5530
888.858154 0.5510 0.5500 0.5470 0.5460 0.5460
893.121952 0.5450 0.5430 0.5420 0.5410 0.5410
897.385750 0.5390 0.5380 0.5370 0.5340 0.5300
901.649547 0.5290 0.5270 0.5260 0.5250 0.5230
905.913345 0.5230 0.5220 0.5210 0.5180 0.5130
910.177142 0.5110 0.5100 0.5100 0.5030 0.5020
914.440940 0.5010 0.5000 0.4980 0.4970 0.4960
918.704738 0.4940 0.4920 0.4890 0.4880 0.4860
922.968535 0.4840 0.4810 0.4780 0.4770 0.4760
927.232333 0.4740 0.4740 0.4700 0.4680 0.4660
931.496130 0.4640 0.4600 0.4580 0.4570 0.4560
935.759928 0.4540 0.4530 0.4500 0.4490 0.4460
940.023726 0.4440 0.4420 0.4400 0.4380 0.4360
944.287523 0.4340 0.4340 0.4330 0.4290 0.4290
948.551321 0.4280 0.4250 0.4220 0.4200 0.4160
952.815118 0.4140 0.4130 0.4130 0.4100 0.4080
957.078916 0.4050 0.4050 0.4020 0.4010 0.3980
961.342714 0.3970 0.3960 0.3930 0.3930 0.3900
965.606511 0.3880 0.3860 0.3860 0.3820 0.3810
969.870309 0.3780 0.3770 0.3730 0.3720 0.3720
974.134107 0.3710 0.3690 0.3680 0.3680 0.3640
978.397904 0.3630 0.3610 0.3600 0.3560 0.3560
982.661702 0.3530 0.3530 0.3520 0.3470 0.3450
986.925499 0.3440 0.3440 0.3410 0.3390 0.3360
991.189297 0.3310 0.3290 0.3280 0.3240 0.3210
995.453095 0.3150 0.3150 0.3110 0.3040 0.2990
999.716892 0.2960 0.2920 0.2910 0.2910 0.2920
1003.980690 0.3050 0.3230 0.3240 0.3330 0.3350
1008.244487 0.3360 0.3360 0.3350 0.3330 0.3310
1012.508285 0.3310 0.3290 0.3280 0.3280 0.3240
1016.772083 0.3230 0.3210 0.3200 0.3170 0.3160
1021.035880 0.3150 0.3150 0.3130 0.3120 0.3090
1025.299678 0.3090 0.3070 0.3050 0.3030 0.3010
1029.563476 0.3000 0.2990 0.2990 0.2970 0.2950
1033.827273 0.2950 0.2930 0.2920 0.2920 0.2890
1038.091071 0.2880 0.2880 0.2870 0.2850 0.2840
1042.354868 0.2830 0.2810 0.2800 0.2790 0.2790
1046.618666 0.2790 0.2770 0.2760 0.2760 0.2750
1050.882464 0.2730 0.2730 0.2720 0.2720 0.2710
1055.146261 0.2710 0.2690 0.2690 0.2690 0.2690
1059.410059 0.2690 0.2690 0.2710 0.2710 0.2710
1063.673856 0.2710 0.2720 0.2720 0.2730 0.2730
1067.937654 0.2750 0.2750 0.2750 0.2760 0.2760
1072.201452 0.2770 0.2770 0.2790 0.2800 0.2800
1076.465249 0.2800 0.2800 0.2810 0.2810 0.2810
1080.729047 0.2830 0.2830 0.2830 0.2840 0.2840
1084.992845 0.2840 0.2840 0.2840 0.2840 0.2840
1089.256642 0.2840 0.2840 0.2840 0.2830 0.2830
1093.520440 0.2830 0.2830 0.2810 0.2800 0.2800
1097.784237 0.2790 0.2790 0.2770 0.2750 0.2750
1102.048035 0.2750 0.2730 0.2720 0.2720 0.2690
1106.311833 0.2690 0.2680 0.2680 0.2670 0.2650
1110.575630 0.2610 0.2600 0.2600 0.2560 0.2550
1114.839428 0.2520 0.2520 0.2500 0.2460 0.2430
1119.103225 0.2420 0.2340 0.2310 0.2300 0.2270
1123.367023 0.2240 0.2200 0.2160 0.2120 0.2070
1127.630821 0.2060 0.2040 0.1960 0.1900 0.1860
1131.894618 0.1780 0.1750 0.1640 0.1630 0.1580
1136.158416 0.1510 0.1480 0.1430 0.1350 0.1280
1140.422214 0.1250 0.1180 0.1170 0.1110 0.1090
1144.686011 0.1030 0.1010 0.0990 0.0980 0.0970
1148.949809 0.0940 0.0930 0.0910 0.0910 0.0930
1153.213606 0.0940 0.0990 0.1010 0.1060 0.1090
1157.477404 0.1140 0.1180 0.1230 0.1280 0.1390
1161.741202 0.1470 0.1550 0.1600 0.1670 0.1740
1166.004999 0.1830 0.1900 0.1950 0.2000 0.2100
1170.268797 0.2220 0.2310 0.2390 0.2420 0.2500
1174.532594 0.2550 0.2610 0.2670 0.2730 0.2800
1178.796392 0.2840 0.2890 0.3000 0.3120 0.3160
1183.060190 0.3210 0.3290 0.3360 0.3440 0.3530
1187.323987 0.3550 0.3600 0.3630 0.3690 0.3720
1191.587785 0.3780 0.3780 0.3820 0.3860 0.3880
1195.851583 0.3960 0.3960 0.4000 0.4040 0.4060
1200.115380 0.4120 0.4130 0.4160 0.4170 0.4170
1204.379178 0.4200 0.4240 0.4260 0.4260 0.4300
1208.642975 0.4300 0.4330 0.4340 0.4370 0.4370
1212.906773 0.4400 0.4410 0.4440 0.4450 0.4450
1217.170571 0.4460 0.4460 0.4480 0.4490 0.4520
1221.434368 0.4540 0.4540 0.4560 0.4570 0.4570
1225.698166 0.4600 0.4600 0.4610 0.4610 0.4620
1229.961963 0.4640 0.4650 0.4660 0.4660 0.4660
1234.225761 0.4660 0.4660 0.4660 0.4660 0.4660
1238.489559 0.4660 0.4660 0.4660 0.4680 0.4680
1242.753356 0.4680 0.4680 0.4680 0.4680 0.4680
1247.017154 0.4680 0.4680 0.4690 0.4700 0.4700
1251.280952 0.4720 0.4720 0.4730 0.4730 0.4740
1255.544749 0.4740 0.4740 0.4760 0.4770 0.4770
1259.808547 0.4760 0.4760 0.4760 0.4760 0.4760
1264.072344 0.4760 0.4760 0.4760 0.4760 0.4760
1268.336142 0.4760 0.4770 0.4770 0.4760 0.4760
1272.599940 0.4760 0.4760 0.4760 0.4760 0.4760
1276.863737 0.4760 0.4760 0.4760 0.4760 0.4760
1281.127535 0.4740 0.4730 0.4730 0.4720 0.4720
1285.391332 0.4720 0.4700 0.4690 0.4680 0.4680
1289.655130 0.4680 0.4660 0.4660 0.4660 0.4660
1293.918928 0.4650 0.4620 0.4600 0.4570 0.4570
1298.182725 0.4560 0.4560 0.4540 0.4540 0.4530
1302.446523 0.4520 0.4520 0.4520 0.4500 0.4500
1306.710320 0.4490 0.4480 0.4480 0.4480 0.4480
1310.974118 0.4460 0.4460 0.4460 0.4460 0.4460
1315.237916 0.4460 0.4460 0.4460 0.4460 0.4460
1319.501713 0.4460 0.4460 0.4450 0.4450 0.4450
1323.765511 0.4440 0.4440 0.4420 0.4410 0.4410
1328.029309 0.4400 0.4400 0.4380 0.4380 0.4380
1332.293106 0.4370 0.4370 0.4360 0.4360 0.4360
1336.556904 0.4360 0.4360 0.4360 0.4360 0.4360
1340.820701 0.4360 0.4370 0.4370 0.4380 0.4400
1345.084499 0.4400 0.4400 0.4410 0.4410 0.4410
1349.348297 0.4420 0.4420 0.4450 0.4450 0.4460
1353.612094 0.4460 0.4480 0.4490 0.4490 0.4500
1357.875892 0.4520 0.4520 0.4530 0.4540 0.4540
1362.139689 0.4540 0.4560 0.4570 0.4570 0.4570
1366.403487 0.4570 0.4570 0.4560 0.4560 0.4540
1370.667285 0.4540 0.4530 0.4520 0.4500 0.4480
1374.931082 0.4480 0.4460 0.4460 0.4450 0.4450
1379.194880 0.4450 0.4420 0.4400 0.4380 0.4370
1383.458678 0.4360 0.4340 0.4330 0.4330 0.4330
1387.722475 0.4320 0.4300 0.4280 0.4260 0.4250
1391.986273 0.4220 0.4200 0.4170 0.4170 0.4160
1396.250070 0.4140 0.4140 0.4120 0.4090 0.4050
1400.513868 0.4020 0.4020 0.4000 0.3980 0.3970
1404.777666 0.3960 0.3960 0.3920 0.3900 0.3890
1409.041463 0.3890 0.3880 0.3860 0.3860 0.3840
1413.305261 0.3810 0.3800 0.3780 0.3770 0.3770
1417.569058 0.3750 0.3730 0.3730 0.3710 0.3690
1421.832856 0.3690 0.3650 0.3640 0.3630 0.3610
1426.096654 0.3610 0.3600 0.3560 0.3530 0.3520
1430.360451 0.3450 0.3440 0.3370 0.3330 0.3310
1434.624249 0.3290 0.3230 0.3170 0.3150 0.3080
1438.888047 0.3070 0.3040 0.3010 0.3000 0.2960
1443.151844 0.2950 0.2920 0.2880 0.2830 0.2800
1447.415642 0.2760 0.2730 0.2630 0.2570 0.2530
1451.679439 0.2510 0.2470 0.2430 0.2380 0.2340
1455.943237 0.2280 0.2260 0.2220 0.2180 0.2150
1460.207035 0.2150 0.2140 0.2140 0.2140 0.2150
1464.470832 0.2160 0.2200 0.2230 0.2270 0.2300
1468.734630 0.2380 0.2420 0.2460 0.2470 0.2610
1472.998427 0.2721 0.2950 0.3090 0.3230 0.3390
1477.262225 0.3630 0.3780 0.4020 0.4160 0.4320
1481.526023 0.4520 0.4580 0.4680 0.4780 0.4890
1485.789820 0.5000 0.5020 0.5060 0.5100 0.5100
1490.053618 0.5110 0.5110 0.5110 0.5110 0.5110
1494.317416 0.5130 0.5130 0.5110 0.5100 0.5090
1498.581213 0.5070 0.5020 0.5000 0.5000 0.4940
1502.845011 0.4900 0.4890 0.4880 0.4820 0.4780
1507.108808 0.4770 0.4720 0.4720 0.4660 0.4600
1511.372606 0.4580 0.4540 0.4520 0.4490 0.4460
1515.636404 0.4450 0.4380 0.4340 0.4300 0.4280
1519.900201 0.4250 0.4170 0.4160 0.4140 0.4090
1524.163999 0.4060 0.4050 0.4020 0.3980 0.3970
1528.427796 0.3920 0.3900 0.3860 0.3820 0.3800
1532.691594 0.3780 0.3770 0.3710 0.3640 0.3630
1536.955392 0.3610 0.3600 0.3530 0.3510 0.3470
1541.219189 0.3440 0.3400 0.3390 0.3360 0.3360
1545.482987 0.3310 0.3240 0.3230 0.3210 0.3200
1549.746785 0.3170 0.3160 0.3130 0.3080 0.3070
1554.010582 0.3050 0.3010 0.3000 0.2970 0.2950
1558.274380 0.2930 0.2880 0.2840 0.2770 0.2750
1562.538177 0.2730 0.2720 0.2690 0.2670 0.2630
1566.801975 0.2600 0.2570 0.2550 0.2520 0.2460
1571.065773 0.2400 0.2380 0.2360 0.2340 0.2310
1575.329570 0.2280 0.2260 0.2260 0.2240 0.2220
1579.593368 0.2200 0.2180 0.2140 0.2110 0.2080
1583.857165 0.2060 0.2040 0.2030 0.2020 0.2000
1588.120963 0.1990 0.1990 0.1980 0.1980 0.1980
1592.384761 0.1980 0.1980 0.1980 0.1980 0.1990
1596.648558 0.1990 0.1990 0.2000 0.2020 0.2030
1600.912356 0.2030 0.2040 0.2040 0.2060 0.2070
1605.176153 0.2080 0.2100 0.2110 0.2120 0.2140
1609.439951 0.2160 0.2160 0.2200 0.2200 0.2230
1613.703749 0.2230 0.2240 0.2240 0.2230 0.2230
1617.967546 0.2230 0.2220 0.2220 0.2200 0.2190
1622.231344 0.2180 0.2180 0.2160 0.2160 0.2150
1626.495142 0.2150 0.2150 0.2150 0.2160 0.2180
1630.758939 0.2200 0.2240 0.2260 0.2270 0.2320
1635.022737 0.2340 0.2350 0.2360 0.2380 0.2390
1639.286534 0.2420 0.2480 0.2510 0.2530 0.2590
1643.550332 0.2630 0.2710 0.2800 0.2880 0.2950
1647.814130 0.3000 0.3040 0.3080 0.3170 0.3360
1652.077927 0.3520 0.3520 0.3530 0.3530 0.3550
1656.341725 0.3550 0.3550 0.3560 0.3560 0.3570
1660.605522 0.3570 0.3550 0.3530 0.3450 0.3400
1664.869320 0.3370 0.3330 0.3290 0.3240 0.3210
1669.133118 0.3160 0.3050 0.2960 0.2910 0.2840
1673.396915 0.2810 0.2770 0.2640 0.2630 0.2610
1677.660713 0.2590 0.2560 0.2550 0.2530 0.2530
1681.924511 0.2520 0.2520 0.2510 0.2510 0.2510
1686.188308 0.2510 0.2520 0.2520 0.2530 0.2550
1690.452106 0.2560 0.2610 0.2650 0.2670 0.2690
1694.715903 0.2760 0.2800 0.2810 0.2850 0.2870
1698.979701 0.2920 0.2990 0.3010 0.3050 0.3110
1703.243499 0.3120 0.3160 0.3210 0.3230 0.3290
1707.507296 0.3320 0.3370 0.3410 0.3470 0.3530
1711.771094 0.3590 0.3670 0.3780 0.3810 0.3900
1716.034891 0.4050 0.4090 0.4170 0.4180 0.4240
1720.298689 0.4260 0.4360 0.4440 0.4480 0.4560
1724.562487 0.4610 0.4650 0.4690 0.4770 0.4880
1728.826284 0.4920 0.5010 0.5060 0.5190 0.5260
1733.090082 0.5350 0.5370 0.5390 0.5430 0.5490
1737.353880 0.5610 0.5630 0.5660 0.5740 0.5770
1741.617677 0.5870 0.5890 0.5930 0.6010 0.6020
1745.881475 0.6090 0.6170 0.6250 0.6280 0.6310
1750.145272 0.6350 0.6400 0.6460 0.6460 0.6500
1754.409070 0.6590 0.6600 0.6660 0.6740 0.6750
1758.672868 0.6790 0.6870 0.6920 0.7030 0.7040
1762.936665 0.7060 0.7070 0.7150 0.7190 0.7230
1767.200463 0.7280 0.7320 0.7390 0.7440 0.7480
1771.464260 0.7510 0.7520 0.7530 0.7570 0.7600
1775.728058 0.7640 0.7650 0.7720 0.7730 0.7760
1779.991856 0.7800 0.7840 0.7880 0.7920 0.7930
1784.255653 0.7950 0.7990 0.8030 0.8050 0.8130
1788.519451 0.8150 0.8200 0.8240 0.8290 0.8290
1792.783249 0.8320 0.8320 0.8350 0.8390 0.8440
1797.047046 0.8470 0.8480 0.8490 0.8510 0.8560
1801.310844 0.8590 0.8610 0.8630 0.8640 0.8650
1805.574641 0.8690 0.8710 0.8750 0.8760 0.8770
1809.838439 0.8800 0.8810 0.8840 0.8850 0.8890
1814.102237 0.8900 0.8900 0.8920 0.8930 0.8970
1818.366034 0.8980 0.9000 0.9020 0.9060 0.9100
1822.629832 0.9100 0.9120 0.9130 0.9130 0.9160
1826.893629 0.9180 0.9210 0.9220 0.9220 0.9220
1831.157427 0.9240 0.9250 0.9260 0.9280 0.9300
1835.421225 0.9320 0.9330 0.9330 0.9330 0.9340
1839.685022 0.9360 0.9380 0.9440 0.9440 0.9450
1843.948820 0.9460 0.9460 0.9460 0.9480 0.9490
1848.212618 0.9490 0.9490 0.9500 0.9520 0.9530
1852.476415 0.9530 0.9530 0.9540 0.9540 0.9540
1856.740213 0.9560 0.9570 0.9570 0.9580 0.9580
1861.004010 0.9600 0.9610 0.9620 0.9620 0.9620
1865.267808 0.9640 0.9660 0.9680 0.9690 0.9690
1869.531606 0.9690 0.9700 0.9700 0.9700 0.9700
1873.795403 0.9730 0.9730 0.9730 0.9730 0.9760
1878.059201 0.9760 0.9760 0.9760 0.9770 0.9780
1882.322998 0.9780 0.9780 0.9800 0.9810 0.9820
1886.586796 0.9820 0.9840 0.9850 0.9860 0.9860
1890.850594 0.9860 0.9860 0.9880 0.9890 0.9890
1895.114391 0.9890 0.9900 0.9900 0.9900 0.9900
1899.378189 0.9920 0.9920 0.9920 0.9930 0.9930
1903.641986 0.9930 0.9930 0.9940 0.9940 0.9940
1907.905784 0.9960 0.9960 0.9960 0.9960 0.9970
1912.169582 0.9970 0.9970 0.9970 0.9970 0.9970
1916.433379 0.9970 0.9980 0.9980 0.9980 0.9980
1920.697177 0.9980 0.9980 0.9980 1.0000 1.0000
1924.960975 1.0000 1.0000 1.0000 1.0000 1.0000
1929.224772 1.0000 1.0000 1.0000 1.0000 1.0000
1933.488570 1.0000 1.0000 1.0000 1.0000 1.0000
1937.752367 0.9980 0.9980 0.9980 0.9980 0.9980
1942.016165 0.9980 0.9980 0.9980 0.9980 0.9980
1946.279963 0.9980 0.9980 0.9980 0.9980 0.9980
1950.543760 0.9980 0.9970 0.9970 0.9970 0.9970
1954.807558 0.9970 0.9970 0.9970 0.9970 0.9970
1959.071355 0.9970 0.9970 0.9970 0.9970 0.9960
1963.335153 0.9960 0.9960 0.9960 0.9960 0.9960
1967.598951 0.9940 0.9940 0.9940 0.9940 0.9930
1971.862748 0.9930 0.9930 0.9930 0.9930 0.9930
1976.126546 0.9930 0.9920 0.9920 0.9900 0.9900
1980.390344 0.9900 0.9890 0.9880 0.9880 0.9880
1984.654141 0.9860 0.9860 0.9860 0.9860 0.9860
1988.917939 0.9850 0.9850 0.9840 0.9840 0.9810
1993.181736 0.9810 0.9800 0.9780 0.9770 0.9760
1997.445534 0.9760 0.9760 0.9740 0.9740 0.9735
2001.709332 0.9730 0.9730 0.9730 0.9725 0.9720
2005.973129 0.9720 0.9720 0.9720 0.9720 0.9720
2010.236927 0.9720 0.9710 0.9700 0.9700 0.9700
2014.500724 0.9700 0.9700 0.9700 0.9700 0.9695
2018.764522 0.9690 0.9690 0.9690 0.9690 0.9690
2023.028320 0.9690 0.9690 0.9695 0.9700 0.9700
2027.292117 0.9700 0.9700 0.9700 0.9695 0.9690
2031.555915 0.9690 0.9690 0.9685 0.9680 0.9680
2035.819713 0.9679 0.9669 0.9660 0.9655 0.9650
2040.083510 0.9645 0.9639 0.9629 0.9620 0.9615
2044.347308 0.9610 0.9605 0.9600 0.9600 0.9600
2048.611105 0.9600 0.9599 0.9584 0.9570 0.9570
2052.874903 0.9570 0.9565 0.9560 0.9560 0.9560
2057.138701 0.9560 0.9559 0.9549 0.9540 0.9535
2061.402498 0.9530 0.9530 0.9530 0.9525 0.9520
2065.666296 0.9520 0.9519 0.9509 0.9499 0.9489
2069.930093 0.9479 0.9469 0.9459 0.9454 0.9450
2074.193891 0.9450 0.9451 0.9456 0.9460 0.9460
2078.457689 0.9460 0.9460 0.9459 0.9454 0.9450
2082.721486 0.9450 0.9450 0.9450 0.9450 0.9450
2086.985284 0.9449 0.9444 0.9440 0.9440 0.9440
2091.249082 0.9440 0.9440 0.9440 0.9439 0.9429
2095.512879 0.9420 0.9420 0.9419 0.9414 0.9409
2099.776677 0.9404 0.9398 0.9388 0.9379 0.9374
2104.040474 0.9370 0.9370 0.9369 0.9364 0.9358
2108.304272 0.9348 0.9339 0.9334 0.9329 0.9324
2112.568070 0.9320 0.9320 0.9318 0.9308 0.9299
2116.831867 0.9294 0.9289 0.9284 0.9278 0.9268
2121.095665 0.9259 0.9254 0.9250 0.9250 0.9249
2125.359462 0.9244 0.9238 0.9228 0.9219 0.9214
2129.623260 0.9207 0.9192 0.9179 0.9174 0.9170
2133.887058 0.9170 0.9167 0.9152 0.9140 0.9140
2138.150855 0.9139 0.9134 0.9129 0.9124 0.9120
2142.414653 0.9120 0.9118 0.9108 0.9100 0.9100
2146.678451 0.9098 0.9088 0.9077 0.9062 0.9047
2150.942248 0.9032 0.9020 0.9020 0.9019 0.9014
2155.206046 0.9009 0.9004 0.8997 0.8987 0.8975
2159.469843 0.8955 0.8937 0.8927 0.8917 0.8907
2163.733641 0.8899 0.8894 0.8889 0.8884 0.8876
2167.997439 0.8861 0.8845 0.8825 0.8806 0.8791
2172.261236 0.8779 0.8774 0.8767 0.8757 0.8747
2176.525034 0.8737 0.8729 0.8724 0.8720 0.8720
2180.788831 0.8719 0.8714 0.8710 0.8710 0.8710
2185.052629 0.8710 0.8710 0.8710 0.8710 0.8710
2189.316427 0.8710 0.8710 0.8707 0.8697 0.8690
2193.580224 0.8690 0.8690 0.8690 0.8690 0.8690
2197.844022 0.8690 0.8690 0.8690 0.8690 0.8688
2202.107820 0.8683 0.8678 0.8673 0.8670 0.8670
2206.371617 0.8670 0.8670 0.8667 0.8657 0.8648
2210.635415 0.8643 0.8638 0.8633 0.8625 0.8610
2214.899212 0.8600 0.8600 0.8598 0.8593 0.8587
2219.163010 0.8577 0.8563 0.8543 0.8528 0.8523
2223.426808 0.8518 0.8513 0.8506 0.8496 0.8488
2227.690605 0.8483 0.8478 0.8473 0.8466 0.8456
2231.954403 0.8448 0.8443 0.8438 0.8433 0.8426
2236.218200 0.8416 0.8408 0.8403 0.8398 0.8393
2240.481998 0.8386 0.8376 0.8368 0.8363 0.8360
2244.745796 0.8360 0.8354 0.8339 0.8330 0.8330
2249.009593 0.8328 0.8323 0.8318 0.8313 0.8306
2253.273391 0.8296 0.8288 0.8283 0.8278 0.8273
2257.537188 0.8266 0.8256 0.8248 0.8243 0.8238
2261.800986 0.8233 0.8226 0.8216 0.8208 0.8203
2266.064784 0.8198 0.8193 0.8186 0.8176 0.8168
2270.328581 0.8163 0.8158 0.8153 0.8150 0.8150
2274.592379 0.8146 0.8136 0.8130 0.8130 0.8128
2278.856177 0.8123 0.8118 0.8113 0.8110 0.8110
2283.119974 0.8110 0.8110 0.8105 0.8095 0.8090
2287.383772 0.8090 0.8088 0.8083 0.8078 0.8073
2291.647569 0.8065 0.8055 0.8050 0.8050 0.8048
2295.911367 0.8043 0.8038 0.8033 0.8025 0.8015
2300.175165 0.8008 0.8003 0.8000 0.8000 0.7998
2304.438962 0.7993 0.7990 0.7990 0.7985 0.7975
2308.702760 0.7967 0.7962 0.7957 0.7952 0.7945
2312.966557 0.7935 0.7930 0.7930 0.7930 0.7930
2317.230355 0.7930 0.7930 0.7930 0.7930 0.7935
2321.494153 0.7945 0.7950 0.7950 0.7953 0.7958
2325.757950 0.7960 0.7960 0.7963 0.7968 0.7970
2330.021748 0.7970 0.7975 0.7985 0.7993 0.7998
2334.285546 0.8000 0.8000 0.8003 0.8008 0.8010
2338.549343 0.8010 0.8015 0.8026 0.8033 0.8038
2342.813141 0.8043 0.8048 0.8050 0.8050 0.8050
2347.076938 0.8050 0.8056 0.8066 0.8073 0.8078
2351.340736 0.8088 0.8103 0.8113 0.8118 0.8123
2355.604534 0.8128 0.8139 0.8154 0.8163 0.8168
2359.868331 0.8176 0.8186 0.8193 0.8198 0.8200
2364.132129 0.8200 0.8209 0.8224 0.8230 0.8230
2368.395926 0.8221 0.8206 0.8188 0.8168 0.8151
2372.659724 0.8136 0.8127 0.8122 0.8120 0.8120
2376.923522 0.8120 0.8120 0.8117 0.8112 0.8110
2381.187319 0.8110 0.8110 0.8110 0.8104 0.8094
2385.451117 0.8090 0.8090 0.8090 0.8090 0.8090
2389.714915 0.8090 0.8090 0.8090 0.8090 0.8090
2393.978712 0.8090 0.8090 0.8090 0.8090 0.8087
2398.242510 0.8082 0.8080 0.8080 0.8080 0.8080
2402.506307 0.8077 0.8072 0.8070 0.8070 0.8070
2406.770105 0.8070 0.8070 0.8070 0.8070 0.8070
2411.033903 0.8063 0.8053 0.8050 0.8050 0.8050
2415.297700 0.8050 0.8050 0.8050 0.8050 0.8050
2419.561498 0.8047 0.8042 0.8040 0.8040 0.8040
2423.825295 0.8040 0.8037 0.8032 0.8030 0.8030
2428.089093 0.8030 0.8030 0.8030 0.8030 0.8030
2432.352891 0.8030 0.8030 0.8030 0.8030 0.8030
2436.616688 0.8023 0.8013 0.8010 0.8010 0.8010
2440.880486 0.8010 0.8006 0.8001 0.7996 0.7991
2445.144284 0.7990 0.7990 0.7979 0.7964 0.7956
2449.408081 0.7951 0.7950 0.7950 0.7943 0.7933
2453.671879 0.7930 0.7930 0.7926 0.7921 0.7916
2457.935676 0.7911 0.7910 0.7910 0.7902 0.7892
2462.199474 0.7886 0.7881 0.7880 0.7880 0.7884
2466.463272 0.7889 0.7898 0.7908 0.7910 0.7910
2470.727069 0.7910 0.7910 0.7914 0.7919 0.7920
2474.990867 0.7920 0.7920 0.7920 0.7924 0.7929
2479.254664 0.7930 0.7930 0.7938 0.7948 0.7950
2483.518462 0.7950 0.7950 0.7950 0.7950 0.7950
2487.782260 0.7950 0.7950 0.7950 0.7950 0.7954
2492.046057 0.7959 0.7960 0.7960 0.7960 0.7960
2496.309855 0.7960 0.7960 0.7960 0.7960 0.7960
2500.573653 0.7960 0.7956 0.7951 0.7950 0.7950
2504.837450 0.7950 0.7950 0.7950 0.7950 0.7950
2509.101248 0.7950 0.7950 0.7950 0.7950 0.7950
2513.365045 0.7950 0.7950 0.7950 0.7950 0.7942
2517.628843 0.7932 0.7930 0.7930 0.7930 0.7930
2521.892641 0.7930 0.7930 0.7930 0.7930 0.7926
2526.156438 0.7921 0.7920 0.7920 0.7916 0.7911
2530.420236 0.7910 0.7910 0.7901 0.7891 0.7886
2534.684033 0.7881 0.7880 0.7880 0.7876 0.7871
2538.947831 0.7870 0.7870 0.7861 0.7851 0.7850
2543.211629 0.7850 0.7846 0.7841 0.7836 0.7831
2547.475426 0.7830 0.7830 0.7817 0.7802 0.7800
2551.739224 0.7800 0.7796 0.7791 0.7781 0.7771
2556.003021 0.7770 0.7770 0.7766 0.7761 0.7760
2560.266819 0.7760 0.7755 0.7750 0.7750 0.7750
2564.530617 0.7741 0.7731 0.7730 0.7730 0.7725
2568.794414 0.7720 0.7706 0.7691 0.7685 0.7680
2573.058212 0.7675 0.7670 0.7670 0.7670 0.7661
2577.322010 0.7651 0.7645 0.7640 0.7635 0.7630
2581.585807 0.7616 0.7601 0.7600 0.7600 0.7595
2585.849605 0.7590 0.7590 0.7590 0.7581 0.7571
2590.113402 0.7565 0.7560 0.7555 0.7550 0.7540
2594.377200 0.7530 0.7525 0.7520 0.7515 0.7510
2598.640998 0.7505 0.7500 0.7490 0.7480 0.7475
2602.904795 0.7470 0.7470 0.7470 0.7465 0.7460
2607.168593 0.7460 0.7460 0.7450 0.7440 0.7435
2611.432390 0.7430 0.7425 0.7420 0.7410 0.7400
2615.696188 0.7395 0.7390 0.7375 0.7360 0.7350
2619.959986 0.7340 0.7330 0.7320 0.7315 0.7310
2624.223783 0.7310 0.7310 0.7305 0.7300 0.7290
2628.487581 0.7280 0.7275 0.7270 0.7270 0.7270
2632.751379 0.7265 0.7260 0.7260 0.7260 0.7260
2637.015176 0.7260 0.7265 0.7270 0.7275 0.7280
2641.278974 0.7280 0.7280 0.7290 0.7300 0.7300
2645.542771 0.7300 0.7300 0.7300 0.7300 0.7300
2649.806569 0.7300 0.7300 0.7300 0.7299 0.7289
2654.070367 0.7280 0.7280 0.7280 0.7275 0.7270
2658.334164 0.7270 0.7270 0.7270 0.7270 0.7265
2662.597962 0.7260 0.7260 0.7260 0.7260 0.7259
2666.861759 0.7249 0.7240 0.7240 0.7240 0.7240
2671.125557 0.7240 0.7240 0.7240 0.7240 0.7240
2675.389355 0.7240 0.7240 0.7235 0.7230 0.7230
2679.653152 0.7230 0.7230 0.7230 0.7230 0.7229
2683.916950 0.7224 0.7220 0.7220 0.7219 0.7209
2688.180748 0.7200 0.7200 0.7199 0.7194 0.7190
2692.444545 0.7190 0.7190 0.7190 0.7190 0.7190
2696.708343 0.7189 0.7184 0.7180 0.7180 0.7180
2700.972140 0.7180 0.7180 0.7180 0.7179 0.7169
2705.235938 0.7160 0.7160 0.7160 0.7160 0.7160
2709.499736 0.7160 0.7160 0.7160 0.7160 0.7160
2713.763533 0.7159 0.7154 0.7150 0.7150 0.7150
2718.027331 0.7150 0.7150 0.7150 0.7149 0.7144
2722.291128 0.7140 0.7140 0.7140 0.7140 0.7140
2726.554926 0.7140 0.7140 0.7140 0.7138 0.7128
2730.818724 0.7119 0.7114 0.7109 0.7104 0.7098
2735.082521 0.7088 0.7080 0.7080 0.7079 0.7074
2739.346319 0.7069 0.7064 0.7060 0.7060 0.7058
2743.610117 0.7048 0.7040 0.7040 0.7040 0.7040
2747.873914 0.7039 0.7034 0.7030 0.7030 0.7029
2752.137712 0.7024 0.7018 0.7008 0.7000 0.7000
2756.401509 0.6999 0.6994 0.6987 0.6972 0.6958
2760.665307 0.6948 0.6938 0.6928 0.6920 0.6920
2764.929105 0.6919 0.6914 0.6909 0.6904 0.6898
2769.192902 0.6887 0.6877 0.6867 0.6857 0.6847
2773.456700 0.6839 0.6834 0.6829 0.6824 0.6816
2777.720497 0.6801 0.6789 0.6784 0.6777 0.6767
2781.984295 0.6759 0.6754 0.6750 0.6750 0.6749
2786.248093 0.6744 0.6740 0.6740 0.6740 0.6740
2790.511890 0.6737 0.6727 0.6720 0.6720 0.6720
2794.775688 0.6720 0.6720 0.6720 0.6720 0.6720
2799.039486 0.6720 0.6720 0.6723 0.6733 0.6740
2803.303283 0.6740 0.6737 0.6727 0.6720 0.6720
2807.567081 0.6720 0.6720 0.6720 0.6720 0.6720
2811.830878 0.6720 0.6723 0.6733 0.6740 0.6740
2816.094676 0.6740 0.6740 0.6740 0.6740 0.6740
2820.358474 0.6740 0.6740 0.6740 0.6740 0.6740
2824.622271 0.6740 0.6740 0.6740 0.6740 0.6740
2828.886069 0.6740 0.6740 0.6740 0.6740 0.6740
2833.149866 0.6735 0.6720 0.6708 0.6703 0.6696
2837.413664 0.6686 0.6676 0.6666 0.6655 0.6640
2841.677462 0.6625 0.6610 0.6600 0.6600 0.6598
2845.941259 0.6593 0.6588 0.6583 0.6580 0.6580
2850.205057 0.6580 0.6580 0.6580 0.6580 0.6580
2854.468855 0.6580 0.6582 0.6587 0.6590 0.6590
2858.732652 0.6590 0.6590 0.6592 0.6597 0.6600
2862.996450 0.6600 0.6600 0.6600 0.6600 0.6600
2867.260247 0.6598 0.6593 0.6590 0.6590 0.6590
2871.524045 0.6590 0.6588 0.6583 0.6580 0.6580
2875.787843 0.6580 0.6580 0.6576 0.6566 0.6560
2880.051640 0.6560 0.6558 0.6553 0.6548 0.6543
2884.315438 0.6536 0.6526 0.6518 0.6513 0.6508
2888.579235 0.6503 0.6496 0.6486 0.6476 0.6466
2892.843033 0.6460 0.6460 0.6456 0.6446 0.6438
2897.106831 0.6433 0.6421 0.6401 0.6381 0.6361
2901.370628 0.6348 0.6343 0.6333 0.6318 0.6308
2905.634426 0.6303 0.6300 0.6300 0.6288 0.6263
2909.898223 0.6236 0.6206 0.6181 0.6161 0.6148
2914.162021 0.6143 0.6140 0.6140 0.6133 0.6118
2918.425819 0.6108 0.6103 0.6098 0.6093 0.6090
2922.689616 0.6090 0.6090 0.6090 0.6090 0.6090
2926.953414 0.6090 0.6090 0.6090 0.6090 0.6093
2931.217212 0.6098 0.6103 0.6108 0.6110 0.6110
2935.481009 0.6115 0.6125 0.6130 0.6130 0.6130
2939.744807 0.6130 0.6130 0.6130 0.6125 0.6115
2944.008604 0.6107 0.6102 0.6097 0.6092 0.6082
2948.272402 0.6067 0.6052 0.6037 0.6017 0.5992
2952.536200 0.5977 0.5972 0.5970 0.5970 0.5973
2956.799997 0.5978 0.5983 0.5988 0.5990 0.5990
2961.063795 0.5990 0.5990 0.5996 0.6006 0.6010
2965.327592 0.6010 0.6010 0.6010 0.6010 0.6010
2969.591390 0.6004 0.5994 0.5990 0.5990 0.5984
2973.855188 0.5974 0.5964 0.5954 0.5947 0.5942
2978.118985 0.5937 0.5932 0.5921 0.5906 0.5897
2982.382783 0.5892 0.5890 0.5890 0.5890 0.5890
2986.646581 0.5884 0.5874 0.5870 0.5870 0.5867
2990.910378 0.5862 0.5848 0.5828 0.5820 0.5820
2995.174176 0.5817 0.5812 0.5804 0.5794 0.5784
2999.437973 0.5774 0.5764 0.5754 0.5747 0.5742
3003.701771 0.5737 0.5732 0.5730 0.5730 0.5720
3007.965569 0.5705 0.5690 0.5675 0.5664 0.5654
3012.229366 0.5644 0.5634 0.5627 0.5622 0.5617
3016.493164 0.5612 0.5610 0.5610 0.5600 0.5585
3020.756961 0.5567 0.5547 0.5537 0.5532 0.5520
3025.020759 0.5505 0.5497 0.5492 0.5490 0.5490
3029.284557 0.5480 0.5465 0.5450 0.5435 0.5427
3033.548354 0.5422 0.5410 0.5395 0.5383 0.5373
3037.812152 0.5370 0.5370 0.5363 0.5353 0.5347
3042.075950 0.5342 0.5330 0.5315 0.5307 0.5302
3046.339747 0.5300 0.5300 0.5286 0.5266 0.5250
3050.603545 0.5235 0.5227 0.5222 0.5206 0.5186
3054.867342 0.5169 0.5154 0.5146 0.5141 0.5129
3059.131140 0.5114 0.5103 0.5093 0.5090 0.5090
3063.394938 0.5079 0.5064 0.5049 0.5034 0.5026
3067.658735 0.5021 0.5006 0.4986 0.4966 0.4946
3071.922533 0.4933 0.4923 0.4913 0.4903 0.4896
3076.186330 0.4891 0.4886 0.4881 0.4865 0.4845
3080.450128 0.4829 0.4814 0.4799 0.4784 0.4776
3084.713926 0.4771 0.4770 0.4770 0.4755 0.4735
3088.977723 0.4711 0.4686 0.4668 0.4653 0.4646
3093.241521 0.4641 0.4628 0.4613 0.4606 0.4601
3097.505319 0.4592 0.4582 0.4557 0.4527 0.4504
3101.769116 0.4484 0.4468 0.4453 0.4450 0.4450
3106.032914 0.4446 0.4441 0.4432 0.4422 0.4412
3110.296711 0.4402 0.4392 0.4382 0.4376 0.4371
3114.560509 0.4366 0.4361 0.4352 0.4342 0.4340
3118.824307 0.4340 0.4324 0.4304 0.4300 0.4300
3123.088104 0.4292 0.4282 0.4268 0.4253 0.4250
3127.351902 0.4250 0.4238 0.4223 0.4212 0.4202
3131.615699 0.4188 0.4173 0.4170 0.4170 0.4166
3135.879497 0.4161 0.4160 0.4160 0.4152 0.4142
3140.143295 0.4140 0.4140 0.4136 0.4131 0.4126
3144.407092 0.4121 0.4107 0.4092 0.4086 0.4081
3148.670890 0.4071 0.4061 0.4051 0.4041 0.4023
3152.934688 0.4003 0.4000 0.4000 0.3991 0.3981
3157.198485 0.3976 0.3971 0.3957 0.3942 0.3922
3161.462283 0.3902 0.3891 0.3881 0.3871 0.3861
3165.726080 0.3838 0.3813 0.3806 0.3801 0.3787
3169.989878 0.3772 0.3761 0.3751 0.3737 0.3722
3174.253676 0.3706 0.3691 0.3667 0.3642 0.3635
3178.517473 0.3630 0.3621 0.3611 0.3583 0.3553
3182.781271 0.3532 0.3512 0.3501 0.3491 0.3485
3187.045068 0.3480 0.3475 0.3470 0.3438 0.3403
3191.308866 0.3386 0.3371 0.3365 0.3360 0.3341
3195.572664 0.3321 0.3320 0.3320 0.3306 0.3291
3199.836461 0.3281 0.3271 0.3256 0.3241 0.3240
3204.100259 0.3240 0.3235 0.3230 0.3221 0.3211
3208.364056 0.3205 0.3200 0.3200 0.3200 0.3195
3212.627854 0.3190 0.3180 0.3170 0.3165 0.3160
3216.891652 0.3160 0.3160 0.3160 0.3160 0.3160
3221.155449 0.3160 0.3165 0.3170 0.3170 0.3170
3225.419247 0.3180 0.3190 0.3190 0.3190 0.3190
3229.683045 0.3190 0.3190 0.3190 0.3190 0.3190
3233.946842 0.3180 0.3170 0.3170 0.3170 0.3165
3238.210640 0.3160 0.3155 0.3150 0.3150 0.3150
3242.474437 0.3135 0.3120 0.3115 0.3110 0.3110
3246.738235 0.3110 0.3110 0.3110 0.3115 0.3120
3251.002033 0.3125 0.3130 0.3140 0.3150 0.3150
3255.265830 0.3150 0.3155 0.3160 0.3165 0.3170
3259.529628 0.3170 0.3170 0.3180 0.3190 0.3195
3263.793425 0.3200 0.3200 0.3200 0.3200 0.3200
3268.057223 0.3200 0.3200 0.3200 0.3200 0.3195
3272.321021 0.3189 0.3179 0.3170 0.3165 0.3160
3276.584818 0.3160 0.3160 0.3160 0.3160 0.3160
3280.848616 0.3160 0.3155 0.3150 0.3150 0.3149
3285.112414 0.3139 0.3130 0.3130 0.3130 0.3125
3289.376211 0.3120 0.3115 0.3110 0.3110 0.3109
3293.640009 0.3094 0.3079 0.3074 0.3069 0.3059
3297.903806 0.3049 0.3039 0.3028 0.3008 0.2987
3302.167604 0.2957 0.2929 0.2924 0.2918 0.2903
3306.431402 0.2889 0.2879 0.2868 0.2848 0.2828
3310.695199 0.2813 0.2799 0.2794 0.2789 0.2779
3314.958997 0.2769 0.2764 0.2760 0.2760 0.2759
3319.222794 0.2754 0.2749 0.2739 0.2730 0.2730
3323.486592 0.2729 0.2724 0.2720 0.2720 0.2719
3327.750390 0.2714 0.2710 0.2710 0.2710 0.2710
3332.014187 0.2710 0.2710 0.2710 0.2710 0.2711
3336.277985 0.2716 0.2721 0.2726 0.2730 0.2730
3340.541783 0.2732 0.2742 0.2753 0.2773 0.2791
3344.805580 0.2796 0.2801 0.2806 0.2816 0.2846
3349.069378 0.2876 0.2906 0.2937 0.2972 0.3010
3353.333175 0.3066 0.3114 0.3134 0.3152 0.3162
3357.596973 0.3174 0.3194 0.3226 0.3306 0.3386
3361.860771 0.3467 0.3545 0.3615 0.3674 0.3694
3366.124568 0.3718 0.3753 0.3784 0.3804 0.3827
3370.388366 0.3857 0.3889 0.3929 0.3961 0.3966
3374.652163 0.3973 0.3988 0.4000 0.4000 0.4000
3378.915961 0.4000 0.4000 0.4000 0.3998 0.3988
3383.179759 0.3979 0.3974 0.3969 0.3964 0.3956
3387.443556 0.3941 0.3924 0.3899 0.3868 0.3818
3391.707354 0.3774 0.3749 0.3719 0.3674 0.3631
3395.971152 0.3596 0.3559 0.3519 0.3472 0.3407
3400.234949 0.3338 0.3258 0.3184 0.3124 0.3076
3404.498747 0.3061 0.3045 0.3025 0.3009 0.3004
3408.762544 0.2989 0.2949 0.2905 0.2850 0.2804
3413.026342 0.2784 0.2764 0.2744 0.2729 0.2724
3417.290140 0.2714 0.2694 0.2669 0.2634 0.2607
3421.553937 0.2597 0.2581 0.2551 0.2527 0.2517
3425.817735 0.2510 0.2510 0.2508 0.2503 0.2500
3430.081532 0.2500 0.2502 0.2507 0.2510 0.2510
3434.345330 0.2512 0.2517 0.2522 0.2527 0.2530
3438.609128 0.2530 0.2533 0.2543 0.2552 0.2557
3442.872925 0.2562 0.2567 0.2573 0.2583 0.2593
3447.136723 0.2603 0.2615 0.2630 0.2647 0.2667
3451.400521 0.2682 0.2687 0.2694 0.2704 0.2712
3455.664318 0.2717 0.2725 0.2740 0.2759 0.2784
3459.928116 0.2802 0.2807 0.2821 0.2851 0.2874
3464.191913 0.2884 0.2896 0.2911 0.2930 0.2955
3468.455711 0.2989 0.3039 0.3085 0.3125 0.3160
3472.719509 0.3185 0.3213 0.3249 0.3282 0.3312
3476.983306 0.3353 0.3413 0.3466 0.3506 0.3542
3481.247104 0.3572 0.3592 0.3597 0.3645 0.3755
3485.510901 0.3840 0.3891 0.3949 0.4019 0.4085
3489.774699 0.4145 0.4196 0.4237 0.4297 0.4387
3494.038497 0.4448 0.4468 0.4507 0.4572 0.4644
3498.302294 0.4724 0.4794 0.4849 0.4908 0.4973
3502.566092 0.5049 0.5139 0.5205 0.5240 0.5284
3506.829889 0.5339 0.5399 0.5464 0.5542 0.5637
3511.093687 0.5730 0.5820 0.5903 0.5978 0.6049
3515.357485 0.6115 0.6178 0.6238 0.6305 0.6380
3519.621282 0.6460 0.6545 0.6700 0.6935 0.7072
3523.885080 0.7097 0.7138 0.7198 0.7270 0.7355
3528.148878 0.7449 0.7554 0.7643 0.7713 0.7783
3532.412675 0.7854 0.7915 0.7965 0.8024 0.8094
3536.676473 0.8177 0.8272 0.8359 0.8440 0.8507
3540.940270 0.8562 0.8610 0.8650 0.8682 0.8707
3545.204068 0.8727 0.8742 0.8777 0.8832 0.8875
3549.467866 0.8905 0.8972 0.9072 0.9136 0.9166
3553.731663 0.9209 0.9264 0.9298 0.9313 0.9330
3557.995461 0.9350 0.9370 0.9390 0.9413 0.9438
3562.259258 0.9461 0.9481 0.9490 0.9490 0.9498
3566.523056 0.9513 0.9523 0.9528 0.9538 0.9553
3570.786854 0.9571 0.9591 0.9605 0.9616 0.9626
3575.050651 0.9636 0.9646 0.9656 0.9671 0.9691
3579.314449 0.9717 0.9747 0.9763 0.9768 0.9770
3583.578247 0.9770 0.9773 0.9778 0.9780 0.9780
3587.842044 0.9786 0.9796 0.9800 0.9800 0.9806
3592.105842 0.9816 0.9820 0.9820 0.9820 0.9820
3596.369639 0.9826 0.9836 0.9840 0.9840 0.9843
3600.633437 0.9848 0.9850 0.9850 0.9850 0.9850
3604.897235 0.9850 0.9850 0.9853 0.9858 0.9860
3609.161032 0.9860 0.9857 0.9852 0.9850 0.9850
3613.424830 0.9847 0.9842 0.9840 0.9840 0.9840
3617.688627 0.9840 0.9843 0.9848 0.9850 0.9850
3621.952425 0.9847 0.9842 0.9834 0.9824 0.9817
3626.216223 0.9812 0.9810 0.9810 0.9810 0.9810
3630.480020 0.9810 0.9810 0.9807 0.9802 0.9800
3634.743818 0.9800 0.9800 0.9800 0.9800 0.9800
3639.007616 0.9793 0.9783 0.9780 0.9780 0.9777
3643.271413 0.9772 0.9767 0.9762 0.9760 0.9760
3647.535211 0.9750 0.9735 0.9720 0.9705 0.9697
3651.799008 0.9692 0.9690 0.9690 0.9690 0.9690
3656.062806 0.9690 0.9690 0.9690 0.9690 0.9690
3660.326604 0.9690 0.9687 0.9682 0.9680 0.9680
3664.590401 0.9680 0.9680 0.9670 0.9655 0.9640
3668.854199 0.9624 0.9616 0.9611 0.9606 0.9601
3673.117996 0.9600 0.9600 0.9593 0.9583 0.9580
3677.381794 0.9580 0.9576 0.9571 0.9570 0.9570
3681.645592 0.9559 0.9544 0.9536 0.9531 0.9530
3685.909389 0.9530 0.9519 0.9504 0.9493 0.9483
3690.173187 0.9473 0.9463 0.9456 0.9451 0.9450
3694.436985 0.9450 0.9446 0.9441 0.9440 0.9440
3698.700782 0.9433 0.9423 0.9416 0.9411 0.9406
3702.964580 0.9401 0.9392 0.9382 0.9376 0.9371
3707.228377 0.9366 0.9361 0.9352 0.9342 0.9336
3711.492175 0.9331 0.9326 0.9321 0.9312 0.9302
3715.755973 0.9296 0.9291 0.9286 0.9281 0.9272
3720.019770 0.9262 0.9256 0.9251 0.9246 0.9241
3724.283568 0.9232 0.9222 0.9216 0.9211 0.9210
3728.547365 0.9210 0.9206 0.9201 0.9192 0.9182
3732.811163 0.9176 0.9171 0.9158 0.9143 0.9136
3737.074961 0.9131 0.9130 0.9130 0.9126 0.9121
3741.338758 0.9112 0.9102 0.9096 0.9091 0.9086
3745.602556 0.9081 0.9068 0.9053 0.9046 0.9041
3749.866354 0.9032 0.9022 0.9012 0.9002 0.9000
3754.130151 0.9000 0.8992 0.8981 0.8976 0.8971
3758.393949 0.8970 0.8970 0.8966 0.8961 0.8951
3762.657746 0.8941 0.8931 0.8921 0.8920 0.8920
3766.921544 0.8911 0.8901 0.8900 0.8900 0.8896
3771.185342 0.8891 0.8890 0.8890 0.8886 0.8881
3775.449139 0.8871 0.8861 0.8856 0.8851 0.8846
3779.712937 0.8841 0.8831 0.8821 0.8816 0.8811
3783.976734 0.8810 0.8810 0.8806 0.8801 0.8791
3788.240532 0.8781 0.8775 0.8770 0.8765 0.8760
3792.504330 0.8760 0.8760 0.8755 0.8750 0.8750
3796.768127 0.8750 0.8741 0.8731 0.8739 0.8749
3801.031925 0.8741 0.8731
##END=
