##TITLE=Propene, 1-chloro- (ABOUT 83% CIS)
$$ ABOUT 83% CIS ISOMER
##JCAMP-DX=4.24
$$ By DXEDIT 1.05 (RS McDonald)
##DATA TYPE=INFRARED SPECTRUM
##CLASS=COBLENTZ III
##ORIGIN=DOW CHEMICAL COMPANY
##OWNER=COPYRIGHT (C) 1988 by COBLENTZ SOCIETY INC.
Collection (C) 2018 copyright by the U.S. Secretary of Commerce
on behalf of the United States of America. All rights reserved.
##DATE=1958/10/27
##NAMES=(1Z)-1-chloro-1-propene
##CAS REGISTRY NO=590-21-6
##MOLFORM=C3 H5 Cl
##SOURCE REFERENCE=COBLENTZ NO. 5693
##$NIST SOURCE=COBLENTZ
##$NIST IMAGE=cob5693
##SPECTROMETER/DATA SYSTEM=DOW KBr FOREPRISM-GRATING
##INSTRUMENT PARAMETERS=BLAZED AT 3.5, 12.0, 20.0 MICRON AND CHANGED AT 5.0, 7.5, 14.9 MICRON
##STATE=SOLUTION (10% CCl4 FOR 2.6-7.5, 10% CS2 FOR 7.5-22 MICRON)
##PATH LENGTH=0.011 CM, 0.011 CM
$$SPECTRAL CONTAMINATION DUE TO CS2 AROUND 850 AND CCl4 AROUND 1550 CM^-^1 HAVE BEEN SUBTRACTED
##SAMPLING PROCEDURE=TRANSMISSION
##RESOLUTION=2
##DATA PROCESSING=DIGITIZED BY COBLENTZ SOCIETY (BATCH I) FROM HARD COPY
##XUNITS=1/CM
##YUNITS=TRANSMITTANCE
##XFACTOR=1
##YFACTOR=1
##DELTAX=1
##FIRSTX=3820
##LASTX=450
##FIRSTY=0.929
##MAXX=3820
##MINX=450
##MAXY=0.9629
##MINY=0.0149
##NPOINTS=3371
##XYDATA=(X++(Y..Y))
3820.000000 0.9290 0.9290 0.9291 0.9291 0.9291
3815.000000 0.9291 0.9284 0.9277 0.9277 0.9287
3810.000000 0.9293 0.9283 0.9278 0.9290 0.9294
3805.000000 0.9294 0.9294 0.9294 0.9281 0.9280
3800.000000 0.9281 0.9281 0.9281 0.9284 0.9294
3795.000000 0.9286 0.9298 0.9298 0.9298 0.9299
3790.000000 0.9300 0.9300 0.9301 0.9302 0.9303
3785.000000 0.9304 0.9296 0.9291 0.9292 0.9303
3780.000000 0.9308 0.9297 0.9308 0.9310 0.9311
3775.000000 0.9297 0.9312 0.9312 0.9313 0.9313
3770.000000 0.9314 0.9314 0.9315 0.9316 0.9317
3765.000000 0.9317 0.9318 0.9318 0.9319 0.9319
3760.000000 0.9328 0.9327 0.9321 0.9321 0.9322
3755.000000 0.9322 0.9324 0.9324 0.9325 0.9325
3750.000000 0.9326 0.9326 0.9327 0.9327 0.9328
3745.000000 0.9328 0.9329 0.9329 0.9329 0.9329
3740.000000 0.9331 0.9335 0.9346 0.9346 0.9346
3735.000000 0.9346 0.9339 0.9332 0.9340 0.9345
3730.000000 0.9345 0.9343 0.9343 0.9343 0.9342
3725.000000 0.9341 0.9341 0.9340 0.9340 0.9339
3720.000000 0.9339 0.9323 0.9324 0.9337 0.9337
3715.000000 0.9335 0.9335 0.9334 0.9339 0.9343
3710.000000 0.9339 0.9347 0.9347 0.9346 0.9346
3705.000000 0.9345 0.9344 0.9343 0.9343 0.9341
3700.000000 0.9341 0.9340 0.9340 0.9339 0.9327
3695.000000 0.9324 0.9323 0.9321 0.9319 0.9318
3690.000000 0.9317 0.9316 0.9315 0.9311 0.9299
3685.000000 0.9297 0.9296 0.9295 0.9294 0.9293
3680.000000 0.9292 0.9290 0.9289 0.9288 0.9286
3675.000000 0.9286 0.9286 0.9285 0.9283 0.9283
3670.000000 0.9295 0.9283 0.9282 0.9280 0.9280
3665.000000 0.9278 0.9278 0.9278 0.9277 0.9275
3660.000000 0.9275 0.9275 0.9275 0.9274 0.9274
3655.000000 0.9273 0.9272 0.9271 0.9271 0.9270
3650.000000 0.9270 0.9269 0.9269 0.9268 0.9267
3645.000000 0.9266 0.9264 0.9263 0.9262 0.9261
3640.000000 0.9260 0.9259 0.9258 0.9257 0.9256
3635.000000 0.9255 0.9254 0.9256 0.9266 0.9265
3630.000000 0.9260 0.9249 0.9253 0.9261 0.9260
3625.000000 0.9259 0.9258 0.9257 0.9256 0.9255
3620.000000 0.9254 0.9252 0.9252 0.9251 0.9250
3615.000000 0.9250 0.9250 0.9249 0.9249 0.9249
3610.000000 0.9249 0.9249 0.9238 0.9253 0.9256
3605.000000 0.9260 0.9263 0.9262 0.9259 0.9271
3600.000000 0.9268 0.9263 0.9273 0.9284 0.9287
3595.000000 0.9292 0.9298 0.9306 0.9314 0.9322
3590.000000 0.9331 0.9338 0.9346 0.9350 0.9355
3585.000000 0.9359 0.9363 0.9366 0.9370 0.9373
3580.000000 0.9378 0.9381 0.9384 0.9386 0.9385
3575.000000 0.9382 0.9395 0.9396 0.9394 0.9386
3570.000000 0.9389 0.9389 0.9391 0.9392 0.9394
3565.000000 0.9395 0.9396 0.9397 0.9398 0.9399
3560.000000 0.9400 0.9401 0.9402 0.9402 0.9404
3555.000000 0.9418 0.9405 0.9408 0.9421 0.9422
3550.000000 0.9420 0.9414 0.9425 0.9425 0.9425
3545.000000 0.9419 0.9416 0.9421 0.9419 0.9416
3540.000000 0.9404 0.9404 0.9396 0.9399 0.9400
3535.000000 0.9396 0.9395 0.9392 0.9392 0.9391
3530.000000 0.9393 0.9380 0.9381 0.9384 0.9385
3525.000000 0.9387 0.9388 0.9391 0.9394 0.9396
3520.000000 0.9399 0.9401 0.9403 0.9405 0.9408
3515.000000 0.9410 0.9413 0.9415 0.9417 0.9420
3510.000000 0.9423 0.9424 0.9426 0.9427 0.9429
3505.000000 0.9430 0.9432 0.9433 0.9435 0.9436
3500.000000 0.9437 0.9439 0.9440 0.9442 0.9444
3495.000000 0.9445 0.9448 0.9449 0.9451 0.9452
3490.000000 0.9454 0.9455 0.9457 0.9459 0.9462
3485.000000 0.9464 0.9466 0.9468 0.9470 0.9472
3480.000000 0.9476 0.9478 0.9480 0.9482 0.9484
3475.000000 0.9485 0.9489 0.9491 0.9492 0.9495
3470.000000 0.9498 0.9500 0.9503 0.9505 0.9507
3465.000000 0.9509 0.9512 0.9515 0.9518 0.9521
3460.000000 0.9524 0.9528 0.9532 0.9534 0.9537
3455.000000 0.9541 0.9544 0.9547 0.9550 0.9554
3450.000000 0.9557 0.9560 0.9563 0.9566 0.9569
3445.000000 0.9572 0.9575 0.9579 0.9582 0.9585
3440.000000 0.9589 0.9589 0.9591 0.9592 0.9593
3435.000000 0.9595 0.9596 0.9596 0.9598 0.9599
3430.000000 0.9601 0.9602 0.9603 0.9604 0.9607
3425.000000 0.9595 0.9607 0.9610 0.9611 0.9612
3420.000000 0.9614 0.9615 0.9616 0.9617 0.9618
3415.000000 0.9619 0.9620 0.9620 0.9620 0.9620
3410.000000 0.9620 0.9620 0.9621 0.9629 0.9628
3405.000000 0.9621 0.9621 0.9621 0.9621 0.9621
3400.000000 0.9622 0.9622 0.9622 0.9620 0.9618
3395.000000 0.9616 0.9613 0.9611 0.9609 0.9607
3390.000000 0.9605 0.9602 0.9600 0.9598 0.9596
3385.000000 0.9590 0.9585 0.9579 0.9572 0.9565
3380.000000 0.9559 0.9553 0.9546 0.9540 0.9533
3375.000000 0.9527 0.9521 0.9516 0.9512 0.9507
3370.000000 0.9517 0.9501 0.9496 0.9491 0.9488
3365.000000 0.9483 0.9483 0.9483 0.9483 0.9483
3360.000000 0.9485 0.9486 0.9487 0.9487 0.9487
3355.000000 0.9487 0.9489 0.9491 0.9490 0.9490
3350.000000 0.9493 0.9494 0.9495 0.9495 0.9496
3345.000000 0.9508 0.9511 0.9499 0.9511 0.9498
3340.000000 0.9498 0.9498 0.9514 0.9513 0.9513
3335.000000 0.9500 0.9501 0.9501 0.9502 0.9502
3330.000000 0.9503 0.9503 0.9503 0.9503 0.9504
3325.000000 0.9504 0.9505 0.9505 0.9506 0.9506
3320.000000 0.9507 0.9507 0.9507 0.9507 0.9507
3315.000000 0.9507 0.9507 0.9506 0.9520 0.9520
3310.000000 0.9520 0.9520 0.9518 0.9509 0.9520
3305.000000 0.9520 0.9516 0.9504 0.9504 0.9503
3300.000000 0.9502 0.9501 0.9500 0.9499 0.9498
3295.000000 0.9496 0.9495 0.9494 0.9493 0.9492
3290.000000 0.9490 0.9489 0.9486 0.9481 0.9477
3285.000000 0.9472 0.9468 0.9478 0.9472 0.9455
3280.000000 0.9455 0.9462 0.9454 0.9437 0.9438
3275.000000 0.9441 0.9438 0.9433 0.9429 0.9427
3270.000000 0.9425 0.9423 0.9420 0.9418 0.9417
3265.000000 0.9415 0.9413 0.9411 0.9409 0.9414
3260.000000 0.9419 0.9427 0.9434 0.9440 0.9434
3255.000000 0.9448 0.9448 0.9448 0.9451 0.9451
3250.000000 0.9452 0.9452 0.9454 0.9454 0.9455
3245.000000 0.9447 0.9449 0.9456 0.9457 0.9457
3240.000000 0.9458 0.9458 0.9459 0.9459 0.9460
3235.000000 0.9460 0.9460 0.9460 0.9459 0.9457
3230.000000 0.9455 0.9454 0.9453 0.9449 0.9436
3225.000000 0.9439 0.9448 0.9448 0.9447 0.9444
3220.000000 0.9444 0.9443 0.9441 0.9441 0.9440
3215.000000 0.9437 0.9436 0.9434 0.9433 0.9432
3210.000000 0.9431 0.9429 0.9415 0.9411 0.9410
3205.000000 0.9408 0.9407 0.9406 0.9405 0.9403
3200.000000 0.9404 0.9412 0.9402 0.9407 0.9400
3195.000000 0.9409 0.9408 0.9406 0.9405 0.9403
3190.000000 0.9394 0.9392 0.9397 0.9395 0.9385
3185.000000 0.9376 0.9375 0.9373 0.9371 0.9369
3180.000000 0.9367 0.9365 0.9363 0.9361 0.9358
3175.000000 0.9356 0.9354 0.9352 0.9350 0.9348
3170.000000 0.9346 0.9343 0.9340 0.9336 0.9333
3165.000000 0.9328 0.9333 0.9337 0.9326 0.9324
3160.000000 0.9327 0.9324 0.9310 0.9312 0.9302
3155.000000 0.9295 0.9343 0.9303 0.9299 0.9293
3150.000000 0.9290 0.9282 0.9263 0.9257 0.9251
3145.000000 0.9245 0.9239 0.9233 0.9226 0.9226
3140.000000 0.9229 0.9223 0.9218 0.9211 0.9205
3135.000000 0.9199 0.9192 0.9185 0.9180 0.9173
3130.000000 0.9166 0.9160 0.9154 0.9146 0.9139
3125.000000 0.9131 0.9123 0.9115 0.9107 0.9099
3120.000000 0.9092 0.9080 0.9069 0.9053 0.9038
3115.000000 0.9023 0.9007 0.8990 0.8973 0.8951
3110.000000 0.8929 0.8907 0.8885 0.8864 0.8841
3105.000000 0.8810 0.8780 0.8697 0.8614 0.8503
3100.000000 0.8405 0.8280 0.8153 0.8039 0.7925
3095.000000 0.7811 0.7685 0.7557 0.7247 0.7237
3090.000000 0.7235 0.7223 0.7214 0.7243 0.7272
3085.000000 0.7367 0.7469 0.7575 0.7684 0.7791
3080.000000 0.7898 0.7993 0.8151 0.8120 0.8137
3075.000000 0.8139 0.8151 0.8094 0.8023 0.7961
3070.000000 0.7901 0.7831 0.7752 0.7772 0.7770
3065.000000 0.7823 0.7876 0.7918 0.7971 0.8024
3060.000000 0.8082 0.8143 0.8197 0.8209 0.8219
3055.000000 0.8232 0.8240 0.8217 0.8203 0.8123
3050.000000 0.8040 0.7952 0.7864 0.7775 0.7696
3045.000000 0.7611 0.7533 0.7454 0.7379 0.7302
3040.000000 0.7224 0.7135 0.7046 0.6956 0.6856
3035.000000 0.6758 0.6666 0.6629 0.6593 0.6684
3030.000000 0.6770 0.6858 0.6956 0.7047 0.7138
3025.000000 0.7217 0.7295 0.7309 0.7324 0.7332
3020.000000 0.7339 0.7356 0.7366 0.7393 0.7411
3015.000000 0.7451 0.7493 0.7536 0.7578 0.7614
3010.000000 0.7651 0.7699 0.7746 0.7756 0.7779
3005.000000 0.7798 0.7807 0.7806 0.7799 0.7800
3000.000000 0.7806 0.7750 0.7690 0.7621 0.7554
2995.000000 0.7499 0.7443 0.7399 0.7352 0.7302
2990.000000 0.7252 0.7181 0.7108 0.7108 0.7109
2985.000000 0.7109 0.7111 0.7111 0.7112 0.7112
2980.000000 0.7115 0.7123 0.7121 0.7110 0.7112
2975.000000 0.7103 0.7095 0.7085 0.7076 0.7063
2970.000000 0.7053 0.7047 0.7040 0.7011 0.6985
2965.000000 0.6944 0.6903 0.6849 0.6795 0.6714
2960.000000 0.6633 0.6562 0.6480 0.6390 0.6310
2955.000000 0.6229 0.6149 0.6075 0.5995 0.5925
2950.000000 0.5855 0.5857 0.5863 0.5890 0.5923
2945.000000 0.5967 0.6018 0.6062 0.6109 0.6150
2940.000000 0.6200 0.6247 0.6292 0.6337 0.6448
2935.000000 0.6384 0.6394 0.6386 0.6379 0.6167
2930.000000 0.5956 0.5703 0.5451 0.5199 0.4947
2925.000000 0.4694 0.4442 0.4358 0.4248 0.4265
2920.000000 0.4263 0.4590 0.4918 0.5433 0.5949
2915.000000 0.6389 0.6828 0.6949 0.7070 0.7168
2910.000000 0.7269 0.7343 0.7428 0.7495 0.7551
2905.000000 0.7608 0.7666 0.7712 0.7759 0.7805
2900.000000 0.7851 0.7896 0.7941 0.7967 0.7995
2895.000000 0.8015 0.8036 0.8048 0.8060 0.8072
2890.000000 0.8072 0.8088 0.8087 0.8086 0.8081
2885.000000 0.8051 0.8019 0.7990 0.7959 0.7945
2880.000000 0.7934 0.7938 0.7945 0.7948 0.7977
2875.000000 0.7993 0.8008 0.8022 0.8036 0.8039
2870.000000 0.8043 0.8035 0.8027 0.8011 0.7996
2865.000000 0.7923 0.7851 0.7628 0.7405 0.7182
2860.000000 0.6958 0.6823 0.6650 0.6686 0.6683
2855.000000 0.6679 0.6667 0.6943 0.7221 0.7546
2850.000000 0.7873 0.8071 0.8268 0.8323 0.8384
2845.000000 0.8430 0.8471 0.8513 0.8568 0.8615
2840.000000 0.8655 0.8689 0.8732 0.8764 0.8788
2835.000000 0.8804 0.8826 0.8838 0.8854 0.8869
2830.000000 0.8883 0.8908 0.8914 0.8935 0.8949
2825.000000 0.8946 0.8957 0.8982 0.8981 0.9004
2820.000000 0.9016 0.9024 0.9024 0.9032 0.9041
2815.000000 0.9048 0.9057 0.9066 0.9074 0.9082
2810.000000 0.9091 0.9097 0.9112 0.9122 0.9128
2805.000000 0.9132 0.9138 0.9142 0.9147 0.9152
2800.000000 0.9157 0.9162 0.9167 0.9171 0.9177
2795.000000 0.9182 0.9187 0.9191 0.9193 0.9188
2790.000000 0.9201 0.9194 0.9200 0.9204 0.9208
2785.000000 0.9217 0.9230 0.9226 0.9239 0.9233
2780.000000 0.9243 0.9247 0.9250 0.9253 0.9256
2775.000000 0.9259 0.9262 0.9264 0.9267 0.9271
2770.000000 0.9274 0.9276 0.9279 0.9279 0.9279
2765.000000 0.9281 0.9282 0.9282 0.9283 0.9283
2760.000000 0.9284 0.9284 0.9284 0.9283 0.9282
2755.000000 0.9281 0.9279 0.9257 0.9234 0.9207
2750.000000 0.9182 0.9158 0.9135 0.9116 0.9097
2745.000000 0.9081 0.9065 0.9055 0.9043 0.9044
2740.000000 0.9020 0.9053 0.9061 0.9074 0.9087
2735.000000 0.9101 0.9113 0.9129 0.9144 0.9159
2730.000000 0.9173 0.9182 0.9191 0.9200 0.9208
2725.000000 0.9215 0.9223 0.9232 0.9240 0.9248
2720.000000 0.9256 0.9263 0.9268 0.9271 0.9275
2715.000000 0.9278 0.9283 0.9287 0.9291 0.9293
2710.000000 0.9295 0.9295 0.9295 0.9295 0.9296
2705.000000 0.9296 0.9296 0.9296 0.9296 0.9296
2700.000000 0.9296 0.9296 0.9297 0.9297 0.9297
2695.000000 0.9298 0.9299 0.9300 0.9301 0.9302
2690.000000 0.9303 0.9304 0.9305 0.9306 0.9307
2685.000000 0.9308 0.9309 0.9310 0.9311 0.9312
2680.000000 0.9315 0.9316 0.9318 0.9319 0.9320
2675.000000 0.9322 0.9323 0.9325 0.9327 0.9329
2670.000000 0.9330 0.9332 0.9334 0.9335 0.9353
2665.000000 0.9338 0.9340 0.9340 0.9341 0.9342
2660.000000 0.9343 0.9343 0.9345 0.9359 0.9360
2655.000000 0.9361 0.9362 0.9363 0.9364 0.9360
2650.000000 0.9352 0.9352 0.9359 0.9365 0.9362
2645.000000 0.9347 0.9336 0.9329 0.9331 0.9317
2640.000000 0.9306 0.9301 0.9298 0.9298 0.9299
2635.000000 0.9299 0.9314 0.9314 0.9314 0.9300
2630.000000 0.9303 0.9316 0.9316 0.9316 0.9317
2625.000000 0.9317 0.9317 0.9317 0.9318 0.9318
2620.000000 0.9319 0.9319 0.9320 0.9320 0.9321
2615.000000 0.9321 0.9322 0.9322 0.9323 0.9323
2610.000000 0.9324 0.9324 0.9325 0.9325 0.9326
2605.000000 0.9326 0.9327 0.9327 0.9328 0.9328
2600.000000 0.9329 0.9329 0.9330 0.9330 0.9331
2595.000000 0.9331 0.9332 0.9332 0.9332 0.9332
2590.000000 0.9333 0.9333 0.9333 0.9333 0.9333
2585.000000 0.9333 0.9335 0.9335 0.9336 0.9336
2580.000000 0.9336 0.9336 0.9336 0.9336 0.9338
2575.000000 0.9338 0.9338 0.9338 0.9339 0.9339
2570.000000 0.9340 0.9340 0.9340 0.9340 0.9340
2565.000000 0.9340 0.9342 0.9342 0.9342 0.9340
2560.000000 0.9340 0.9340 0.9340 0.9340 0.9340
2555.000000 0.9340 0.9340 0.9340 0.9340 0.9339
2550.000000 0.9339 0.9339 0.9339 0.9338 0.9338
2545.000000 0.9338 0.9338 0.9338 0.9338 0.9336
2540.000000 0.9336 0.9336 0.9336 0.9336 0.9335
2535.000000 0.9335 0.9335 0.9334 0.9334 0.9334
2530.000000 0.9334 0.9334 0.9334 0.9332 0.9332
2525.000000 0.9332 0.9332 0.9332 0.9332 0.9332
2520.000000 0.9332 0.9331 0.9331 0.9331 0.9331
2515.000000 0.9330 0.9330 0.9330 0.9330 0.9329
2510.000000 0.9329 0.9329 0.9329 0.9329 0.9329
2505.000000 0.9329 0.9329 0.9329 0.9329 0.9329
2500.000000 0.9329 0.9329 0.9329 0.9329 0.9329
2495.000000 0.9329 0.9329 0.9329 0.9329 0.9329
2490.000000 0.9330 0.9330 0.9330 0.9330 0.9330
2485.000000 0.9330 0.9330 0.9330 0.9329 0.9339
2480.000000 0.9344 0.9344 0.9344 0.9343 0.9343
2475.000000 0.9343 0.9343 0.9342 0.9342 0.9342
2470.000000 0.9342 0.9341 0.9341 0.9341 0.9341
2465.000000 0.9340 0.9340 0.9340 0.9340 0.9340
2460.000000 0.9340 0.9338 0.9332 0.9331 0.9331
2455.000000 0.9323 0.9323 0.9332 0.9337 0.9337
2450.000000 0.9326 0.9334 0.9337 0.9337 0.9337
2445.000000 0.9336 0.9336 0.9336 0.9336 0.9336
2440.000000 0.9336 0.9336 0.9336 0.9336 0.9336
2435.000000 0.9335 0.9335 0.9334 0.9334 0.9334
2430.000000 0.9334 0.9333 0.9333 0.9332 0.9332
2425.000000 0.9332 0.9332 0.9331 0.9331 0.9330
2420.000000 0.9328 0.9327 0.9326 0.9324 0.9323
2415.000000 0.9322 0.9321 0.9319 0.9318 0.9317
2410.000000 0.9316 0.9318 0.9323 0.9315 0.9323
2405.000000 0.9320 0.9317 0.9316 0.9314 0.9314
2400.000000 0.9313 0.9312 0.9312 0.9310 0.9310
2395.000000 0.9309 0.9307 0.9307 0.9307 0.9306
2390.000000 0.9305 0.9318 0.9318 0.9317 0.9317
2385.000000 0.9318 0.9331 0.9329 0.9333 0.9344
2380.000000 0.9344 0.9351 0.9361 0.9368 0.9379
2375.000000 0.9380 0.9388 0.9396 0.9397 0.9400
2370.000000 0.9402 0.9391 0.9390 0.9390 0.9392
2365.000000 0.9393 0.9395 0.9396 0.9399 0.9400
2360.000000 0.9415 0.9418 0.9432 0.9436 0.9453
2355.000000 0.9465 0.9466 0.9469 0.9473 0.9470
2350.000000 0.9465 0.9469 0.9481 0.9499 0.9509
2345.000000 0.9510 0.9503 0.9499 0.9502 0.9502
2340.000000 0.9506 0.9495 0.9508 0.9510 0.9495
2335.000000 0.9494 0.9505 0.9501 0.9497 0.9494
2330.000000 0.9503 0.9497 0.9491 0.9484 0.9484
2325.000000 0.9476 0.9476 0.9464 0.9453 0.9443
2320.000000 0.9432 0.9421 0.9410 0.9401 0.9391
2315.000000 0.9382 0.9375 0.9367 0.9360 0.9354
2310.000000 0.9350 0.9349 0.9348 0.9348 0.9348
2305.000000 0.9348 0.9349 0.9349 0.9350 0.9350
2300.000000 0.9351 0.9357 0.9368 0.9368 0.9369
2295.000000 0.9369 0.9370 0.9371 0.9372 0.9372
2290.000000 0.9373 0.9373 0.9363 0.9359 0.9359
2285.000000 0.9359 0.9359 0.9346 0.9345 0.9349
2280.000000 0.9354 0.9362 0.9358 0.9359 0.9358
2275.000000 0.9348 0.9350 0.9353 0.9350 0.9341
2270.000000 0.9343 0.9339 0.9333 0.9334 0.9336
2265.000000 0.9330 0.9326 0.9327 0.9329 0.9320
2260.000000 0.9318 0.9319 0.9309 0.9308 0.9310
2255.000000 0.9312 0.9299 0.9301 0.9303 0.9302
2250.000000 0.9292 0.9292 0.9295 0.9298 0.9301
2245.000000 0.9300 0.9294 0.9297 0.9301 0.9304
2240.000000 0.9309 0.9312 0.9316 0.9319 0.9324
2235.000000 0.9319 0.9318 0.9322 0.9328 0.9332
2230.000000 0.9337 0.9340 0.9345 0.9349 0.9353
2225.000000 0.9356 0.9359 0.9360 0.9362 0.9350
2220.000000 0.9350 0.9350 0.9352 0.9352 0.9353
2215.000000 0.9353 0.9353 0.9353 0.9355 0.9355
2210.000000 0.9356 0.9358 0.9361 0.9364 0.9368
2205.000000 0.9370 0.9373 0.9376 0.9379 0.9381
2200.000000 0.9384 0.9386 0.9390 0.9390 0.9389
2195.000000 0.9379 0.9393 0.9390 0.9380 0.9380
2190.000000 0.9382 0.9383 0.9383 0.9385 0.9386
2185.000000 0.9387 0.9396 0.9395 0.9391 0.9391
2180.000000 0.9391 0.9390 0.9402 0.9405 0.9405
2175.000000 0.9405 0.9405 0.9405 0.9407 0.9407
2170.000000 0.9407 0.9405 0.9392 0.9392 0.9393
2165.000000 0.9394 0.9396 0.9396 0.9397 0.9398
2160.000000 0.9399 0.9400 0.9401 0.9401 0.9402
2155.000000 0.9403 0.9404 0.9405 0.9406 0.9406
2150.000000 0.9407 0.9407 0.9408 0.9408 0.9409
2145.000000 0.9409 0.9410 0.9410 0.9411 0.9411
2140.000000 0.9412 0.9412 0.9413 0.9413 0.9414
2135.000000 0.9414 0.9415 0.9415 0.9416 0.9416
2130.000000 0.9417 0.9417 0.9418 0.9418 0.9419
2125.000000 0.9419 0.9420 0.9420 0.9409 0.9419
2120.000000 0.9421 0.9421 0.9421 0.9421 0.9421
2115.000000 0.9421 0.9421 0.9420 0.9420 0.9420
2110.000000 0.9420 0.9420 0.9420 0.9420 0.9420
2105.000000 0.9420 0.9420 0.9420 0.9420 0.9419
2100.000000 0.9419 0.9419 0.9408 0.9404 0.9416
2095.000000 0.9418 0.9405 0.9416 0.9418 0.9417
2090.000000 0.9417 0.9417 0.9417 0.9415 0.9415
2085.000000 0.9415 0.9415 0.9414 0.9414 0.9414
2080.000000 0.9414 0.9413 0.9413 0.9412 0.9412
2075.000000 0.9411 0.9410 0.9409 0.9409 0.9408
2070.000000 0.9407 0.9406 0.9405 0.9404 0.9404
2065.000000 0.9403 0.9401 0.9400 0.9400 0.9399
2060.000000 0.9398 0.9397 0.9397 0.9400 0.9410
2055.000000 0.9409 0.9409 0.9408 0.9400 0.9398
2050.000000 0.9403 0.9396 0.9388 0.9385 0.9385
2045.000000 0.9385 0.9384 0.9383 0.9381 0.9381
2040.000000 0.9381 0.9380 0.9378 0.9378 0.9378
2035.000000 0.9377 0.9376 0.9375 0.9374 0.9374
2030.000000 0.9374 0.9373 0.9377 0.9381 0.9372
2025.000000 0.9378 0.9386 0.9385 0.9385 0.9383
2020.000000 0.9382 0.9380 0.9379 0.9378 0.9377
2015.000000 0.9374 0.9373 0.9371 0.9370 0.9367
2010.000000 0.9365 0.9362 0.9359 0.9355 0.9352
2005.000000 0.9347 0.9345 0.9339 0.9334 0.9313
2000.000000 0.9293 0.9086 0.8801 0.8806 0.8810
1995.000000 0.8887 0.8966 0.9046 0.9125 0.9205
1990.000000 0.9272 0.9275 0.9277 0.9280 0.9267
1985.000000 0.9267 0.9268 0.9270 0.9271 0.9271
1980.000000 0.9271 0.9270 0.9257 0.9254 0.9250
1975.000000 0.9249 0.9246 0.9243 0.9243 0.9242
1970.000000 0.9241 0.9240 0.9236 0.9231 0.9237
1965.000000 0.9229 0.9222 0.9230 0.9231 0.9228
1960.000000 0.9225 0.9221 0.9215 0.9208 0.9205
1955.000000 0.9201 0.9182 0.9178 0.9175 0.9170
1950.000000 0.9164 0.9148 0.9141 0.9134 0.9129
1945.000000 0.9122 0.9114 0.9112 0.9111 0.9108
1940.000000 0.9109 0.9109 0.9119 0.9130 0.9141
1935.000000 0.9153 0.9165 0.9178 0.9188 0.9196
1930.000000 0.9203 0.9210 0.9217 0.9222 0.9226
1925.000000 0.9231 0.9235 0.9242 0.9246 0.9251
1920.000000 0.9254 0.9255 0.9256 0.9257 0.9258
1915.000000 0.9259 0.9260 0.9261 0.9262 0.9262
1910.000000 0.9263 0.9263 0.9264 0.9275 0.9280
1905.000000 0.9280 0.9280 0.9281 0.9281 0.9282
1900.000000 0.9282 0.9282 0.9281 0.9280 0.9280
1895.000000 0.9279 0.9278 0.9278 0.9276 0.9266
1890.000000 0.9252 0.9246 0.9241 0.9235 0.9231
1885.000000 0.9225 0.9229 0.9229 0.9224 0.9219
1880.000000 0.9214 0.9209 0.9206 0.9203 0.9200
1875.000000 0.9210 0.9207 0.9204 0.9202 0.9198
1870.000000 0.9195 0.9194 0.9194 0.9194 0.9194
1865.000000 0.9193 0.9193 0.9193 0.9193 0.9192
1860.000000 0.9192 0.9191 0.9190 0.9198 0.9194
1855.000000 0.9189 0.9189 0.9190 0.9192 0.9194
1850.000000 0.9196 0.9198 0.9200 0.9202 0.9203
1845.000000 0.9206 0.9210 0.9211 0.9214 0.9217
1840.000000 0.9219 0.9220 0.9221 0.9222 0.9218
1835.000000 0.9210 0.9212 0.9213 0.9214 0.9215
1830.000000 0.9216 0.9217 0.9217 0.9217 0.9204
1825.000000 0.9192 0.9180 0.9168 0.9151 0.9136
1820.000000 0.9134 0.9145 0.9142 0.9141 0.9146
1815.000000 0.9150 0.9157 0.9161 0.9167 0.9172
1810.000000 0.9177 0.9175 0.9170 0.9174 0.9178
1805.000000 0.9181 0.9176 0.9173 0.9174 0.9177
1800.000000 0.9180 0.9181 0.9181 0.9181 0.9181
1795.000000 0.9180 0.9180 0.9179 0.9177 0.9176
1790.000000 0.9174 0.9172 0.9168 0.9163 0.9159
1785.000000 0.9155 0.9151 0.9143 0.9135 0.9125
1780.000000 0.9117 0.9124 0.9134 0.9144 0.9148
1775.000000 0.9153 0.9165 0.9175 0.9186 0.9195
1770.000000 0.9194 0.9194 0.9177 0.9165 0.9161
1765.000000 0.9159 0.9157 0.9154 0.9152 0.9152
1760.000000 0.9151 0.9154 0.9164 0.9163 0.9163
1755.000000 0.9162 0.9168 0.9177 0.9187 0.9196
1750.000000 0.9206 0.9214 0.9224 0.9229 0.9228
1745.000000 0.9226 0.9224 0.9216 0.9205 0.9195
1740.000000 0.9186 0.9179 0.9174 0.9168 0.9161
1735.000000 0.9160 0.9157 0.9151 0.9143 0.9136
1730.000000 0.9130 0.9125 0.9119 0.9110 0.9101
1725.000000 0.9092 0.9082 0.9073 0.9064 0.9055
1720.000000 0.9046 0.9037 0.9033 0.9032 0.9033
1715.000000 0.9038 0.9046 0.9053 0.9059 0.9065
1710.000000 0.9070 0.9077 0.9083 0.9088 0.9094
1705.000000 0.9101 0.9106 0.9112 0.9116 0.9121
1700.000000 0.9127 0.9127 0.9126 0.9124 0.9123
1695.000000 0.9112 0.9090 0.9067 0.9046 0.9029
1690.000000 0.9012 0.8995 0.8965 0.8933 0.8903
1685.000000 0.8871 0.8840 0.8810 0.8780 0.8758
1680.000000 0.8736 0.8717 0.8712 0.8707 0.8707
1675.000000 0.8708 0.8722 0.8741 0.8768 0.8786
1670.000000 0.8803 0.8817 0.8822 0.8826 0.8827
1665.000000 0.8827 0.8827 0.8815 0.8765 0.8716
1660.000000 0.8684 0.8630 0.8590 0.8580 0.8566
1655.000000 0.8573 0.8572 0.8571 0.8538 0.8339
1650.000000 0.7714 0.7687 0.7658 0.7579 0.7315
1645.000000 0.7179 0.7035 0.6561 0.4917 0.4039
1640.000000 0.3156 0.2534 0.2513 0.2513 0.2516
1635.000000 0.2538 0.2621 0.2746 0.2838 0.2942
1630.000000 0.3198 0.3608 0.4014 0.4427 0.4832
1625.000000 0.5235 0.5655 0.6071 0.6498 0.7017
1620.000000 0.7139 0.7359 0.7501 0.7598 0.7698
1615.000000 0.7777 0.7841 0.7887 0.7935 0.7976
1610.000000 0.8000 0.8024 0.8041 0.8031 0.8024
1605.000000 0.7971 0.7872 0.7706 0.7557 0.7387
1600.000000 0.7317 0.7243 0.7225 0.7199 0.7167
1595.000000 0.7150 0.7134 0.7126 0.7157 0.7239
1590.000000 0.7290 0.7370 0.7438 0.7498 0.7585
1585.000000 0.7685 0.7791 0.7890 0.7949 0.8011
1580.000000 0.8054 0.8099 0.8120 0.8155 0.8170
1575.000000 0.8197 0.8284 0.8258 0.8276 0.8313
1570.000000 0.8314 0.8260 0.8157 0.8077 0.8015
1565.000000 0.7985 0.7967 0.7968 0.7993 0.8062
1560.000000 0.8167 0.8276 0.8378 0.8318 0.8137
1555.000000 0.8030 0.7958 0.7915 0.7932 0.7953
1550.000000 0.7934 0.7947 0.7922 0.7918 0.7922
1545.000000 0.7912 0.7999 0.8219 0.8358 0.8413
1540.000000 0.8448 0.8459 0.8469 0.8431 0.8436
1535.000000 0.8469 0.8470 0.8471 0.8482 0.8489
1530.000000 0.8458 0.8428 0.8400 0.8374 0.8359
1525.000000 0.8348 0.8350 0.8341 0.8348 0.8348
1520.000000 0.8360 0.8373 0.8370 0.8386 0.8400
1515.000000 0.8407 0.8421 0.8428 0.8431 0.8420
1510.000000 0.8408 0.8370 0.8321 0.8274 0.8226
1505.000000 0.8256 0.8337 0.8345 0.8342 0.8348
1500.000000 0.8359 0.8351 0.8329 0.8317 0.8306
1495.000000 0.8309 0.8299 0.8308 0.8320 0.8332
1490.000000 0.8342 0.8350 0.8355 0.8363 0.8381
1485.000000 0.8397 0.8417 0.8446 0.8485 0.8494
1480.000000 0.8481 0.8444 0.8403 0.8377 0.8321
1475.000000 0.8297 0.8268 0.8275 0.8277 0.8276
1470.000000 0.8255 0.8189 0.8124 0.8059 0.8028
1465.000000 0.8036 0.8034 0.7991 0.7927 0.7854
1460.000000 0.7773 0.7716 0.7667 0.7647 0.7631
1455.000000 0.7612 0.7504 0.7363 0.7148 0.6933
1450.000000 0.6711 0.6493 0.6279 0.6057 0.5840
1445.000000 0.5625 0.5490 0.5466 0.5440 0.5457
1440.000000 0.5495 0.5556 0.5637 0.5717 0.5800
1435.000000 0.5882 0.5964 0.6176 0.6322 0.6426
1430.000000 0.6505 0.6580 0.6640 0.6685 0.6738
1425.000000 0.6790 0.6841 0.6911 0.6995 0.7081
1420.000000 0.7169 0.7260 0.7352 0.7466 0.7559
1415.000000 0.7643 0.7725 0.7796 0.7866 0.7926
1410.000000 0.7987 0.8044 0.8089 0.8136 0.8169
1405.000000 0.8200 0.8224 0.8243 0.8260 0.8280
1400.000000 0.8310 0.8368 0.8338 0.8343 0.8332
1395.000000 0.8321 0.8304 0.8273 0.8242 0.8193
1390.000000 0.8148 0.8106 0.8046 0.8008 0.7900
1385.000000 0.7635 0.7296 0.7008 0.6725 0.6444
1380.000000 0.6172 0.5979 0.6021 0.6351 0.6678
1375.000000 0.7000 0.7350 0.7516 0.7617 0.7704
1370.000000 0.7786 0.7869 0.7948 0.8026 0.8103
1365.000000 0.8153 0.8203 0.8250 0.8295 0.8341
1360.000000 0.8366 0.8385 0.8398 0.8398 0.8385
1355.000000 0.8385 0.8382 0.8375 0.8370 0.8366
1350.000000 0.8360 0.8343 0.8323 0.8300 0.8275
1345.000000 0.8237 0.8197 0.8150 0.8086 0.8028
1340.000000 0.7950 0.7876 0.7806 0.7672 0.7516
1335.000000 0.7343 0.7185 0.6694 0.5456 0.5041
1330.000000 0.4626 0.4207 0.3640 0.2963 0.2284
1325.000000 0.1605 0.0928 0.0665 0.0657 0.0641
1320.000000 0.1896 0.2838 0.3595 0.3864 0.4076
1315.000000 0.4238 0.4380 0.4500 0.4588 0.4668
1310.000000 0.4761 0.4867 0.4947 0.4980 0.5053
1305.000000 0.5148 0.5286 0.5630 0.5926 0.6222
1300.000000 0.6519 0.6815 0.7102 0.7202 0.7313
1295.000000 0.7424 0.7497 0.7532 0.7546 0.7543
1290.000000 0.7543 0.7612 0.7762 0.7913 0.7990
1285.000000 0.8052 0.8109 0.8146 0.8180 0.8216
1280.000000 0.8249 0.8272 0.8296 0.8318 0.8352
1275.000000 0.8367 0.8381 0.8394 0.8408 0.8420
1270.000000 0.8434 0.8443 0.8454 0.8469 0.8489
1265.000000 0.8497 0.8511 0.8526 0.8536 0.8548
1260.000000 0.8558 0.8562 0.8566 0.8570 0.8573
1255.000000 0.8589 0.8574 0.8543 0.8505 0.8466
1250.000000 0.8400 0.8333 0.8256 0.8166 0.7985
1245.000000 0.7803 0.7611 0.7432 0.7250 0.7071
1240.000000 0.6990 0.6986 0.7045 0.7345 0.7638
1235.000000 0.7885 0.8001 0.8087 0.8162 0.8198
1230.000000 0.8234 0.8265 0.8290 0.8314 0.8329
1225.000000 0.8345 0.8354 0.8353 0.8366 0.8347
1220.000000 0.8317 0.8278 0.8239 0.8196 0.8173
1215.000000 0.8155 0.8132 0.8148 0.8164 0.8169
1210.000000 0.8176 0.8225 0.8276 0.8319 0.8360
1205.000000 0.8402 0.8442 0.8477 0.8510 0.8543
1200.000000 0.8577 0.8610 0.8628 0.8656 0.8679
1195.000000 0.8694 0.8711 0.8736 0.8745 0.8755
1190.000000 0.8763 0.8773 0.8773 0.8772 0.8785
1185.000000 0.8779 0.8771 0.8746 0.8704 0.8668
1180.000000 0.8627 0.8573 0.8521 0.8366 0.8243
1175.000000 0.8119 0.7997 0.7874 0.7751 0.7681
1170.000000 0.7688 0.7688 0.7797 0.8023 0.8235
1165.000000 0.8367 0.8445 0.8517 0.8583 0.8649
1160.000000 0.8673 0.8690 0.8698 0.8706 0.8712
1155.000000 0.8715 0.8719 0.8722 0.8726 0.8722
1150.000000 0.8729 0.8738 0.8737 0.8743 0.8752
1145.000000 0.8760 0.8770 0.8767 0.8786 0.8791
1140.000000 0.8796 0.8816 0.8835 0.8852 0.8859
1135.000000 0.8876 0.8877 0.8869 0.8873 0.8876
1130.000000 0.8868 0.8861 0.8853 0.8833 0.8816
1125.000000 0.8763 0.8709 0.8669 0.8652 0.8651
1120.000000 0.8647 0.8642 0.8640 0.8640 0.8658
1115.000000 0.8664 0.8662 0.8677 0.8698 0.8720
1110.000000 0.8743 0.8761 0.8774 0.8800 0.8803
1105.000000 0.8816 0.8825 0.8830 0.8830 0.8826
1100.000000 0.8822 0.8811 0.8802 0.8795 0.8788
1095.000000 0.8780 0.8774 0.8767 0.8759 0.8752
1090.000000 0.8743 0.8736 0.8736 0.8736 0.8739
1085.000000 0.8743 0.8746 0.8749 0.8750 0.8741
1080.000000 0.8742 0.8740 0.8730 0.8717 0.8672
1075.000000 0.8628 0.8588 0.8563 0.8538 0.8506
1070.000000 0.8476 0.8444 0.8422 0.8415 0.8408
1065.000000 0.8427 0.8446 0.8467 0.8499 0.8520
1060.000000 0.8538 0.8542 0.8574 0.8591 0.8596
1055.000000 0.8609 0.8620 0.8631 0.8640 0.8655
1050.000000 0.8674 0.8682 0.8687 0.8693 0.8703
1045.000000 0.8702 0.8698 0.8692 0.8688 0.8683
1040.000000 0.8679 0.8668 0.8652 0.8636 0.8620
1035.000000 0.8598 0.8575 0.8552 0.8530 0.8514
1030.000000 0.8487 0.8474 0.8444 0.8469 0.8469
1025.000000 0.8469 0.8484 0.8501 0.8516 0.8532
1020.000000 0.8548 0.8560 0.8571 0.8581 0.8590
1015.000000 0.8601 0.8611 0.8621 0.8626 0.8631
1010.000000 0.8636 0.8642 0.8635 0.8638 0.8641
1005.000000 0.8643 0.8633 0.8636 0.8638 0.8641
1000.000000 0.8644 0.8645 0.8641 0.8631 0.8632
995.000000 0.8632 0.8632 0.8630 0.8633 0.8638
990.000000 0.8635 0.8618 0.8618 0.8620 0.8610
985.000000 0.8601 0.8591 0.8580 0.8562 0.8546
980.000000 0.8529 0.8513 0.8495 0.8472 0.8449
975.000000 0.8425 0.8397 0.8359 0.8315 0.8289
970.000000 0.8232 0.8174 0.8115 0.8018 0.7908
965.000000 0.7787 0.7556 0.7051 0.6972 0.6896
960.000000 0.6821 0.6748 0.6678 0.6608 0.6542
955.000000 0.6490 0.6439 0.6389 0.6331 0.6270
950.000000 0.6217 0.6163 0.6082 0.5984 0.5902
945.000000 0.5813 0.5451 0.5089 0.4726 0.4364
940.000000 0.4002 0.3639 0.3277 0.2915 0.2552
935.000000 0.2275 0.2201 0.2152 0.2153 0.2198
930.000000 0.2346 0.2547 0.2625 0.2679 0.2758
925.000000 0.2905 0.3176 0.3429 0.3871 0.4240
920.000000 0.4495 0.4752 0.5013 0.5263 0.5526
915.000000 0.6075 0.6293 0.6468 0.6601 0.6737
910.000000 0.6965 0.7111 0.7233 0.7333 0.7424
905.000000 0.7580 0.7712 0.7794 0.7861 0.7905
900.000000 0.7954 0.7986 0.8017 0.8052 0.8086
895.000000 0.8121 0.8158 0.8183 0.8217 0.8252
890.000000 0.8277 0.8325 0.8368 0.8403 0.8422
885.000000 0.8415 0.8412 0.8383 0.8317 0.8220
880.000000 0.7892 0.7829 0.7753 0.7651 0.7509
875.000000 0.7324 0.7287 0.7299 0.7310 0.7442
870.000000 0.7562 0.7692 0.7867 0.7966 0.8055
865.000000 0.8134 0.8208 0.8248 0.8277 0.8309
860.000000 0.8348 0.8378 0.8401 0.8416 0.8424
855.000000 0.8426 0.8414 0.8415 0.8432 0.8432
850.000000 0.8429 0.8415 0.8406 0.8405 0.8424
845.000000 0.8456 0.8471 0.8494 0.8516 0.8522
840.000000 0.8525 0.8538 0.8538 0.8560 0.8572
835.000000 0.8591 0.8614 0.8631 0.8645 0.8652
830.000000 0.8651 0.8650 0.8643 0.8644 0.8643
825.000000 0.8637 0.8637 0.8637 0.8629 0.8611
820.000000 0.8601 0.8579 0.8547 0.8515 0.8489
815.000000 0.8452 0.8415 0.8370 0.8329 0.8286
810.000000 0.8233 0.8185 0.8122 0.8054 0.7999
805.000000 0.7827 0.7480 0.7089 0.6653 0.6217
800.000000 0.5781 0.5346 0.4910 0.4474 0.4023
795.000000 0.4030 0.4029 0.4075 0.4199 0.4616
790.000000 0.5380 0.6147 0.6644 0.7053 0.7218
785.000000 0.7324 0.7408 0.7447 0.7486 0.7526
780.000000 0.7548 0.7558 0.7566 0.7566 0.7571
775.000000 0.7577 0.7550 0.7523 0.7488 0.7419
770.000000 0.7345 0.7244 0.7149 0.7040 0.6914
765.000000 0.6780 0.6631 0.6414 0.6177 0.5766
760.000000 0.5418 0.5088 0.4766 0.3798 0.3091
755.000000 0.2383 0.1676 0.0969 0.0333 0.0296
750.000000 0.0312 0.0308 0.0335 0.0436 0.0542
745.000000 0.0643 0.1333 0.2009 0.2685 0.3361
740.000000 0.4037 0.4713 0.5644 0.5841 0.6264
735.000000 0.6675 0.6825 0.6902 0.6974 0.7046
730.000000 0.7122 0.7185 0.7247 0.7315 0.7392
725.000000 0.7459 0.7512 0.7562 0.7607 0.7632
720.000000 0.7649 0.7653 0.7648 0.7654 0.7635
715.000000 0.7602 0.7576 0.7545 0.7468 0.7383
710.000000 0.7308 0.7234 0.7162 0.7088 0.6995
705.000000 0.6889 0.6785 0.6677 0.6540 0.6404
700.000000 0.6274 0.5986 0.5066 0.4509 0.3949
695.000000 0.3390 0.2833 0.2271 0.1710 0.1149
690.000000 0.0588 0.0279 0.0221 0.0180 0.0160
685.000000 0.0150 0.0150 0.0149 0.0184 0.0358
680.000000 0.1021 0.1511 0.1918 0.2322 0.2733
675.000000 0.3139 0.3538 0.3946 0.4623 0.5087
670.000000 0.5355 0.5593 0.5795 0.5861 0.5951
665.000000 0.6140 0.6415 0.6686 0.6967 0.7159
660.000000 0.7319 0.7441 0.7558 0.7722 0.7848
655.000000 0.7926 0.7972 0.8017 0.8051 0.8095
650.000000 0.8132 0.8171 0.8211 0.8250 0.8279
645.000000 0.8320 0.8356 0.8379 0.8408 0.8431
640.000000 0.8451 0.8477 0.8485 0.8479 0.8460
635.000000 0.8438 0.8391 0.8333 0.8274 0.8207
630.000000 0.8105 0.8137 0.8121 0.8152 0.8208
625.000000 0.8275 0.8328 0.8361 0.8409 0.8457
620.000000 0.8501 0.8546 0.8600 0.8638 0.8681
615.000000 0.8738 0.8780 0.8805 0.8838 0.8871
610.000000 0.8904 0.8937 0.8968 0.8989 0.9015
605.000000 0.9046 0.9068 0.9085 0.9102 0.9119
600.000000 0.9136 0.9153 0.9167 0.9182 0.9196
595.000000 0.9212 0.9219 0.9223 0.9226 0.9230
590.000000 0.9232 0.9236 0.9236 0.9231 0.9218
585.000000 0.9182 0.9123 0.9107 0.9108 0.9117
580.000000 0.9136 0.9186 0.9213 0.9215 0.9228
575.000000 0.9228 0.9241 0.9243 0.9242 0.9242
570.000000 0.9233 0.9220 0.9205 0.9178 0.9148
565.000000 0.9122 0.9070 0.8937 0.8694 0.8450
560.000000 0.8206 0.7962 0.7857 0.7811 0.7829
555.000000 0.7816 0.8085 0.8566 0.8728 0.8827
550.000000 0.8874 0.8918 0.8960 0.8992 0.9023
545.000000 0.9052 0.9081 0.9110 0.9132 0.9147
540.000000 0.9161 0.9178 0.9205 0.9220 0.9242
535.000000 0.9247 0.9252 0.9271 0.9282 0.9292
530.000000 0.9296 0.9294 0.9292 0.9290 0.9297
525.000000 0.9303 0.9303 0.9303 0.9304 0.9305
520.000000 0.9312 0.9318 0.9324 0.9331 0.9337
515.000000 0.9344 0.9350 0.9356 0.9364 0.9358
510.000000 0.9360 0.9361 0.9362 0.9362 0.9363
505.000000 0.9364 0.9365 0.9365 0.9363 0.9361
500.000000 0.9357 0.9355 0.9353 0.9351 0.9349
495.000000 0.9347 0.9341 0.9335 0.9328 0.9322
490.000000 0.9315 0.9307 0.9301 0.9294 0.9287
485.000000 0.9280 0.9273 0.9267 0.9263 0.9259
480.000000 0.9255 0.9250 0.9245 0.9241 0.9236
475.000000 0.9233 0.9228 0.9224 0.9219 0.9215
470.000000 0.9211 0.9207 0.9202 0.9197 0.9193
465.000000 0.9183 0.9172 0.9163 0.9152 0.9142
460.000000 0.9131 0.9123 0.9116 0.9107 0.9099
455.000000 0.9091 0.9083 0.9076 0.9069 0.9063
450.000000 0.9061
##END=
