##TITLE=ETHYLDIMETHYLSILANOL
##JCAMP-DX=4.24
##DATA TYPE=INFRARED SPECTRUM
##CLASS=COBLENTZ III
##ORIGIN=DOW CORNING CORP.
##OWNER=COBLENTZ SOCIETY
Collection (C) 2018 copyright by the U.S. Secretary of Commerce
on behalf of the United States of America. All rights reserved.
##DATE=1964/10/09
##NAMES=ethyl(dimethyl)silanol
##CAS REGISTRY NO=5906-73-0
##MOLFORM=C4 H12 O Si
##SOURCE REFERENCE=COBLENTZ NO. 5534
##$NIST SOURCE=COBLENTZ
##$NIST IMAGE=cob5534
##SPECTROMETER/DATA SYSTEM=PERKIN-ELMER 521 (GRATING)
##INSTRUMENT PARAMETERS=FILTERS AT 3150, 2500, 2000, 1150, 700, 410. GRATING CHANGES: 2000, 630 CM^-^1
##STATE=SOLUTION (5% IN CCl4 FOR 3800-1300, 3% IN CS2 FOR 1300-635, AND 5% IN CCl4 FOR 635-250 CM^-^1)
$$ 90% PURE BY GLC
$$SPECTRAL CONTAMINATION DUE TO H2O AROUND 1620 CM^-^1
##PATH LENGTH=0.011 CM, 0.011 CM, AND 0.021 CM
##SAMPLING PROCEDURE=TRANSMISSION
##RESOLUTION=2
##DATA PROCESSING=DIGITIZED BY NIST FROM HARD COPY (FROM TWO SEGMENTS)
##XUNITS=1/CM
##YUNITS=TRANSMITTANCE
##XFACTOR=1.000000
##YFACTOR=1
##DELTAX=0.936770
##FIRSTX=252.927
##LASTX=3787.36
##FIRSTY=0.713
##MAXX=3787.36
##MINX=252.927
##MAXY=0.925
##MINY=0.118
##NPOINTS=3774
##XYDATA=(X++(Y..Y))
252.927000 0.7130 0.7100 0.7050 0.7130 0.7100
257.610848 0.7050 0.7030 0.7030 0.7030 0.7030
262.294696 0.7030 0.7060 0.7030 0.7020 0.7000
266.978544 0.6950 0.6930 0.6890 0.6870 0.6850
271.662393 0.6750 0.6660 0.6520 0.6480 0.6460
276.346241 0.6440 0.6430 0.6410 0.6301 0.6280
281.030089 0.6220 0.6170 0.6100 0.6010 0.5970
285.713937 0.5900 0.5850 0.5850 0.5820 0.5800
290.397785 0.5790 0.5790 0.5750 0.5740 0.5740
295.081633 0.5740 0.5750 0.5860 0.5930 0.5990
299.765481 0.6070 0.6090 0.6220 0.6280 0.6350
304.449329 0.6599 0.6660 0.6700 0.6710 0.6730
309.133178 0.6730 0.6770 0.6780 0.6800 0.6810
313.817026 0.6820 0.6840 0.6850 0.6860 0.6870
318.500874 0.6880 0.6890 0.6910 0.6910 0.6930
323.184722 0.6940 0.6960 0.6980 0.7000 0.7000
327.868570 0.7060 0.7090 0.7120 0.7150 0.7140
332.552418 0.7130 0.7080 0.7030 0.6990 0.6990
337.236266 0.7000 0.7010 0.7010 0.7020 0.7030
341.920115 0.7050 0.7060 0.7070 0.7080 0.7070
346.603963 0.7060 0.7060 0.7050 0.7030 0.7020
351.287811 0.7000 0.6980 0.6930 0.6890 0.6820
355.971659 0.6780 0.6710 0.6660 0.6460 0.6410
360.655507 0.6320 0.6171 0.5971 0.5741 0.5541
365.339355 0.5460 0.5440 0.5430 0.5450 0.5460
370.023203 0.5659 0.5730 0.5939 0.6179 0.6339
374.707051 0.6450 0.6640 0.6780 0.6890 0.7020
379.390900 0.7130 0.7220 0.7300 0.7370 0.7420
384.074748 0.7440 0.7510 0.7570 0.7640 0.7730
388.758596 0.7770 0.7800 0.7820 0.7830 0.7890
393.442444 0.7930 0.7930 0.7930 0.7930 0.7930
398.126292 0.7940 0.7940 0.7940 0.7960 0.7960
402.810140 0.7970 0.7960 0.7960 0.7960 0.7960
407.493988 0.7960 0.7960 0.7970 0.7970 0.7960
412.177837 0.7960 0.7910 0.7910 0.7910 0.7920
416.861685 0.8000 0.8010 0.8010 0.8040 0.8040
421.545533 0.8070 0.8070 0.8100 0.8100 0.8050
426.229381 0.8040 0.8040 0.8040 0.8040 0.8040
430.913229 0.8040 0.8060 0.8070 0.8080 0.8110
435.597077 0.8110 0.8120 0.8120 0.8130 0.8130
440.280925 0.8140 0.8140 0.8140 0.8150 0.8150
444.964773 0.8150 0.8170 0.8170 0.8180 0.8200
449.648622 0.8210 0.8210 0.8210 0.8210 0.8210
454.332470 0.8210 0.8190 0.8150 0.8140 0.8130
459.016318 0.8130 0.8130 0.8130 0.8130 0.8130
463.700166 0.8140 0.8170 0.8170 0.8170 0.8180
468.384014 0.8190 0.8200 0.8200 0.8210 0.8220
473.067862 0.8240 0.8240 0.8250 0.8250 0.8250
477.751710 0.8250 0.8250 0.8250 0.8250 0.8240
482.435559 0.8240 0.8220 0.8220 0.8210 0.8210
487.119407 0.8200 0.8200 0.8190 0.8190 0.8180
491.803255 0.8180 0.8170 0.8150 0.8130 0.8130
496.487103 0.8120 0.8120 0.8110 0.8100 0.8100
501.170951 0.8080 0.8070 0.8070 0.8060 0.8050
505.854799 0.8050 0.8030 0.8040 0.8050 0.8060
510.538647 0.8070 0.8070 0.8070 0.8060 0.8040
515.222495 0.8040 0.8030 0.8010 0.8000 0.7980
519.906344 0.7990 0.7990 0.7990 0.8000 0.8000
524.590192 0.8000 0.8000 0.7990 0.7990 0.7980
529.274040 0.7980 0.7970 0.7970 0.7960 0.7960
533.957888 0.7960 0.7960 0.7960 0.7970 0.7970
538.641736 0.7970 0.7970 0.7970 0.7960 0.7940
543.325584 0.7930 0.7920 0.7910 0.7900 0.7890
548.009432 0.7860 0.7860 0.7860 0.7860 0.7860
552.693281 0.7860 0.7860 0.7850 0.7850 0.7840
557.377129 0.7830 0.7830 0.7820 0.7790 0.7790
562.060977 0.7780 0.7780 0.7770 0.7770 0.7760
566.744825 0.7750 0.7730 0.7730 0.7720 0.7710
571.428673 0.7710 0.7700 0.7690 0.7690 0.7680
576.112521 0.7660 0.7660 0.7650 0.7640 0.7640
580.796369 0.7630 0.7620 0.7590 0.7570 0.7560
585.480217 0.7550 0.7520 0.7510 0.7480 0.7470
590.164066 0.7440 0.7440 0.7400 0.7360 0.7300
594.847914 0.7240 0.7190 0.7090 0.7050 0.6980
599.531762 0.6880 0.6800 0.6710 0.6580 0.6410
604.215610 0.6380 0.6380 0.6669 0.6740 0.6879
608.899458 0.6960 0.7120 0.7150 0.7160 0.7200
613.583306 0.7230 0.7270 0.7280 0.7290 0.7290
618.267154 0.7290 0.7290 0.7290 0.7290 0.7290
622.951002 0.7290 0.7290 0.7290 0.7290 0.7290
627.634851 0.7290 0.7290 0.7290 0.7290 0.7290
632.318699 0.7300 0.7449 0.7609 0.7958 0.8308
637.002547 0.8650 0.8650 0.8650 0.8650 0.8650
641.686395 0.8650 0.8650 0.8650 0.8650 0.8650
646.370243 0.8650 0.8650 0.8650 0.8650 0.8650
651.054091 0.8650 0.8650 0.8650 0.8650 0.8650
655.737939 0.8650 0.8650 0.8650 0.8650 0.8650
660.421788 0.8640 0.8640 0.8620 0.8600 0.8570
665.105636 0.8570 0.8570 0.8540 0.8490 0.8470
669.789484 0.8470 0.8440 0.8410 0.8340 0.8270
674.473332 0.8190 0.8100 0.8050 0.7930 0.7910
679.157180 0.7790 0.7720 0.7451 0.7301 0.7121
683.841028 0.7000 0.6880 0.6740 0.6640 0.6580
688.524876 0.6460 0.6440 0.6350 0.6320 0.6280
693.208724 0.6250 0.6220 0.6210 0.6210 0.6220
697.892573 0.6220 0.6230 0.6270 0.6300 0.6370
702.576421 0.6740 0.6940 0.7050 0.7080 0.7130
707.260269 0.7200 0.7300 0.7360 0.7430 0.7480
711.944117 0.7520 0.7580 0.7640 0.7650 0.7650
716.627965 0.7650 0.7650 0.7660 0.7660 0.7660
721.311813 0.7650 0.7640 0.7610 0.7580 0.7550
725.995661 0.7470 0.7420 0.7380 0.7370 0.7340
730.679510 0.7300 0.7220 0.7150 0.7100 0.7090
735.363358 0.7070 0.7050 0.7030 0.6980 0.6940
740.047206 0.6890 0.6870 0.6840 0.6800 0.6780
744.731054 0.6740 0.6720 0.6640 0.6590 0.6580
749.414902 0.6490 0.6410 0.6350 0.6280 0.6170
754.098750 0.6140 0.6080 0.5970 0.5860 0.5751
758.782598 0.5720 0.5600 0.5440 0.5250 0.5130
763.466446 0.4890 0.4720 0.4660 0.4540 0.4440
768.150295 0.4330 0.4210 0.3990 0.3780 0.3690
772.834143 0.3610 0.3460 0.3261 0.3190 0.3150
777.517991 0.3080 0.3010 0.2920 0.2840 0.2760
782.201839 0.2730 0.2730 0.2760 0.2820 0.2830
786.885687 0.2990 0.3030 0.3120 0.3260 0.3440
791.569535 0.3540 0.3700 0.3899 0.3980 0.4109
796.253383 0.4230 0.4240 0.4350 0.4420 0.4530
800.937232 0.4530 0.4530 0.4530 0.4530 0.4530
805.621080 0.4480 0.4470 0.4440 0.4420 0.4390
810.304928 0.4370 0.4270 0.4160 0.4130 0.4100
814.988776 0.4040 0.4030 0.3950 0.3830 0.3780
819.672624 0.3710 0.3640 0.3510 0.3361 0.3211
824.356472 0.3070 0.2910 0.2480 0.2270 0.2200
829.040320 0.2100 0.2000 0.1910 0.1800 0.1710
833.724168 0.1600 0.1590 0.1580 0.1580 0.1580
838.408017 0.1580 0.1580 0.1580 0.1600 0.1630
843.091865 0.1660 0.1710 0.1740 0.1750 0.1770
847.775713 0.1780 0.1790 0.1800 0.1800 0.1810
852.459561 0.1820 0.1850 0.1860 0.1880 0.1880
857.143409 0.1890 0.1910 0.1950 0.1960 0.2000
861.827257 0.2070 0.2130 0.2200 0.2270 0.2290
866.511105 0.2340 0.2440 0.2470 0.2560 0.2640
871.194954 0.2770 0.3030 0.3200 0.3370 0.3460
875.878802 0.3540 0.3620 0.3790 0.3880 0.4019
880.562650 0.4130 0.4250 0.4440 0.4550 0.4610
885.246498 0.4660 0.4760 0.4870 0.4940 0.5000
889.930346 0.5040 0.5230 0.5400 0.5600 0.5750
894.614194 0.5989 0.6179 0.6280 0.6409 0.6460
899.298042 0.6560 0.6790 0.6950 0.7080 0.7260
903.981890 0.7310 0.7410 0.7450 0.7500 0.7590
908.665739 0.7630 0.7720 0.7780 0.7890 0.7910
913.349587 0.7920 0.8010 0.8100 0.8100 0.8110
918.033435 0.8120 0.8140 0.8170 0.8190 0.8200
922.717283 0.8210 0.8240 0.8250 0.8250 0.8260
927.401131 0.8260 0.8260 0.8270 0.8270 0.8270
932.084979 0.8260 0.8250 0.8240 0.8220 0.8200
936.768827 0.8200 0.8190 0.8170 0.8140 0.8130
941.452676 0.8080 0.8040 0.7990 0.7960 0.7910
946.136524 0.7890 0.7820 0.7750 0.7700 0.7331
950.820372 0.7130 0.7070 0.6721 0.6511 0.6251
955.504220 0.5990 0.5820 0.5780 0.5760 0.5780
960.188068 0.5880 0.6149 0.6309 0.6449 0.6569
964.871916 0.6730 0.7060 0.7240 0.7330 0.7430
969.555764 0.7480 0.7520 0.7610 0.7650 0.7750
974.239612 0.7860 0.7900 0.7940 0.8080 0.8100
978.923461 0.8130 0.8150 0.8170 0.8180 0.8180
983.607309 0.8180 0.8180 0.8180 0.8180 0.8180
988.291157 0.8170 0.8150 0.8140 0.8130 0.8110
992.975005 0.8080 0.8040 0.7990 0.7930 0.7910
997.658853 0.7840 0.7800 0.7720 0.7630 0.7411
1002.342701 0.7270 0.7090 0.6920 0.6730 0.6570
1007.026549 0.6430 0.6240 0.6031 0.5821 0.5710
1011.710398 0.5660 0.5640 0.5650 0.5670 0.5850
1016.394246 0.6269 0.6769 0.7089 0.7369 0.7470
1021.078094 0.7560 0.7640 0.7720 0.7820 0.7850
1025.761942 0.7860 0.7890 0.7890 0.7890 0.7890
1030.445790 0.7870 0.7860 0.7860 0.7850 0.7840
1035.129638 0.7840 0.7830 0.7820 0.7820 0.7800
1039.813486 0.7790 0.7790 0.7780 0.7770 0.7760
1044.497334 0.7750 0.7730 0.7720 0.7710 0.7690
1049.181183 0.7680 0.7660 0.7650 0.7650 0.7640
1053.865031 0.7640 0.7640 0.7640 0.7630 0.7640
1058.548879 0.7640 0.7650 0.7660 0.7680 0.7680
1063.232727 0.7680 0.7690 0.7690 0.7700 0.7720
1067.916575 0.7730 0.7750 0.7760 0.7770 0.7780
1072.600423 0.7790 0.7800 0.7820 0.7830 0.7850
1077.284271 0.7860 0.7870 0.7890 0.7900 0.7910
1081.968120 0.7920 0.7930 0.7960 0.7980 0.7990
1086.651968 0.8010 0.8030 0.8050 0.8060 0.8080
1091.335816 0.8110 0.8120 0.8140 0.8150 0.8180
1096.019664 0.8190 0.8210 0.8250 0.8260 0.8270
1100.703512 0.8280 0.8290 0.8310 0.8320 0.8340
1105.387360 0.8350 0.8360 0.8370 0.8390 0.8400
1110.071208 0.8420 0.8430 0.8430 0.8440 0.8480
1114.755056 0.8480 0.8480 0.8490 0.8490 0.8500
1119.438905 0.8500 0.8510 0.8530 0.8530 0.8540
1124.122753 0.8550 0.8550 0.8560 0.8570 0.8580
1128.806601 0.8580 0.8600 0.8610 0.8610 0.8620
1133.490449 0.8630 0.8640 0.8640 0.8650 0.8670
1138.174297 0.8670 0.8680 0.8690 0.8700 0.8700
1142.858145 0.8710 0.8720 0.8720 0.8750 0.8770
1147.541993 0.8780 0.8790 0.8810 0.8810 0.8820
1152.225842 0.8830 0.8830 0.8840 0.8840 0.8850
1156.909690 0.8860 0.8860 0.8880 0.8890 0.8890
1161.593538 0.8900 0.8900 0.8900 0.8900 0.8910
1166.277386 0.8910 0.8910 0.8910 0.8910 0.8910
1170.961234 0.8910 0.8910 0.8920 0.8920 0.8920
1175.645082 0.8920 0.8920 0.8920 0.8920 0.8920
1180.328930 0.8920 0.8920 0.8920 0.8920 0.8920
1185.012778 0.8920 0.8920 0.8920 0.8920 0.8920
1189.696627 0.8920 0.8920 0.8920 0.8920 0.8920
1194.380475 0.8920 0.8920 0.8920 0.8920 0.8920
1199.064323 0.8920 0.8920 0.8920 0.8910 0.8910
1203.748171 0.8900 0.8900 0.8890 0.8860 0.8860
1208.432019 0.8860 0.8830 0.8780 0.8760 0.8740
1213.115867 0.8720 0.8710 0.8680 0.8670 0.8630
1217.799715 0.8600 0.8560 0.8560 0.8480 0.8390
1222.483563 0.8320 0.8280 0.8180 0.8120 0.8100
1227.167412 0.7940 0.7920 0.7840 0.7440 0.7100
1231.851260 0.6890 0.6780 0.6780 0.6770 0.6770
1236.535108 0.6770 0.6770 0.6750 0.6640 0.6530
1241.218956 0.6420 0.6210 0.5971 0.5521 0.5291
1245.902804 0.5060 0.4809 0.2451 0.2430 0.2450
1250.586652 0.2560 0.2650 0.2849 0.3049 0.3249
1255.270500 0.3421 0.4301 0.4770 0.5020 0.5260
1259.954349 0.5879 0.6519 0.6530 0.7069 0.7289
1264.638197 0.7510 0.7830 0.7840 0.7860 0.7890
1269.322045 0.7910 0.7920 0.8000 0.8000 0.8000
1274.005893 0.8000 0.8000 0.8000 0.8000 0.8000
1278.689741 0.8000 0.8000 0.8000 0.8000 0.8000
1283.373589 0.8000 0.8000 0.8000 0.8000 0.8000
1288.057437 0.8000 0.8000 0.8000 0.8000 0.8000
1292.741285 0.8000 0.8000 0.8000 0.8000 0.8000
1297.425134 0.8000 0.8000 0.8000 0.8000 0.8000
1302.108982 0.8000 0.8000 0.8000 0.8000 0.8000
1306.792830 0.8000 0.8000 0.8000 0.8000 0.8000
1311.476678 0.8000 0.8000 0.8000 0.8000 0.8000
1316.160526 0.8000 0.8000 0.8000 0.8000 0.8000
1320.844374 0.8000 0.8000 0.8000 0.8000 0.8000
1325.528222 0.8000 0.8000 0.8000 0.8000 0.8000
1330.212071 0.8000 0.8000 0.8000 0.8000 0.8000
1334.895919 0.8000 0.8000 0.8000 0.8000 0.8000
1339.579767 0.8000 0.8000 0.8000 0.8000 0.8000
1344.263615 0.8000 0.8000 0.8000 0.8000 0.8000
1348.947463 0.7990 0.7980 0.7980 0.7970 0.7960
1353.631311 0.7960 0.7940 0.7930 0.7920 0.7910
1358.315159 0.7910 0.7890 0.7860 0.7850 0.7830
1362.999007 0.7820 0.7800 0.7770 0.7750 0.7730
1367.682856 0.7730 0.7720 0.7690 0.7640 0.7590
1372.366704 0.7370 0.7310 0.7270 0.7240 0.7240
1377.050552 0.7260 0.7290 0.7310 0.7360 0.7380
1381.734400 0.7380 0.7380 0.7340 0.7330 0.7300
1386.418248 0.7270 0.7230 0.7210 0.7160 0.7070
1391.102096 0.6950 0.6930 0.6860 0.6780 0.6770
1395.785944 0.6730 0.6720 0.6650 0.6550 0.6440
1400.469793 0.6230 0.6150 0.6110 0.6090 0.6060
1405.153641 0.6030 0.6010 0.5970 0.5950 0.5940
1409.837489 0.5940 0.6000 0.6060 0.6090 0.6090
1414.521337 0.6170 0.6250 0.6340 0.6430 0.6510
1419.205185 0.6600 0.6650 0.6740 0.6790 0.6850
1423.889033 0.6860 0.6870 0.6890 0.6920 0.6950
1428.572881 0.6960 0.6980 0.6980 0.6990 0.7010
1433.256729 0.7020 0.7030 0.7060 0.7060 0.7060
1437.940578 0.7060 0.7060 0.7060 0.7060 0.7050
1442.624426 0.7030 0.7020 0.7010 0.6990 0.6990
1447.308274 0.6910 0.6870 0.6780 0.6660 0.6510
1451.992122 0.6270 0.6010 0.5880 0.5800 0.5780
1456.675970 0.5800 0.5810 0.5890 0.6059 0.6299
1461.359818 0.6310 0.6430 0.6500 0.6580 0.6630
1466.043666 0.6800 0.6930 0.7000 0.7200 0.7399
1470.727515 0.7440 0.7480 0.7540 0.7580 0.7720
1475.411363 0.7750 0.7760 0.7800 0.7820 0.7850
1480.095211 0.7930 0.7980 0.8030 0.8060 0.8070
1484.779059 0.8100 0.8100 0.8120 0.8130 0.8140
1489.462907 0.8190 0.8240 0.8250 0.8260 0.8270
1494.146755 0.8270 0.8290 0.8320 0.8330 0.8350
1498.830603 0.8360 0.8390 0.8390 0.8430 0.8460
1503.514451 0.8470 0.8480 0.8490 0.8490 0.8490
1508.198300 0.8490 0.8500 0.8510 0.8510 0.8530
1512.882148 0.8530 0.8540 0.8540 0.8550 0.8550
1517.565996 0.8560 0.8560 0.8570 0.8570 0.8570
1522.249844 0.8580 0.8580 0.8580 0.8600 0.8610
1526.933692 0.8620 0.8630 0.8640 0.8650 0.8670
1531.617540 0.8690 0.8690 0.8690 0.8700 0.8700
1536.301388 0.8700 0.8710 0.8710 0.8710 0.8720
1540.985237 0.8720 0.8720 0.8740 0.8740 0.8750
1545.669085 0.8760 0.8770 0.8770 0.8770 0.8770
1550.352933 0.8770 0.8770 0.8770 0.8770 0.8760
1555.036781 0.8760 0.8750 0.8750 0.8740 0.8720
1559.720629 0.8720 0.8720 0.8720 0.8720 0.8720
1564.404477 0.8720 0.8720 0.8720 0.8720 0.8720
1569.088325 0.8720 0.8720 0.8720 0.8720 0.8720
1573.772173 0.8710 0.8700 0.8690 0.8690 0.8690
1578.456022 0.8680 0.8680 0.8680 0.8670 0.8670
1583.139870 0.8670 0.8650 0.8650 0.8650 0.8630
1587.823718 0.8620 0.8610 0.8600 0.8580 0.8570
1592.507566 0.8560 0.8550 0.8550 0.8530 0.8490
1597.191414 0.8480 0.8470 0.8460 0.8430 0.8410
1601.875262 0.8400 0.8390 0.8370 0.8360 0.8350
1606.559110 0.8340 0.8320 0.8320 0.8310 0.8310
1611.242959 0.8290 0.8290 0.8280 0.8280 0.8270
1615.926807 0.8270 0.8260 0.8250 0.8250 0.8250
1620.610655 0.8250 0.8250 0.8250 0.8240 0.8240
1625.294503 0.8240 0.8240 0.8250 0.8250 0.8260
1629.978351 0.8260 0.8270 0.8280 0.8280 0.8290
1634.662199 0.8290 0.8310 0.8310 0.8330 0.8340
1639.346047 0.8350 0.8360 0.8370 0.8390 0.8400
1644.029895 0.8410 0.8420 0.8430 0.8440 0.8460
1648.713744 0.8460 0.8470 0.8470 0.8480 0.8480
1653.397592 0.8490 0.8500 0.8500 0.8510 0.8510
1658.081440 0.8530 0.8530 0.8540 0.8550 0.8560
1662.765288 0.8560 0.8570 0.8570 0.8580 0.8600
1667.449136 0.8600 0.8610 0.8610 0.8620 0.8630
1672.132984 0.8630 0.8640 0.8640 0.8650 0.8670
1676.816832 0.8670 0.8680 0.8680 0.8690 0.8690
1681.500681 0.8700 0.8710 0.8710 0.8710 0.8710
1686.184529 0.8720 0.8720 0.8720 0.8740 0.8740
1690.868377 0.8740 0.8750 0.8750 0.8750 0.8760
1695.552225 0.8760 0.8760 0.8760 0.8770 0.8770
1700.236073 0.8770 0.8770 0.8780 0.8780 0.8780
1704.919921 0.8780 0.8780 0.8780 0.8780 0.8780
1709.603769 0.8780 0.8790 0.8790 0.8790 0.8790
1714.287617 0.8790 0.8790 0.8790 0.8810 0.8810
1718.971466 0.8810 0.8810 0.8810 0.8810 0.8810
1723.655314 0.8820 0.8820 0.8830 0.8830 0.8840
1728.339162 0.8840 0.8850 0.8850 0.8850 0.8850
1733.023010 0.8850 0.8850 0.8850 0.8850 0.8850
1737.706858 0.8850 0.8850 0.8850 0.8860 0.8860
1742.390706 0.8860 0.8860 0.8860 0.8860 0.8880
1747.074554 0.8880 0.8880 0.8880 0.8880 0.8880
1751.758403 0.8880 0.8890 0.8890 0.8890 0.8890
1756.442251 0.8890 0.8900 0.8900 0.8900 0.8900
1761.126099 0.8900 0.8900 0.8900 0.8900 0.8900
1765.809947 0.8900 0.8900 0.8900 0.8900 0.8900
1770.493795 0.8900 0.8900 0.8900 0.8900 0.8900
1775.177643 0.8900 0.8900 0.8900 0.8900 0.8900
1779.861491 0.8900 0.8900 0.8900 0.8900 0.8900
1784.545339 0.8900 0.8900 0.8900 0.8900 0.8900
1789.229188 0.8900 0.8900 0.8900 0.8910 0.8910
1793.913036 0.8910 0.8910 0.8910 0.8920 0.8920
1798.596884 0.8920 0.8920 0.8920 0.8920 0.8920
1803.280732 0.8920 0.8920 0.8920 0.8920 0.8920
1807.964580 0.8920 0.8910 0.8910 0.8910 0.8910
1812.648428 0.8910 0.8910 0.8910 0.8910 0.8900
1817.332276 0.8900 0.8900 0.8900 0.8890 0.8890
1822.016124 0.8890 0.8890 0.8880 0.8880 0.8880
1826.699973 0.8860 0.8860 0.8860 0.8860 0.8860
1831.383821 0.8860 0.8860 0.8860 0.8850 0.8860
1836.067669 0.8860 0.8860 0.8860 0.8860 0.8880
1840.751517 0.8880 0.8880 0.8880 0.8880 0.8880
1845.435365 0.8890 0.8890 0.8890 0.8900 0.8900
1850.119213 0.8900 0.8900 0.8910 0.8910 0.8910
1854.803061 0.8910 0.8920 0.8920 0.8920 0.8920
1859.486910 0.8920 0.8920 0.8920 0.8920 0.8920
1864.170758 0.8920 0.8920 0.8920 0.8920 0.8920
1868.854606 0.8920 0.8920 0.8920 0.8920 0.8920
1873.538454 0.8920 0.8920 0.8920 0.8920 0.8920
1878.222302 0.8920 0.8920 0.8920 0.8920 0.8920
1882.906150 0.8920 0.8920 0.8920 0.8920 0.8920
1887.589998 0.8920 0.8930 0.8930 0.8930 0.8950
1892.273846 0.8950 0.8950 0.8950 0.8950 0.8950
1896.957695 0.8950 0.8950 0.8950 0.8950 0.8950
1901.641543 0.8950 0.8950 0.8950 0.8930 0.8930
1906.325391 0.8930 0.8920 0.8920 0.8920 0.8910
1911.009239 0.8910 0.8910 0.8910 0.8900 0.8900
1915.693087 0.8900 0.8900 0.8890 0.8890 0.8890
1920.376935 0.8890 0.8880 0.8860 0.8860 0.8850
1925.060783 0.8850 0.8840 0.8840 0.8830 0.8830
1929.744632 0.8820 0.8820 0.8810 0.8810 0.8810
1934.428480 0.8810 0.8810 0.8810 0.8810 0.8820
1939.112328 0.8830 0.8840 0.8850 0.8860 0.8880
1943.796176 0.8880 0.8880 0.8890 0.8880 0.8880
1948.480024 0.8880 0.8890 0.8900 0.8900 0.8900
1953.163872 0.8910 0.8910 0.8910 0.8910 0.8910
1957.847720 0.8920 0.8920 0.8920 0.8920 0.8920
1962.531568 0.8920 0.8920 0.8920 0.8920 0.8920
1967.215417 0.8920 0.8920 0.8920 0.8920 0.8920
1971.899265 0.8920 0.8920 0.8920 0.8920 0.8920
1976.583113 0.8920 0.8920 0.8920 0.8920 0.8920
1981.266961 0.8920 0.8920 0.8920 0.8920 0.8920
1985.950809 0.8920 0.8920 0.8910 0.8900 0.8900
1990.634657 0.8890 0.8890 0.8880 0.8880 0.8750
1995.318505 0.8610 0.8610 0.8640 0.8750 0.8830
2000.002354 0.8910 0.8935 0.8960 0.8965 0.8970
2004.686202 0.8980 0.8990 0.8990 0.8990 0.8990
2009.370050 0.8990 0.8990 0.8990 0.8990 0.8990
2014.053898 0.8990 0.8990 0.8990 0.8989 0.8984
2018.737746 0.8980 0.8980 0.8980 0.8980 0.8981
2023.421594 0.8986 0.8990 0.8990 0.8990 0.8990
2028.105442 0.8990 0.8990 0.8990 0.8990 0.8990
2032.789290 0.8990 0.8990 0.8990 0.8990 0.8990
2037.473139 0.8990 0.8990 0.8990 0.8990 0.8988
2042.156987 0.8983 0.8980 0.8980 0.8980 0.8980
2046.840835 0.8980 0.8980 0.8980 0.8980 0.8980
2051.524683 0.8980 0.8980 0.8980 0.8980 0.8980
2056.208531 0.8980 0.8980 0.8980 0.8980 0.8980
2060.892379 0.8980 0.8980 0.8980 0.8980 0.8980
2065.576227 0.8980 0.8980 0.8982 0.8988 0.8990
2070.260076 0.8990 0.8990 0.8990 0.8990 0.8990
2074.943924 0.8990 0.8990 0.8990 0.8990 0.8990
2079.627772 0.8990 0.8990 0.8990 0.8990 0.8990
2084.311620 0.8990 0.8990 0.8987 0.8982 0.8980
2088.995468 0.8980 0.8980 0.8980 0.8980 0.8980
2093.679316 0.8980 0.8980 0.8980 0.8980 0.8980
2098.363164 0.8980 0.8980 0.8980 0.8980 0.8980
2103.047012 0.8980 0.8980 0.8980 0.8980 0.8984
2107.730861 0.8989 0.8990 0.8990 0.8994 0.8999
2112.414709 0.9000 0.9000 0.9000 0.9000 0.9000
2117.098557 0.9000 0.9000 0.9000 0.9000 0.9000
2121.782405 0.9000 0.9000 0.9000 0.9000 0.9000
2126.466253 0.9000 0.9000 0.9000 0.9000 0.9000
2131.150101 0.9000 0.9000 0.8990 0.8980 0.8985
2135.833949 0.8990 0.8990 0.8990 0.8995 0.9000
2140.517798 0.9000 0.9001 0.9011 0.9020 0.9020
2145.201646 0.9020 0.9020 0.9020 0.9026 0.9030
2149.885494 0.9030 0.9030 0.9030 0.9030 0.9030
2154.569342 0.9030 0.9030 0.9030 0.9030 0.9030
2159.253190 0.9030 0.9030 0.9030 0.9030 0.9030
2163.937038 0.9030 0.9030 0.9030 0.9030 0.9030
2168.620886 0.9030 0.9030 0.9030 0.9030 0.9030
2173.304734 0.9031 0.9037 0.9040 0.9040 0.9040
2177.988583 0.9040 0.9040 0.9040 0.9040 0.9040
2182.672431 0.9040 0.9040 0.9042 0.9047 0.9050
2187.356279 0.9050 0.9050 0.9050 0.9050 0.9050
2192.040127 0.9050 0.9050 0.9050 0.9050 0.9052
2196.723975 0.9057 0.9060 0.9060 0.9060 0.9060
2201.407823 0.9060 0.9060 0.9060 0.9060 0.9060
2206.091671 0.9060 0.9060 0.9060 0.9060 0.9060
2210.775520 0.9060 0.9060 0.9063 0.9068 0.9070
2215.459368 0.9070 0.9070 0.9070 0.9070 0.9070
2220.143216 0.9070 0.9070 0.9070 0.9070 0.9070
2224.827064 0.9070 0.9070 0.9070 0.9070 0.9070
2229.510912 0.9077 0.9087 0.9094 0.9099 0.9100
2234.194760 0.9100 0.9100 0.9100 0.9100 0.9100
2238.878608 0.9100 0.9100 0.9100 0.9100 0.9100
2243.562456 0.9100 0.9100 0.9100 0.9100 0.9100
2248.246305 0.9100 0.9100 0.9100 0.9100 0.9100
2252.930153 0.9100 0.9100 0.9100 0.9100 0.9100
2257.614001 0.9100 0.9100 0.9105 0.9110 0.9110
2262.297849 0.9110 0.9110 0.9110 0.9110 0.9110
2266.981697 0.9110 0.9110 0.9110 0.9110 0.9115
2271.665545 0.9120 0.9120 0.9120 0.9120 0.9120
2276.349393 0.9120 0.9120 0.9120 0.9120 0.9120
2281.033242 0.9120 0.9120 0.9121 0.9126 0.9130
2285.717090 0.9130 0.9130 0.9130 0.9130 0.9130
2290.400938 0.9130 0.9130 0.9130 0.9130 0.9131
2295.084786 0.9136 0.9143 0.9158 0.9170 0.9170
2299.768634 0.9172 0.9183 0.9193 0.9203 0.9213
2304.452482 0.9223 0.9231 0.9236 0.9240 0.9240
2309.136330 0.9240 0.9240 0.9242 0.9247 0.9250
2313.820178 0.9250 0.9250 0.9250 0.9250 0.9250
2318.504027 0.9250 0.9250 0.9250 0.9250 0.9250
2323.187875 0.9250 0.9250 0.9250 0.9250 0.9250
2327.871723 0.9250 0.9250 0.9250 0.9250 0.9248
2332.555571 0.9243 0.9240 0.9240 0.9240 0.9240
2337.239419 0.9240 0.9240 0.9237 0.9232 0.9224
2341.923267 0.9214 0.9210 0.9210 0.9210 0.9210
2346.607115 0.9210 0.9210 0.9207 0.9202 0.9197
2351.290964 0.9192 0.9190 0.9190 0.9187 0.9182
2355.974812 0.9180 0.9180 0.9180 0.9180 0.9177
2360.658660 0.9172 0.9170 0.9170 0.9166 0.9161
2365.342508 0.9160 0.9160 0.9160 0.9160 0.9152
2370.026356 0.9142 0.9140 0.9140 0.9136 0.9131
2374.710204 0.9130 0.9130 0.9126 0.9121 0.9120
2379.394052 0.9120 0.9120 0.9120 0.9120 0.9120
2384.077900 0.9120 0.9120 0.9120 0.9120 0.9120
2388.761749 0.9120 0.9120 0.9120 0.9120 0.9120
2393.445597 0.9120 0.9120 0.9120 0.9120 0.9125
2398.129445 0.9130 0.9130 0.9130 0.9130 0.9130
2402.813293 0.9130 0.9130 0.9130 0.9130 0.9130
2407.497141 0.9130 0.9130 0.9130 0.9130 0.9130
2412.180989 0.9130 0.9130 0.9130 0.9130 0.9130
2416.864837 0.9130 0.9130 0.9130 0.9130 0.9130
2421.548685 0.9130 0.9130 0.9130 0.9130 0.9130
2426.232534 0.9131 0.9136 0.9140 0.9140 0.9140
2430.916382 0.9140 0.9140 0.9140 0.9140 0.9140
2435.600230 0.9140 0.9140 0.9140 0.9140 0.9140
2440.284078 0.9140 0.9140 0.9140 0.9140 0.9140
2444.967926 0.9140 0.9140 0.9140 0.9140 0.9140
2449.651774 0.9140 0.9140 0.9140 0.9140 0.9140
2454.335622 0.9140 0.9140 0.9144 0.9154 0.9160
2459.019471 0.9160 0.9160 0.9160 0.9160 0.9160
2463.703319 0.9160 0.9160 0.9160 0.9160 0.9160
2468.387167 0.9160 0.9160 0.9160 0.9160 0.9160
2473.071015 0.9160 0.9160 0.9160 0.9160 0.9160
2477.754863 0.9160 0.9160 0.9160 0.9160 0.9160
2482.438711 0.9160 0.9160 0.9160 0.9160 0.9160
2487.122559 0.9160 0.9160 0.9160 0.9160 0.9160
2491.806407 0.9160 0.9160 0.9160 0.9160 0.9160
2496.490256 0.9160 0.9160 0.9160 0.9160 0.9160
2501.174104 0.9164 0.9169 0.9170 0.9170 0.9170
2505.857952 0.9170 0.9170 0.9170 0.9170 0.9170
2510.541800 0.9170 0.9170 0.9170 0.9170 0.9170
2515.225648 0.9170 0.9170 0.9170 0.9174 0.9179
2519.909496 0.9180 0.9180 0.9180 0.9180 0.9180
2524.593344 0.9180 0.9180 0.9180 0.9180 0.9180
2529.277193 0.9180 0.9180 0.9180 0.9180 0.9180
2533.961041 0.9180 0.9180 0.9180 0.9180 0.9180
2538.644889 0.9180 0.9180 0.9180 0.9180 0.9180
2543.328737 0.9180 0.9180 0.9180 0.9180 0.9180
2548.012585 0.9180 0.9180 0.9180 0.9180 0.9180
2552.696433 0.9180 0.9180 0.9180 0.9180 0.9180
2557.380281 0.9180 0.9180 0.9180 0.9180 0.9180
2562.064129 0.9180 0.9180 0.9180 0.9180 0.9180
2566.747978 0.9180 0.9180 0.9180 0.9180 0.9180
2571.431826 0.9180 0.9180 0.9180 0.9180 0.9180
2576.115674 0.9180 0.9180 0.9180 0.9180 0.9180
2580.799522 0.9180 0.9180 0.9180 0.9180 0.9180
2585.483370 0.9180 0.9180 0.9180 0.9180 0.9180
2590.167218 0.9178 0.9173 0.9170 0.9170 0.9170
2594.851066 0.9170 0.9170 0.9170 0.9168 0.9163
2599.534915 0.9160 0.9160 0.9160 0.9160 0.9160
2604.218763 0.9160 0.9160 0.9160 0.9155 0.9145
2608.902611 0.9140 0.9140 0.9140 0.9140 0.9140
2613.586459 0.9140 0.9140 0.9140 0.9137 0.9132
2618.270307 0.9130 0.9130 0.9130 0.9130 0.9130
2622.954155 0.9130 0.9127 0.9122 0.9120 0.9120
2627.638003 0.9120 0.9120 0.9120 0.9120 0.9120
2632.321851 0.9120 0.9116 0.9111 0.9110 0.9110
2637.005700 0.9110 0.9110 0.9110 0.9110 0.9110
2641.689548 0.9110 0.9106 0.9101 0.9100 0.9100
2646.373396 0.9100 0.9100 0.9100 0.9100 0.9100
2651.057244 0.9100 0.9100 0.9100 0.9100 0.9100
2655.741092 0.9100 0.9100 0.9100 0.9100 0.9100
2660.424940 0.9100 0.9100 0.9100 0.9100 0.9100
2665.108788 0.9100 0.9100 0.9100 0.9100 0.9100
2669.792637 0.9100 0.9100 0.9100 0.9100 0.9100
2674.476485 0.9100 0.9100 0.9100 0.9100 0.9100
2679.160333 0.9100 0.9100 0.9100 0.9100 0.9100
2683.844181 0.9100 0.9100 0.9100 0.9100 0.9100
2688.528029 0.9100 0.9100 0.9100 0.9100 0.9100
2693.211877 0.9100 0.9100 0.9100 0.9100 0.9100
2697.895725 0.9099 0.9094 0.9090 0.9090 0.9090
2702.579573 0.9090 0.9087 0.9077 0.9070 0.9070
2707.263422 0.9070 0.9070 0.9068 0.9063 0.9058
2711.947270 0.9053 0.9047 0.9037 0.9025 0.9010
2716.631118 0.8985 0.8945 0.8918 0.8913 0.8910
2721.314966 0.8910 0.8910 0.8910 0.8910 0.8910
2725.998814 0.8910 0.8910 0.8910 0.8910 0.8912
2730.682662 0.8917 0.8920 0.8920 0.8922 0.8928
2735.366510 0.8935 0.8945 0.8953 0.8958 0.8960
2740.050359 0.8960 0.8960 0.8960 0.8957 0.8952
2744.734207 0.8950 0.8950 0.8950 0.8950 0.8944
2749.418055 0.8934 0.8930 0.8930 0.8930 0.8930
2754.101903 0.8930 0.8930 0.8927 0.8922 0.8917
2758.785751 0.8912 0.8907 0.8902 0.8900 0.8900
2763.469599 0.8896 0.8891 0.8890 0.8890 0.8886
2768.153447 0.8881 0.8853 0.8818 0.8791 0.8765
2772.837295 0.8752 0.8742 0.8724 0.8704 0.8619
2777.521144 0.8518 0.8455 0.8399 0.8382 0.8371
2782.204992 0.8357 0.8342 0.8314 0.8283 0.8271
2786.888840 0.8261 0.8260 0.8260 0.8255 0.8250
2791.572688 0.8250 0.8250 0.8250 0.8250 0.8250
2796.256536 0.8250 0.8250 0.8250 0.8260 0.8270
2800.940384 0.8275 0.8280 0.8275 0.8270 0.8270
2805.624232 0.8270 0.8270 0.8270 0.8270 0.8270
2810.308081 0.8265 0.8260 0.8260 0.8260 0.8255
2814.991929 0.8250 0.8244 0.8238 0.8223 0.8209
2819.675777 0.8204 0.8198 0.8188 0.8180 0.8180
2824.359625 0.8179 0.8174 0.8168 0.8158 0.8152
2829.043473 0.8162 0.8168 0.8158 0.8150 0.8150
2833.727321 0.8150 0.8150 0.8149 0.8144 0.8139
2838.411169 0.8134 0.8129 0.8123 0.8112 0.8087
2843.095017 0.8064 0.8043 0.8020 0.7990 0.7965
2847.778866 0.7950 0.7938 0.7933 0.7926 0.7916
2852.462714 0.7900 0.7875 0.7759 0.7500 0.7237
2857.146562 0.6971 0.6508 0.5788 0.5374 0.5339
2861.830410 0.5306 0.5276 0.5258 0.5253 0.5097
2866.514258 0.4780 0.4541 0.4380 0.4071 0.3618
2871.198106 0.3392 0.3377 0.3375 0.3386 0.3503
2875.881954 0.3704 0.3885 0.4051 0.4208 0.4359
2880.565803 0.4471 0.4557 0.4654 0.4760 0.4831
2885.249651 0.4882 0.4935 0.4990 0.5010 0.5010
2889.933499 0.4997 0.4977 0.4950 0.4919 0.4882
2894.617347 0.4842 0.4816 0.4796 0.4750 0.4695
2899.301195 0.4606 0.4505 0.4423 0.4348 0.4273
2903.985043 0.4197 0.4176 0.4171 0.4174 0.4179
2908.668891 0.4184 0.4189 0.4354 0.4558 0.4683
2913.352739 0.4794 0.4904 0.5015 0.5282 0.5574
2918.036588 0.5623 0.5638 0.5640 0.5640 0.5626
2922.720436 0.5611 0.5610 0.5610 0.5466 0.5310
2927.404284 0.5041 0.4764 0.4673 0.4592 0.4491
2932.088132 0.4391 0.4295 0.4200 0.4084 0.3969
2936.771980 0.3934 0.3897 0.3781 0.3668 0.3607
2941.455828 0.3548 0.3508 0.3438 0.2935 0.2447
2946.139676 0.2145 0.1852 0.1643 0.1443 0.1302
2950.823525 0.1180 0.1180 0.1183 0.1203 0.1229
2955.507373 0.1290 0.1430 0.1963 0.2425 0.2566
2960.191221 0.2707 0.2848 0.3040 0.3432 0.3799
2964.875069 0.4070 0.4325 0.4523 0.4704 0.4835
2969.558917 0.4963 0.5084 0.5250 0.5532 0.5807
2974.242765 0.6069 0.6315 0.6526 0.6705 0.6816
2978.926613 0.6925 0.7031 0.7124 0.7195 0.7260
2983.610461 0.7315 0.7363 0.7399 0.7430 0.7455
2988.294310 0.7474 0.7484 0.7494 0.7504 0.7512
2992.978158 0.7517 0.7533 0.7564 0.7587 0.7602
2997.662006 0.7619 0.7640 0.7657 0.7672 0.7680
3002.345854 0.7680 0.7683 0.7688 0.7693 0.7698
3007.029702 0.7700 0.7700 0.7700 0.7700 0.7700
3011.713550 0.7700 0.7700 0.7700 0.7697 0.7692
3016.397398 0.7690 0.7690 0.7681 0.7666 0.7657
3021.081246 0.7652 0.7650 0.7650 0.7647 0.7642
3025.765095 0.7640 0.7640 0.7636 0.7631 0.7630
3030.448943 0.7630 0.7630 0.7630 0.7626 0.7621
3035.132791 0.7616 0.7611 0.7602 0.7592 0.7586
3039.816639 0.7581 0.7576 0.7571 0.7562 0.7552
3044.500487 0.7525 0.7495 0.7482 0.7471 0.7457
3049.184335 0.7442 0.7440 0.7440 0.7440 0.7440
3053.868183 0.7431 0.7421 0.7411 0.7401 0.7382
3058.552032 0.7362 0.7355 0.7350 0.7350 0.7350
3063.235880 0.7345 0.7340 0.7335 0.7330 0.7310
3067.919728 0.7290 0.7285 0.7280 0.7275 0.7270
3072.603576 0.7254 0.7239 0.7203 0.7169 0.7144
3077.287424 0.7119 0.7104 0.7088 0.7068 0.7049
3081.971272 0.7039 0.7028 0.7013 0.6999 0.6989
3086.655120 0.6978 0.6963 0.6948 0.6938 0.6927
3091.338968 0.6906 0.6888 0.6878 0.6867 0.6852
3096.022817 0.6835 0.6809 0.6788 0.6778 0.6761
3100.706665 0.6726 0.6695 0.6675 0.6657 0.6647
3105.390513 0.6639 0.6634 0.6629 0.6623 0.6617
3110.074361 0.6607 0.6594 0.6573 0.6553 0.6533
3114.758209 0.6510 0.6479 0.6447 0.6412 0.6388
3119.442057 0.6383 0.6378 0.6373 0.6366 0.6356
3124.125905 0.6344 0.6329 0.6318 0.6313 0.6294
3128.809754 0.6259 0.6233 0.6218 0.6208 0.6203
3133.493602 0.6190 0.6170 0.6147 0.6122 0.6099
3138.177450 0.6079 0.6062 0.6047 0.6034 0.6024
3142.861298 0.5995 0.5949 0.5916 0.5890 0.5865
3147.545146 0.5840 0.5821 0.5806 0.5794 0.5784
3152.228994 0.5771 0.5755 0.5727 0.5692 0.5667
3156.912842 0.5646 0.5616 0.5581 0.5560 0.5544
3161.596690 0.5526 0.5506 0.5468 0.5422 0.5399
3166.280539 0.5384 0.5376 0.5371 0.5344 0.5308
3170.964387 0.5288 0.5273 0.5250 0.5225 0.5200
3175.648235 0.5175 0.5145 0.5115 0.5047 0.4972
3180.332083 0.4935 0.4904 0.4887 0.4872 0.4853
3185.015931 0.4832 0.4826 0.4821 0.4816 0.4810
3189.699779 0.4787 0.4762 0.4732 0.4702 0.4686
3194.383627 0.4671 0.4641 0.4611 0.4586 0.4560
3199.067476 0.4525 0.4490 0.4470 0.4450 0.4425
3203.751324 0.4400 0.4390 0.4379 0.4359 0.4340
3208.435172 0.4329 0.4318 0.4293 0.4268 0.4248
3213.119020 0.4229 0.4213 0.4196 0.4161 0.4129
3217.802868 0.4119 0.4107 0.4087 0.4066 0.4041
3222.486716 0.4017 0.3997 0.3978 0.3968 0.3955
3227.170564 0.3930 0.3909 0.3904 0.3898 0.3888
3231.854412 0.3876 0.3861 0.3846 0.3831 0.3813
3236.538261 0.3788 0.3763 0.3738 0.3713 0.3688
3241.222109 0.3663 0.3637 0.3611 0.3581 0.3560
3245.905957 0.3560 0.3556 0.3546 0.3538 0.3533
3250.589805 0.3526 0.3516 0.3506 0.3496 0.3488
3255.273653 0.3483 0.3476 0.3466 0.3456 0.3446
3259.957501 0.3436 0.3426 0.3418 0.3413 0.3405
3264.641349 0.3395 0.3383 0.3367 0.3355 0.3345
3269.325198 0.3340 0.3340 0.3337 0.3332 0.3327
3274.009046 0.3322 0.3317 0.3312 0.3310 0.3310
3278.692894 0.3304 0.3294 0.3284 0.3274 0.3270
3283.376742 0.3270 0.3270 0.3270 0.3270 0.3270
3288.060590 0.3270 0.3270 0.3270 0.3270 0.3270
3292.744438 0.3270 0.3270 0.3270 0.3270 0.3270
3297.428286 0.3270 0.3270 0.3270 0.3270 0.3270
3302.112134 0.3270 0.3270 0.3270 0.3274 0.3279
3306.795983 0.3280 0.3280 0.3280 0.3280 0.3284
3311.479831 0.3289 0.3298 0.3308 0.3314 0.3319
3316.163679 0.3320 0.3320 0.3329 0.3339 0.3344
3320.847527 0.3350 0.3355 0.3360 0.3374 0.3389
3325.531375 0.3395 0.3400 0.3405 0.3410 0.3420
3330.215223 0.3430 0.3435 0.3440 0.3455 0.3470
3334.899071 0.3475 0.3480 0.3485 0.3490 0.3500
3339.582920 0.3511 0.3521 0.3530 0.3535 0.3541
3344.266768 0.3551 0.3560 0.3565 0.3571 0.3587
3348.950616 0.3601 0.3606 0.3611 0.3616 0.3621
3353.634464 0.3631 0.3641 0.3646 0.3652 0.3662
3358.318312 0.3672 0.3682 0.3693 0.3708 0.3724
3363.002160 0.3744 0.3766 0.3791 0.3812 0.3822
3367.686008 0.3836 0.3861 0.3880 0.3880 0.3881
3372.369856 0.3886 0.3893 0.3903 0.3912 0.3917
3377.053705 0.3922 0.3927 0.3942 0.3977 0.4007
3381.737553 0.4027 0.4053 0.4088 0.4112 0.4117
3386.421401 0.4130 0.4155 0.4172 0.4177 0.4190
3391.105249 0.4216 0.4236 0.4252 0.4264 0.4275
3395.789097 0.4292 0.4317 0.4345 0.4375 0.4395
3400.472945 0.4405 0.4413 0.4418 0.4433 0.4458
3405.156793 0.4483 0.4508 0.4520 0.4520 0.4523
3409.840642 0.4528 0.4533 0.4538 0.4546 0.4556
3414.524490 0.4569 0.4584 0.4596 0.4606 0.4629
3419.208338 0.4659 0.4696 0.4736 0.4773 0.4808
3423.892186 0.4833 0.4854 0.4874 0.4894 0.4903
3428.576034 0.4909 0.4917 0.4927 0.4945 0.4965
3433.259882 0.4974 0.4979 0.4988 0.4998 0.5000
3437.943730 0.5000 0.5012 0.5027 0.5038 0.5048
3442.627578 0.5083 0.5123 0.5155 0.5185 0.5219
3447.311427 0.5255 0.5264 0.5269 0.5279 0.5289
3451.995275 0.5294 0.5300 0.5309 0.5319 0.5343
3456.679123 0.5368 0.5379 0.5389 0.5432 0.5478
3461.362971 0.5490 0.5500 0.5519 0.5539 0.5569
3466.046819 0.5600 0.5625 0.5650 0.5655 0.5660
3470.730667 0.5676 0.5691 0.5727 0.5760 0.5755
3475.414515 0.5750 0.5755 0.5761 0.5776 0.5791
3480.098364 0.5806 0.5824 0.5864 0.5903 0.5928
3484.782212 0.5953 0.5978 0.6003 0.6023 0.6040
3489.466060 0.6040 0.6042 0.6052 0.6068 0.6108
3494.149908 0.6141 0.6146 0.6153 0.6168 0.6186
3498.833756 0.6211 0.6240 0.6280 0.6316 0.6341
3503.517604 0.6369 0.6404 0.6431 0.6436 0.6443
3508.201452 0.6453 0.6465 0.6480 0.6497 0.6517
3512.885300 0.6535 0.6550 0.6571 0.6601 0.6624
3517.569149 0.6634 0.6655 0.6695 0.6732 0.6762
3522.252997 0.6794 0.6829 0.6852 0.6857 0.6876
3526.936845 0.6911 0.6935 0.6945 0.6962 0.6987
3531.620693 0.7017 0.7052 0.7072 0.7078 0.7083
3536.304541 0.7088 0.7098 0.7113 0.7139 0.7174
3540.988389 0.7217 0.7268 0.7307 0.7337 0.7365
3545.672237 0.7390 0.7412 0.7432 0.7449 0.7464
3550.356086 0.7476 0.7486 0.7493 0.7498 0.7513
3555.039934 0.7533 0.7553 0.7573 0.7590 0.7605
3559.723782 0.7624 0.7644 0.7685 0.7736 0.7776
3564.407630 0.7811 0.7839 0.7864 0.7885 0.7905
3569.091478 0.7918 0.7928 0.7934 0.7939 0.7952
3573.775326 0.7967 0.7974 0.7979 0.8000 0.8025
3578.459174 0.8042 0.8057 0.8094 0.8135 0.8157
3583.143022 0.8178 0.8193 0.8208 0.8214 0.8220
3587.826871 0.8229 0.8239 0.8245 0.8250 0.8250
3592.510719 0.8250 0.8255 0.8260 0.8270 0.8280
3597.194567 0.8299 0.8319 0.8335 0.8350 0.8375
3601.878415 0.8400 0.8415 0.8431 0.8451 0.8470
3606.562263 0.8465 0.8460 0.8465 0.8471 0.8486
3611.246111 0.8500 0.8505 0.8510 0.8510 0.8511
3615.929959 0.8521 0.8531 0.8536 0.8541 0.8546
3620.613808 0.8550 0.8550 0.8551 0.8556 0.8560
3625.297656 0.8560 0.8560 0.8560 0.8559 0.8554
3629.981504 0.8545 0.8519 0.8499 0.8494 0.8490
3634.665352 0.8490 0.8486 0.8471 0.8456 0.8441
3639.349200 0.8429 0.8423 0.8418 0.8413 0.8407
3644.033048 0.8397 0.8380 0.8350 0.8323 0.8303
3648.716896 0.8283 0.8263 0.8244 0.8229 0.8205
3653.400744 0.8164 0.8124 0.8083 0.8043 0.8003
3658.084593 0.7962 0.7922 0.7889 0.7864 0.7843
3662.768441 0.7828 0.7777 0.7687 0.7577 0.7446
3667.452289 0.7345 0.7275 0.7209 0.7149 0.7073
3672.136137 0.6982 0.6927 0.6901 0.6862 0.6811
3676.819985 0.6773 0.6742 0.6700 0.6650 0.6591
3681.503833 0.6525 0.6454 0.6378 0.6291 0.6195
3686.187681 0.6045 0.5864 0.5680 0.5494 0.5397
3690.871529 0.5347 0.5327 0.5322 0.5320 0.5320
3695.555378 0.5345 0.5380 0.5492 0.5633 0.5767
3700.239226 0.5897 0.6115 0.6362 0.6650 0.6952
3704.923074 0.7203 0.7440 0.7581 0.7697 0.7808
3709.606922 0.7919 0.8109 0.8317 0.8409 0.8480
3714.290770 0.8516 0.8546 0.8607 0.8672 0.8707
3718.974618 0.8737 0.8762 0.8788 0.8831 0.8876
3723.658466 0.8903 0.8928 0.8949 0.8969 0.8979
3728.342315 0.8989 0.8995 0.9000 0.9020 0.9040
3733.026163 0.9045 0.9050 0.9080 0.9110 0.9110
3737.710011 0.9111 0.9136 0.9161 0.9181 0.9200
3742.393859 0.9200 0.9200 0.9205 0.9210 0.9210
3747.077707 0.9210 0.9204 0.9200 0.9200 0.9199
3751.761555 0.9194 0.9189 0.9178 0.9169 0.9164
3756.445403 0.9158 0.9148 0.9140 0.9140 0.9140
3761.129251 0.9140 0.9142 0.9152 0.9160 0.9160
3765.813100 0.9160 0.9160 0.9160 0.9160 0.9160
3770.496948 0.9160 0.9160 0.9160 0.9160 0.9160
3775.180796 0.9160 0.9160 0.9162 0.9167 0.9172
3779.864644 0.9177 0.9182 0.9187 0.9188 0.9183
3784.548492 0.9180 0.9180 0.9180 0.9180
##END=
