##TITLE=1,3-Hexadiene
##JCAMP-DX=4.24
##DATA TYPE=INFRARED SPECTRUM
##ORIGIN=NIST Mass Spectrometry Data Center
##OWNER=NIST Standard Reference Data Program
Collection (C) 2018 copyright by the U.S. Secretary of Commerce
on behalf of the United States of America. All rights reserved.
##CAS REGISTRY NO=592-48-3
##MOLFORM=C 6 H 10
##SOURCE REFERENCE=No.158236 (NIST/EPA/NIH MS Database)
##$NIST SOURCE=MSDC-IR
##SPECTROMETER/DATA SYSTEM=HP-GC/MS/IRD
##STATE=gas
##XUNITS=1/CM
##YUNITS=ABSORBANCE
##XFACTOR=1.0
##YFACTOR=0.000001800
##DELTAX=4.0
##FIRSTX=550.0
##LASTX=3846.0
##FIRSTY=0.000792
##MAXX=3846
##MINX=550
##MAXY=0.018
##MINY=0
##NPOINTS=825
##XYDATA=(X++(Y..Y))
550.0 440 259 0 72 50 79 179 188 97 94
590.0 156 159 119 109 96 100 160 202 252 269
630.0 281 321 316 313 295 277 242 204 185 168
670.0 124 106 112 87 77 71 59 73 64 76
710.0 100 80 52 64 87 104 115 141 170 168
750.0 197 267 313 361 375 392 435 454 471 460
790.0 459 433 373 320 262 282 321 289 292 326
830.0 346 414 441 480 567 634 691 784 934 1101
870.0 1297 1549 1867 2184 2501 2857 3211 3537 3678 3712
910.0 3646 3504 3295 3042 2826 2624 2480 2369 2317 2322
950.0 2386 2464 2523 2637 2797 3005 3228 3444 3690 3885
990.0 3997 4094 4165 4125 3957 3720 3469 3192 2809 2362
1030.0 1965 1646 1338 1085 914 791 722 649 634 596
1070.0 542 516 525 514 485 472 437 428 409 353
1110.0 325 301 294 287 283 290 287 296 294 247
1150.0 205 229 286 300 317 366 389 374 365 334
1190.0 287 261 209 182 198 192 188 224 248 232
1230.0 196 190 215 217 226 254 291 321 373 459
1270.0 517 567 611 639 646 649 669 712 764 812
1310.0 894 982 1021 1000 956 935 846 709 598 498
1350.0 418 380 351 326 328 348 366 406 441 475
1390.0 520 535 534 562 603 646 671 686 739 804
1430.0 869 934 986 1037 1074 1109 1140 1148 1151 1098
1470.0 1021 955 866 762 673 582 476 398 363 332
1510.0 302 304 302 281 285 286 274 271 275 279
1550.0 287 292 314 341 367 426 488 575 705 850
1590.0 1025 1192 1311 1370 1377 1351 1259 1079 921 874
1630.0 916 1014 1150 1313 1425 1446 1399 1312 1118 798
1670.0 509 332 244 212 188 163 146 139 134 139
1710.0 152 155 147 153 160 158 151 152 166 178
1750.0 191 205 225 239 263 305 355 425 530 678
1790.0 865 1043 1114 1128 1173 1123 921 715 561 457
1830.0 416 383 351 326 301 272 232 196 160 122
1870.0 114 118 108 113 109 98 104 126 120 112
1910.0 138 125 104 103 101 97 99 111 108 95
1950.0 82 82 89 81 77 73 63 65 75 82
1990.0 83 94 99 93 99 102 104 105 95 80
2030.0 84 92 81 59 62 80 75 63 56 56
2070.0 64 69 84 90 71 64 69 74 82 81
2110.0 83 86 84 93 95 81 81 74 57 54
2150.0 54 53 67 70 58 52 60 67 52 49
2190.0 62 76 71 59 71 84 80 74 85 85
2230.0 76 67 81 92 80 70 72 80 80 77
2270.0 64 57 55 69 79 73 71 60 62 66
2310.0 68 76 76 73 64 69 65 53 65 75
2350.0 84 74 62 66 57 67 87 90 95 91
2390.0 86 82 88 97 106 106 95 98 97 89
2430.0 85 72 74 76 77 79 87 91 77 63
2470.0 71 82 77 69 71 83 80 64 66 59
2510.0 61 65 51 52 54 65 72 63 70 71
2550.0 85 112 101 74 64 63 74 90 89 83
2590.0 83 78 75 63 47 51 69 75 73 77
2630.0 90 80 50 52 54 53 72 78 63 63
2670.0 72 62 76 94 91 103 88 91 114 120
2710.0 129 130 125 137 157 177 179 170 195 197
2750.0 197 232 247 250 242 228 242 258 265 285
2790.0 297 302 312 321 367 441 497 578 660 739
2830.0 861 1018 1180 1385 1606 1831 2035 2210 2421 2625
2870.0 2875 3230 3600 3901 4120 4332 4557 4688 4643 4568
2910.0 4554 4556 4573 4640 4815 5161 5657 6081 6276 6492
2950.0 6843 7160 7577 8324 9307 9967 10000 9916 9644 8732
2990.0 7512 6546 6028 5733 5482 5237 4984 4724 4391 3960
3030.0 3544 3221 2938 2673 2458 2270 2119 2003 1891 1779
3070.0 1738 1793 1945 2186 2412 2403 2243 2180 2087 1744
3110.0 1309 1041 869 761 672 562 522 484 423 397
3150.0 378 358 341 308 261 215 221 231 213 193
3190.0 163 163 146 130 147 171 141 101 119 127
3230.0 130 105 82 97 101 119 129 135 139 108
3270.0 93 80 64 71 76 73 61 74 68 59
3310.0 106 112 66 52 47 48 69 84 104 114
3350.0 128 140 103 70 82 101 114 123 114 140
3390.0 119 79 78 67 101 110 73 76 104 129
3430.0 130 120 109 120 122 105 99 127 125 90
3470.0 59 71 105 102 93 105 149 130 120 116
3510.0 104 114 123 121 114 107 94 96 125 155
3550.0 159 141 130 98 101 128 131 135 130 132
3590.0 153 157 159 139 119 128 110 121 100 93
3630.0 133 126 101 98 139 165 109 90 117 125
3670.0 104 100 103 106 127 121 133 151 139 120
3710.0 116 147 158 132 137 130 130 150 120 83
3750.0 104 146 170 155 162 157 141 173 218 210
3790.0 168 146 113 86 94 127 164 164 131 107
3830.0 126 170 175 157 131
##END=
