##TITLE=.alpha.-Chloroacrylic acid
##JCAMP-DX=4.24
##DATA TYPE=INFRARED SPECTRUM
##ORIGIN=EPA-IR VAPOR PHASE LIBRARY
##OWNER=SRD/NIST
Collection (C) 2018 copyright by the U.S. Secretary of Commerce
on behalf of the United States of America. All rights reserved.
##CAS REGISTRY NO=598-79-8
##MOLFORM=C 3 H 3 Cl O 2
##$NIST SOURCE=MSDC-IR
##STATE=gas
##XUNITS=1/CM
##YUNITS=ABSORBANCE
##XFACTOR=1.
##YFACTOR=0.001
##DELTAX=3.85796
##FIRSTX=501.5
##LASTX=4000.7
##FIRSTY=0.9005
##MAXX=4000.7
##MINX=501.534
##MAXY=0.019929
##MINY=0
##NPOINTS=908
##XYDATA=(X++(Y..Y))
501.534 0.9005 1.329 1.599 1.689 1.899 2.269 2.809 3.279 3.719 4.169
540.114 4.189 4.239 4.659 5.079 5.269 4.899 4.539 4.449 4.179 3.929
578.693 3.919 4.019 4.099 3.749 2.919 2.269 1.929 1.659 1.449 1.2619
617.273 1.1164 0.998 0.9159 0.916 0.8911 0.8173 0.852 0.9179 0.9725 1.0762
655.852 1.319 1.709 2.179 2.689 3.189 3.849 4.609 5.179 5.489 5.619
694.432 5.589 5.449 5.009 4.319 3.649 2.899 2.189 1.709 1.369 1.2057
733.011 1.0831 0.867 0.7652 0.7172 0.6209 0.6229 0.7212 0.7812 0.8468 0.9656
771.591 1.1476 1.369 1.539 1.699 1.979 2.479 2.499 1.959 1.689 1.629
810.170 1.489 1.409 1.2834 1.0425 0.8935 0.8444 0.865 0.9442 1.0271 1.1692
848.750 1.329 1.399 1.419 1.459 1.489 1.479 1.369 1.2334 1.0756 0.8964
887.330 0.85 0.9146 1.0165 1.1969 1.459 1.789 2.169 2.519 2.829 3.189
925.909 3.779 4.099 3.669 2.939 2.419 2.099 1.809 1.439 1.0571 0.8254
964.489 0.6482 0.4977 0.4507 0.4368 0.4327 0.4681 0.4945 0.4778 0.432 0.39819
1003.068 0.4463 0.4952 0.4656 0.4844 0.4913 0.5601 0.5817 0.5082 0.6446 0.8009
1041.648 0.9725 1.2807 1.629 2.079 2.869 4.159 6.029 8.139 9.909 11.069
1080.227 11.789 12.209 12.189 11.719 10.479 8.679 7.379 6.859 6.999 7.309
1118.807 7.549 7.749 7.879 7.929 7.799 7.519 7.109 6.819 6.859 7.169
1157.387 7.609 7.999 8.239 8.059 7.599 7.339 7.049 6.259 5.119 4.109
1195.966 3.249 2.609 2.179 1.769 1.419 1.2026 1.0097 0.9528 0.9459 0.92
1234.546 0.9809 0.9375 0.9227 1.0263 1.0932 1.1559 1.2348 1.449 1.679 1.799
1273.125 1.979 2.169 2.259 2.369 2.439 2.569 2.739 2.849 2.949 3.059
1311.705 3.189 3.379 3.649 3.929 4.189 4.399 4.589 4.629 4.499 4.309
1350.284 4.119 3.909 3.619 3.279 3.029 2.959 3.019 3.159 3.389 3.729
1388.864 4.239 4.709 4.799 4.549 4.159 3.939 3.699 3.069 2.279 1.629
1427.443 1.2156 0.9645 0.8003 0.6708 0.5842 0.5283 0.4647 0.4093 0.34197 0.2886
1466.023 0.2602 0.2118 0.175 0.149 0.121 0.083 0.054 0.031 0.012 0.015
1504.603 0 0.003 0.019 0.032 0.049 0.05 0.067 0.098 0.131 0.175
1543.182 0.2161 0.2349 0.2787 0.33752 0.4013 0.5067 0.6354 0.7907 1.003 1.2693
1581.762 1.599 2.039 2.599 3.219 3.799 4.219 4.449 4.499 4.439 4.259
1620.341 3.949 3.479 2.889 2.289 1.779 1.389 1.0899 0.8961 0.7929 0.7378
1658.921 0.708 0.7134 0.7348 0.7509 0.7531 0.7538 0.7817 0.8261 0.8776 0.9508
1697.500 1.0731 1.2284 1.419 1.679 1.959 2.139 2.259 2.439 2.689 3.029
1736.080 3.519 4.389 5.859 8.019 10.599 12.819 14.449 16.209 17.929 19.449
1774.659 19.929 17.909 15.139 13.929 13.199 11.319 8.969 7.009 5.339 3.949
1813.239 3.009 2.449 2.009 1.699 1.529 1.439 1.349 1.2461 1.1541 1.0924
1851.819 1.0486 1.0073 0.9564 0.8964 0.8488 0.7855 0.7039 0.646 0.583 0.5078
1890.398 0.4738 0.4564 0.4315 0.4149 0.4091 0.39662 0.38524 0.39214 0.39877 0.38485
1928.978 0.38504 0.3946 0.38948 0.37994 0.37797 0.37478 0.36716 0.38159 0.38608 0.37979
1967.557 0.38075 0.39709 0.4193 0.4169 0.4161 0.4152 0.4222 0.432 0.4493 0.4569
2006.137 0.4195 0.3992 0.4117 0.4247 0.4189 0.4003 0.38861 0.39113 0.39365 0.39032
2044.716 0.39268 0.38191 0.3703 0.36854 0.36819 0.35191 0.3315 0.33907 0.33311 0.32255
2083.296 0.32201 0.31599 0.31779 0.33367 0.34709 0.35189 0.34899 0.35215 0.35606 0.34271
2121.875 0.33903 0.35253 0.36284 0.34939 0.34051 0.36326 0.39339 0.4024 0.4052 0.405
2160.455 0.4007 0.3916 0.3699 0.37026 0.37893 0.38097 0.37595 0.35276 0.34357 0.33356
2199.035 0.34415 0.36132 0.34833 0.34589 0.34435 0.35356 0.35807 0.37465 0.39364 0.38647
2237.614 0.38975 0.3984 0.4055 0.4246 0.4303 0.4232 0.4088 0.39266 0.4071 0.4122
2276.194 0.3959 0.406 0.4188 0.4178 0.412 0.4172 0.4286 0.4275 0.4485 0.4578
2314.773 0.4638 0.4594 0.4469 0.4587 0.4608 0.4451 0.4482 0.4606 0.4695 0.4719
2353.353 0.4705 0.4787 0.4747 0.4822 0.4818 0.4608 0.4485 0.444 0.4483 0.4507
2391.932 0.4273 0.4059 0.4137 0.4302 0.4319 0.4251 0.4309 0.4224 0.4036 0.4189
2430.512 0.4189 0.4113 0.4186 0.4189 0.4105 0.4058 0.4241 0.4589 0.4536 0.4286
2469.092 0.4314 0.4329 0.435 0.4417 0.4293 0.4358 0.4391 0.4097 0.4177 0.421
2507.671 0.4059 0.39485 0.4132 0.4201 0.4073 0.4133 0.4046 0.4244 0.4424 0.4275
2546.251 0.4336 0.4423 0.4101 0.38473 0.4007 0.408 0.38967 0.38786 0.3936 0.37831
2584.830 0.4096 0.4391 0.4289 0.4001 0.38558 0.38665 0.4111 0.4174 0.38371 0.37126
2623.410 0.3618 0.4141 0.4425 0.39443 0.35432 0.36024 0.38245 0.38994 0.39276 0.4027
2661.989 0.39261 0.39768 0.4226 0.4301 0.428 0.4256 0.4343 0.4405 0.421 0.4273
2700.569 0.4676 0.4502 0.4417 0.4615 0.4601 0.4347 0.431 0.4316 0.4406 0.4563
2739.148 0.4573 0.4779 0.4937 0.4869 0.4684 0.4433 0.4523 0.4693 0.4589 0.4299
2777.728 0.4318 0.4267 0.4138 0.4602 0.4771 0.4732 0.4577 0.4519 0.445 0.4414
2816.308 0.4562 0.4599 0.4583 0.4472 0.4514 0.4523 0.4393 0.4236 0.4404 0.473
2854.887 0.4721 0.4914 0.5058 0.4973 0.5015 0.5245 0.5257 0.5263 0.5516 0.5672
2893.467 0.5784 0.5847 0.5626 0.5159 0.5126 0.5092 0.5151 0.5217 0.485 0.5123
2932.046 0.5356 0.5186 0.5299 0.5133 0.5245 0.532 0.4998 0.5316 0.546 0.5459
2970.626 0.587 0.5719 0.5222 0.5209 0.5342 0.5237 0.5078 0.5139 0.5546 0.5537
3009.205 0.54 0.5572 0.574 0.5676 0.5214 0.5509 0.6003 0.6212 0.6281 0.5996
3047.785 0.6114 0.6043 0.5699 0.5511 0.4927 0.4938 0.5087 0.493 0.5069 0.5168
3086.364 0.5192 0.5039 0.51 0.5138 0.5255 0.5339 0.4859 0.5198 0.5357 0.5337
3124.944 0.5727 0.5601 0.5378 0.5336 0.5606 0.5538 0.5509 0.528 0.5186 0.5353
3163.524 0.5405 0.5643 0.5529 0.5154 0.5241 0.5553 0.5472 0.4877 0.4968 0.5478
3202.103 0.5431 0.5375 0.5515 0.5854 0.6014 0.6029 0.5734 0.541 0.5613 0.5479
3240.683 0.5041 0.4985 0.514 0.5124 0.4974 0.5167 0.5223 0.5027 0.4765 0.4666
3279.262 0.505 0.4939 0.5093 0.5404 0.5394 0.5177 0.4786 0.4967 0.5306 0.544
3317.842 0.5267 0.5192 0.5272 0.5322 0.5259 0.5053 0.4723 0.5023 0.529 0.4993
3356.421 0.499 0.4958 0.4767 0.5045 0.5059 0.4806 0.4823 0.4821 0.4717 0.499
3395.001 0.522 0.5454 0.5313 0.4778 0.4283 0.39301 0.4356 0.4511 0.4676 0.4952
3433.580 0.4693 0.4758 0.4799 0.4441 0.4471 0.493 0.4777 0.4453 0.4693 0.4864
3472.160 0.4699 0.4898 0.5808 0.5987 0.5943 0.5914 0.5603 0.5641 0.621 0.6639
3510.740 0.6766 0.6989 0.7318 0.7193 0.7124 0.8004 0.8745 1.0009 1.2053 1.449
3549.319 1.799 2.239 2.779 3.619 4.859 6.249 7.489 8.069 8.159 8.049
3587.899 7.819 7.249 5.989 4.449 2.959 1.849 1.162 0.8058 0.6853 0.6348
3626.478 0.5966 0.5621 0.5656 0.5614 0.5024 0.4321 0.39361 0.37189 0.36981 0.37664
3665.058 0.37503 0.34667 0.39304 0.4317 0.39398 0.37813 0.38509 0.36441 0.33838 0.338
3703.637 0.32919 0.35574 0.35212 0.31572 0.31498 0.35697 0.39751 0.417 0.417 0.3844
3742.217 0.39573 0.38062 0.35322 0.36299 0.31345 0.29352 0.3794 0.4024 0.4186 0.433
3780.797 0.38845 0.36921 0.408 0.3993 0.33575 0.3486 0.38621 0.4339 0.4478 0.4603
3819.376 0.4549 0.4487 0.4413 0.39772 0.37815 0.36477 0.36929 0.38123 0.3757 0.4244
3857.956 0.4312 0.37482 0.4122 0.4673 0.4308 0.4095 0.4405 0.4045 0.34895 0.37714
3896.535 0.37811 0.36706 0.4124 0.4232 0.4545 0.4649 0.4098 0.35831 0.36675 0.4013
3935.115 0.4044 0.36404 0.36913 0.38262 0.3621 0.37009 0.38977 0.3974 0.4382 0.4944
3973.694 0.4798 0.4718 0.4622 0.4057 0.4113 0.4072 0.38895 0.4291
##END=
