##TITLE=3-Methyl-2-butanol
##JCAMP-DX=4.24
##DATA TYPE=INFRARED SPECTRUM
##ORIGIN=NIST Mass Spectrometry Data Center
##OWNER=NIST Standard Reference Data Program
Collection (C) 2018 copyright by the U.S. Secretary of Commerce
on behalf of the United States of America. All rights reserved.
##CAS REGISTRY NO=598-75-4
##MOLFORM=C 5 H 12 O
##$NIST SOURCE=MSDC-IR
##SPECTROMETER/DATA SYSTEM=HP-GC/MS/IRD
##STATE=gas
##XUNITS=1/CM
##YUNITS=ABSORBANCE
##XFACTOR=1.0
##YFACTOR=0.000003500
##DELTAX=4.0
##FIRSTX=550.0
##LASTX=3846.0
##FIRSTY=0.000354
##MAXX=3846
##MINX=550
##MAXY=0.035
##MINY=0
##NPOINTS=825
##XYDATA=(X++(Y..Y))
550.0 101 120 112 75 70 90 89 73 65 83
590.0 97 82 83 91 84 76 96 94 73 48
630.0 31 38 54 57 49 39 30 21 6 5
670.0 19 23 17 26 33 22 29 28 29 35
710.0 32 26 27 32 36 47 52 48 53 68
750.0 63 60 64 79 89 81 73 81 86 75
790.0 61 50 48 57 73 75 57 48 40 51
830.0 58 66 88 115 154 202 272 360 446 534
870.0 616 667 684 691 687 653 608 583 605 676
910.0 781 919 1056 1167 1249 1299 1279 1199 1090 949
950.0 797 679 612 586 587 611 659 743 837 944
990.0 1076 1219 1372 1529 1670 1785 1886 1989 2050 2021
1030.0 1953 1914 1903 1901 1933 2008 2124 2272 2434 2566
1070.0 2645 2675 2663 2614 2499 2351 2195 2027 1858 1722
1110.0 1623 1551 1509 1465 1436 1421 1401 1386 1370 1343
1150.0 1302 1242 1178 1118 1062 1005 945 885 814 751
1190.0 706 672 656 661 690 745 825 914 1024 1146
1230.0 1257 1355 1438 1483 1493 1459 1386 1296 1185 1071
1270.0 971 881 819 785 766 749 743 744 746 736
1310.0 714 690 669 648 629 631 656 706 769 858
1350.0 980 1136 1336 1574 1836 2107 2348 2531 2642 2652
1390.0 2543 2286 1953 1635 1336 1071 871 733 658 651
1430.0 686 751 850 971 1091 1218 1331 1418 1462 1435
1470.0 1369 1282 1158 1000 843 699 564 449 358 283
1510.0 235 200 165 148 142 132 116 96 92 102
1550.0 99 85 63 63 65 62 54 54 54 51
1590.0 55 56 57 57 57 58 53 49 54 58
1630.0 59 47 48 53 48 41 42 53 55 51
1670.0 42 42 43 33 32 34 24 14 14 18
1710.0 24 23 12 16 18 15 11 9 11 12
1750.0 11 12 12 10 15 13 6 9 15 15
1790.0 8 10 19 21 23 21 20 18 16 14
1830.0 9 11 13 7 6 14 20 19 19 18
1870.0 17 20 15 15 19 17 14 19 21 20
1910.0 24 22 18 19 20 18 11 10 16 15
1950.0 15 14 12 12 11 8 7 8 8 9
1990.0 11 12 13 13 17 12 8 12 9 9
2030.0 15 13 9 4 3 8 11 9 9 9
2070.0 9 8 5 8 8 7 8 7 8 7
2110.0 7 5 8 9 5 8 13 9 7 9
2150.0 5 0 1 4 7 7 5 1 1 0
2190.0 3 6 3 5 9 7 10 11 8 8
2230.0 15 19 18 22 27 25 21 18 19 22
2270.0 22 19 18 22 24 25 28 27 22 21
2310.0 22 23 25 27 24 21 17 13 19 24
2350.0 23 19 21 21 25 29 36 43 42 43
2390.0 44 42 38 36 40 40 39 41 47 40
2430.0 32 36 38 42 36 31 34 38 39 39
2470.0 41 45 45 40 41 42 40 40 36 36
2510.0 40 41 38 36 34 34 38 36 38 44
2550.0 46 51 57 63 69 75 82 90 100 107
2590.0 117 126 126 127 136 149 160 158 157 158
2630.0 157 153 152 155 149 145 150 152 151 154
2670.0 158 157 163 167 167 172 176 174 173 181
2710.0 189 201 215 224 240 254 255 257 264 269
2750.0 269 270 272 275 283 289 294 300 315 327
2790.0 339 357 377 406 439 464 493 531 579 633
2830.0 700 790 902 1041 1215 1439 1732 2105 2557 3058
2870.0 3563 4033 4430 4737 4950 5116 5206 5067 4800 4577
2910.0 4416 4303 4252 4270 4350 4480 4680 4957 5299 5747
2950.0 6369 7143 8015 8971 9786 10000 9735 9319 8485 7243
2990.0 5892 4621 3504 2565 1839 1301 949 718 559 465
3030.0 406 372 347 323 311 305 297 296 291 281
3070.0 273 258 252 242 229 226 217 208 202 192
3110.0 188 200 206 192 181 186 186 185 184 178
3150.0 181 186 189 188 184 182 181 180 185 180
3190.0 166 152 142 134 118 112 96 84 77 69
3230.0 65 61 52 35 29 29 30 26 19 14
3270.0 15 18 12 9 14 7 13 27 22 16
3310.0 23 28 25 19 21 22 24 31 33 25
3350.0 15 12 17 20 18 26 34 35 36 31
3390.0 32 37 37 44 49 44 34 31 32 35
3430.0 31 29 38 41 38 32 29 37 42 35
3470.0 36 29 22 39 43 30 26 27 23 22
3510.0 23 17 16 20 21 19 19 14 2 10
3550.0 16 20 21 23 27 17 17 24 21 19
3590.0 26 30 32 38 53 74 95 123 169 231
3630.0 302 375 470 580 674 758 814 817 776 710
3670.0 626 522 404 289 191 128 96 67 53 43
3710.0 29 25 24 18 22 19 13 17 17 15
3750.0 0 2 18 16 13 10 17 25 20 22
3790.0 28 23 7 8 20 28 28 23 25 32
3830.0 30 22 21 25 36
##END=
