##TITLE=UREA, METHYL-
##JCAMP-DX=4.24
$$ By DXEDIT 1.05 (RS McDonald)
##DATA TYPE=INFRARED SPECTRUM
##CLASS=COBLENTZ III
##ORIGIN=WYANDOTTE CHEMICALS CORP.
##OWNER=COBLENTZ SOC.
Collection (C) 2018 copyright by the U.S. Secretary of Commerce
on behalf of the United States of America. All rights reserved.
##DATE=Not specified, most likely prior to 1970
##NAMES=N-methylurea
##CAS REGISTRY NO=598-50-5
##MOLFORM=C2 H6 N2 O
##MP=98-100 C
##SOURCE REFERENCE=COBLENTZ NO. 05868
##$NIST SOURCE=COBLENTZ
##$NIST IMAGE=cob5868
##SPECTROMETER/DATA SYSTEM=BAIRD (GRATING)
##INSTRUMENT PARAMETERS=NaCl PRISM
##STATE=SOLID (OIL MULL)
##PATH LENGTH=CAPILLARY
##SAMPLING PROCEDURE=TRANSMISSION
##RESOLUTION=2
##DATA PROCESSING=DIGITIZED BY COBLENTZ SOCIETY (BATCH I) FROM HARD COPY
##XUNITS=1/CM
##YUNITS=TRANSMITTANCE
##XLABEL=Wavenumbers (cm-1)
##YLABEL=Transmittance
##XFACTOR=1
##YFACTOR=1
##DELTAX=1
##FIRSTX=4000
##LASTX=626
##FIRSTY=0.7472
##MAXX=4000
##MINX=626
##MAXY=0.8968
##MINY=0.0256
##NPOINTS=3375
##XYDATA=(X++(Y..Y))
4000.000000 0.7472 0.7475 0.7478 0.7482 0.7486
3995.000000 0.7489 0.7492 0.7495 0.7496 0.7498
3990.000000 0.7500 0.7501 0.7503 0.7505 0.7506
3985.000000 0.7508 0.7508 0.7511 0.7511 0.7512
3980.000000 0.7515 0.7515 0.7518 0.7519 0.7521
3975.000000 0.7522 0.7524 0.7525 0.7526 0.7528
3970.000000 0.7530 0.7531 0.7533 0.7534 0.7536
3965.000000 0.7538 0.7539 0.7541 0.7542 0.7544
3960.000000 0.7545 0.7547 0.7548 0.7550 0.7551
3955.000000 0.7553 0.7554 0.7555 0.7557 0.7558
3950.000000 0.7560 0.7561 0.7561 0.7564 0.7565
3945.000000 0.7565 0.7567 0.7568 0.7568 0.7569
3940.000000 0.7569 0.7571 0.7571 0.7571 0.7571
3935.000000 0.7571 0.7571 0.7572 0.7572 0.7572
3930.000000 0.7574 0.7574 0.7575 0.7575 0.7575
3925.000000 0.7575 0.7576 0.7576 0.7576 0.7578
3920.000000 0.7578 0.7578 0.7578 0.7578 0.7578
3915.000000 0.7578 0.7578 0.7578 0.7580 0.7580
3910.000000 0.7580 0.7580 0.7580 0.7580 0.7581
3905.000000 0.7581 0.7581 0.7581 0.7581 0.7581
3900.000000 0.7582 0.7582 0.7582 0.7582 0.7582
3895.000000 0.7582 0.7583 0.7583 0.7583 0.7583
3890.000000 0.7583 0.7583 0.7584 0.7584 0.7584
3885.000000 0.7584 0.7584 0.7584 0.7584 0.7585
3880.000000 0.7585 0.7585 0.7585 0.7585 0.7585
3875.000000 0.7586 0.7586 0.7586 0.7586 0.7586
3870.000000 0.7586 0.7586 0.7586 0.7586 0.7586
3865.000000 0.7586 0.7586 0.7586 0.7586 0.7586
3860.000000 0.7586 0.7586 0.7586 0.7586 0.7586
3855.000000 0.7586 0.7586 0.7585 0.7585 0.7585
3850.000000 0.7585 0.7585 0.7585 0.7585 0.7585
3845.000000 0.7585 0.7585 0.7585 0.7585 0.7585
3840.000000 0.7584 0.7584 0.7584 0.7584 0.7584
3835.000000 0.7584 0.7583 0.7582 0.7581 0.7581
3830.000000 0.7580 0.7578 0.7578 0.7576 0.7575
3825.000000 0.7575 0.7575 0.7574 0.7572 0.7571
3820.000000 0.7571 0.7569 0.7569 0.7568 0.7568
3815.000000 0.7567 0.7565 0.7565 0.7564 0.7564
3810.000000 0.7562 0.7561 0.7561 0.7560 0.7558
3805.000000 0.7558 0.7556 0.7555 0.7553 0.7551
3800.000000 0.7550 0.7547 0.7544 0.7541 0.7538
3795.000000 0.7535 0.7532 0.7528 0.7525 0.7522
3790.000000 0.7519 0.7517 0.7514 0.7511 0.7511
3785.000000 0.7508 0.7507 0.7506 0.7504 0.7503
3780.000000 0.7501 0.7500 0.7499 0.7497 0.7496
3775.000000 0.7494 0.7493 0.7492 0.7490 0.7489
3770.000000 0.7487 0.7486 0.7485 0.7483 0.7482
3765.000000 0.7480 0.7478 0.7478 0.7475 0.7475
3760.000000 0.7472 0.7471 0.7469 0.7468 0.7467
3755.000000 0.7465 0.7464 0.7461 0.7461 0.7458
3750.000000 0.7457 0.7456 0.7454 0.7453 0.7451
3745.000000 0.7449 0.7448 0.7446 0.7445 0.7443
3740.000000 0.7441 0.7440 0.7438 0.7437 0.7435
3735.000000 0.7433 0.7432 0.7430 0.7428 0.7426
3730.000000 0.7425 0.7424 0.7421 0.7419 0.7418
3725.000000 0.7415 0.7412 0.7410 0.7408 0.7405
3720.000000 0.7401 0.7399 0.7396 0.7393 0.7389
3715.000000 0.7386 0.7383 0.7380 0.7376 0.7374
3710.000000 0.7371 0.7368 0.7365 0.7361 0.7358
3705.000000 0.7356 0.7351 0.7349 0.7346 0.7343
3700.000000 0.7340 0.7337 0.7334 0.7331 0.7328
3695.000000 0.7324 0.7321 0.7318 0.7315 0.7311
3690.000000 0.7307 0.7303 0.7299 0.7295 0.7290
3685.000000 0.7285 0.7281 0.7275 0.7271 0.7265
3680.000000 0.7261 0.7257 0.7253 0.7248 0.7243
3675.000000 0.7238 0.7234 0.7228 0.7224 0.7218
3670.000000 0.7215 0.7210 0.7205 0.7201 0.7196
3665.000000 0.7191 0.7186 0.7181 0.7176 0.7171
3660.000000 0.7165 0.7160 0.7153 0.7147 0.7140
3655.000000 0.7134 0.7125 0.7117 0.7108 0.7100
3650.000000 0.7092 0.7083 0.7074 0.7065 0.7057
3645.000000 0.7048 0.7040 0.7031 0.7021 0.7014
3640.000000 0.7005 0.6996 0.6988 0.6978 0.6969
3635.000000 0.6961 0.6953 0.6942 0.6930 0.6917
3630.000000 0.6905 0.6893 0.6881 0.6868 0.6857
3625.000000 0.6845 0.6832 0.6819 0.6808 0.6796
3620.000000 0.6784 0.6771 0.6758 0.6744 0.6728
3615.000000 0.6714 0.6699 0.6684 0.6661 0.6637
3610.000000 0.6611 0.6588 0.6562 0.6538 0.6512
3605.000000 0.6488 0.6462 0.6438 0.6410 0.6377
3600.000000 0.6344 0.6310 0.6277 0.6243 0.6205
3595.000000 0.6168 0.6130 0.6093 0.6055 0.6027
3590.000000 0.5999 0.5970 0.5942 0.5914 0.5888
3585.000000 0.5862 0.5836 0.5810 0.5784 0.5760
3580.000000 0.5739 0.5718 0.5696 0.5675 0.5654
3575.000000 0.5636 0.5617 0.5598 0.5579 0.5560
3570.000000 0.5542 0.5523 0.5504 0.5485 0.5467
3565.000000 0.5449 0.5431 0.5412 0.5396 0.5379
3560.000000 0.5365 0.5351 0.5337 0.5323 0.5309
3555.000000 0.5295 0.5281 0.5267 0.5253 0.5236
3550.000000 0.5201 0.5165 0.5130 0.5095 0.5060
3545.000000 0.5030 0.4999 0.4968 0.4938 0.4907
3540.000000 0.4871 0.4836 0.4800 0.4765 0.4729
3535.000000 0.4693 0.4658 0.4622 0.4587 0.4551
3530.000000 0.4515 0.4479 0.4444 0.4408 0.4372
3525.000000 0.4336 0.4300 0.4265 0.4229 0.4193
3520.000000 0.4157 0.4121 0.4084 0.4049 0.4012
3515.000000 0.3977 0.3941 0.3905 0.3868 0.3832
3510.000000 0.3797 0.3760 0.3725 0.3688 0.3652
3505.000000 0.3616 0.3580 0.3543 0.3507 0.3471
3500.000000 0.3434 0.3398 0.3362 0.3326 0.3289
3495.000000 0.3252 0.3216 0.3179 0.3142 0.3106
3490.000000 0.3069 0.3033 0.2996 0.2960 0.2923
3485.000000 0.2885 0.2850 0.2813 0.2776 0.2740
3480.000000 0.2703 0.2666 0.2629 0.2593 0.2556
3475.000000 0.2519 0.2482 0.2445 0.2408 0.2371
3470.000000 0.2334 0.2297 0.2260 0.2223 0.2185
3465.000000 0.2149 0.2112 0.2075 0.2037 0.2001
3460.000000 0.1964 0.1927 0.1889 0.1852 0.1815
3455.000000 0.1778 0.1740 0.1703 0.1666 0.1629
3450.000000 0.1592 0.1554 0.1525 0.1516 0.1507
3445.000000 0.1499 0.1490 0.1483 0.1477 0.1472
3440.000000 0.1466 0.1461 0.1458 0.1456 0.1455
3435.000000 0.1453 0.1451 0.1450 0.1449 0.1448
3430.000000 0.1431 0.1445 0.1444 0.1442 0.1442
3425.000000 0.1442 0.1441 0.1440 0.1440 0.1439
3420.000000 0.1439 0.1440 0.1441 0.1442 0.1442
3415.000000 0.1444 0.1445 0.1446 0.1448 0.1449
3410.000000 0.1452 0.1455 0.1459 0.1462 0.1465
3405.000000 0.1470 0.1474 0.1478 0.1482 0.1486
3400.000000 0.1491 0.1495 0.1500 0.1504 0.1509
3395.000000 0.1513 0.1518 0.1523 0.1527 0.1531
3390.000000 0.1536 0.1540 0.1544 0.1550 0.1556
3385.000000 0.1563 0.1569 0.1575 0.1581 0.1587
3380.000000 0.1594 0.1600 0.1604 0.1609 0.1613
3375.000000 0.1617 0.1621 0.1625 0.1629 0.1633
3370.000000 0.1636 0.1640 0.1642 0.1644 0.1644
3365.000000 0.1646 0.1648 0.1650 0.1651 0.1652
3360.000000 0.1654 0.1654 0.1654 0.1656 0.1656
3355.000000 0.1656 0.1654 0.1654 0.1693 0.1652
3350.000000 0.1644 0.1635 0.1628 0.1621 0.1607
3345.000000 0.1591 0.1575 0.1559 0.1545 0.1533
3340.000000 0.1522 0.1510 0.1499 0.1488 0.1476
3335.000000 0.1465 0.1453 0.1440 0.1424 0.1408
3330.000000 0.1391 0.1375 0.1359 0.1342 0.1327
3325.000000 0.1311 0.1296 0.1283 0.1270 0.1256
3320.000000 0.1242 0.1224 0.1206 0.1188 0.1170
3315.000000 0.1160 0.1156 0.1151 0.1150 0.1142
3310.000000 0.1142 0.1142 0.1142 0.1142 0.1141
3305.000000 0.1141 0.1141 0.1141 0.1140 0.1140
3300.000000 0.1140 0.1140 0.1140 0.1140 0.1141
3295.000000 0.1142 0.1142 0.1144 0.1146 0.1149
3290.000000 0.1151 0.1153 0.1156 0.1158 0.1160
3285.000000 0.1162 0.1164 0.1167 0.1170 0.1172
3280.000000 0.1176 0.1181 0.1185 0.1189 0.1194
3275.000000 0.1198 0.1202 0.1206 0.1211 0.1215
3270.000000 0.1219 0.1224 0.1228 0.1233 0.1237
3265.000000 0.1242 0.1246 0.1251 0.1256 0.1261
3260.000000 0.1266 0.1271 0.1276 0.1281 0.1286
3255.000000 0.1290 0.1295 0.1300 0.1305 0.1309
3250.000000 0.1314 0.1319 0.1324 0.1329 0.1334
3245.000000 0.1339 0.1344 0.1349 0.1354 0.1360
3240.000000 0.1365 0.1370 0.1376 0.1383 0.1390
3235.000000 0.1396 0.1404 0.1410 0.1417 0.1424
3230.000000 0.1431 0.1439 0.1446 0.1453 0.1460
3225.000000 0.1467 0.1474 0.1481 0.1488 0.1495
3220.000000 0.1502 0.1509 0.1516 0.1526 0.1538
3215.000000 0.1550 0.1562 0.1574 0.1586 0.1598
3210.000000 0.1610 0.1623 0.1636 0.1651 0.1665
3205.000000 0.1679 0.1696 0.1715 0.1732 0.1750
3200.000000 0.1766 0.1783 0.1799 0.1815 0.1829
3195.000000 0.1843 0.1857 0.1871 0.1894 0.1919
3190.000000 0.1943 0.1968 0.1994 0.2020 0.2045
3185.000000 0.2072 0.2098 0.2124 0.2150 0.2177
3180.000000 0.2203 0.2229 0.2255 0.2282 0.2308
3175.000000 0.2334 0.2361 0.2388 0.2414 0.2440
3170.000000 0.2467 0.2493 0.2520 0.2546 0.2572
3165.000000 0.2599 0.2625 0.2652 0.2678 0.2705
3160.000000 0.2731 0.2758 0.2784 0.2811 0.2838
3155.000000 0.2864 0.2891 0.2917 0.2944 0.2971
3150.000000 0.2998 0.3025 0.3052 0.3079 0.3105
3145.000000 0.3132 0.3151 0.3165 0.3178 0.3192
3140.000000 0.3205 0.3216 0.3228 0.3240 0.3252
3135.000000 0.3264 0.3276 0.3287 0.3300 0.3314
3130.000000 0.3328 0.3341 0.3357 0.3373 0.3389
3125.000000 0.3405 0.3421 0.3437 0.3453 0.3468
3120.000000 0.3486 0.3504 0.3521 0.3539 0.3558
3115.000000 0.3578 0.3597 0.3616 0.3637 0.3657
3110.000000 0.3677 0.3696 0.3714 0.3732 0.3750
3105.000000 0.3766 0.3779 0.3793 0.3807 0.3821
3100.000000 0.3834 0.3848 0.3862 0.3876 0.3890
3095.000000 0.3903 0.3916 0.3930 0.3945 0.3959
3090.000000 0.3973 0.3987 0.4000 0.4014 0.4029
3085.000000 0.4045 0.4060 0.4077 0.4093 0.4109
3080.000000 0.4126 0.4142 0.4158 0.4174 0.4190
3075.000000 0.4206 0.4224 0.4242 0.4259 0.4278
3070.000000 0.4297 0.4317 0.4337 0.4356 0.4374
3065.000000 0.4392 0.4410 0.4418 0.4422 0.4426
3060.000000 0.4430 0.4434 0.4437 0.4441 0.4444
3055.000000 0.4445 0.4447 0.4489 0.4450 0.4452
3050.000000 0.4454 0.4455 0.4456 0.4456 0.4456
3045.000000 0.4456 0.4435 0.4415 0.4394 0.4358
3040.000000 0.4295 0.4232 0.4169 0.4106 0.4043
3035.000000 0.3980 0.3916 0.3854 0.3791 0.3727
3030.000000 0.3664 0.3600 0.3538 0.3475 0.3410
3025.000000 0.3347 0.3284 0.3220 0.3157 0.3093
3020.000000 0.3029 0.2966 0.2902 0.2838 0.2775
3015.000000 0.2711 0.2647 0.2583 0.2519 0.2455
3010.000000 0.2391 0.2327 0.2262 0.2198 0.2134
3005.000000 0.2070 0.2006 0.1941 0.1877 0.1813
3000.000000 0.1748 0.1683 0.1618 0.1554 0.1489
2995.000000 0.1424 0.1360 0.1295 0.1230 0.1165
2990.000000 0.1100 0.1035 0.0970 0.0905 0.0839
2985.000000 0.0775 0.0709 0.0644 0.0579 0.0514
2980.000000 0.0449 0.0417 0.0400 0.0382 0.0365
2975.000000 0.0354 0.0343 0.0331 0.0323 0.0316
2970.000000 0.0309 0.0303 0.0298 0.0294 0.0289
2965.000000 0.0286 0.0283 0.0280 0.0277 0.0275
2960.000000 0.0273 0.0270 0.0267 0.0266 0.0264
2955.000000 0.0262 0.0261 0.0260 0.0258 0.0257
2950.000000 0.0257 0.0256 0.0256 0.0259 0.0262
2945.000000 0.0264 0.0266 0.0270 0.0273 0.0276
2940.000000 0.0280 0.0283 0.0287 0.0295 0.0304
2935.000000 0.0314 0.0324 0.0334 0.0344 0.0354
2930.000000 0.0364 0.0375 0.0386 0.0397 0.0408
2925.000000 0.0419 0.0430 0.0441 0.0452 0.0464
2920.000000 0.0475 0.0485 0.0496 0.0508 0.0521
2915.000000 0.0535 0.0549 0.0563 0.0578 0.0592
2910.000000 0.0607 0.0621 0.0635 0.0649 0.0662
2905.000000 0.0674 0.0687 0.0699 0.0711 0.0724
2900.000000 0.0736 0.0749 0.0761 0.0774 0.0786
2895.000000 0.0797 0.0809 0.0819 0.0829 0.0839
2890.000000 0.0846 0.0852 0.0857 0.0862 0.0867
2885.000000 0.0871 0.0876 0.0881 0.0886 0.0891
2880.000000 0.0895 0.0901 0.0906 0.0911 0.0916
2875.000000 0.0921 0.0926 0.0932 0.0937 0.0942
2870.000000 0.0947 0.0953 0.0959 0.0964 0.0983
2865.000000 0.1003 0.1022 0.1089 0.1178 0.1266
2860.000000 0.1365 0.1477 0.1589 0.1701 0.1813
2855.000000 0.1925 0.2036 0.2150 0.2262 0.2375
2850.000000 0.2487 0.2600 0.2713 0.2826 0.2939
2845.000000 0.3052 0.3165 0.3279 0.3392 0.3505
2840.000000 0.3618 0.3732 0.3846 0.3959 0.4073
2835.000000 0.4187 0.4287 0.4373 0.4458 0.4530
2830.000000 0.4562 0.4594 0.4626 0.4658 0.4691
2825.000000 0.4723 0.4757 0.4790 0.4824 0.4858
2820.000000 0.4893 0.4927 0.4968 0.5017 0.5065
2815.000000 0.5167 0.5384 0.5601 0.5796 0.5871
2810.000000 0.5945 0.6019 0.6065 0.6110 0.6156
2805.000000 0.6184 0.6210 0.6235 0.6262 0.6294
2800.000000 0.6324 0.6355 0.6387 0.6418 0.6448
2795.000000 0.6471 0.6496 0.6518 0.6539 0.6558
2790.000000 0.6575 0.6586 0.6596 0.6606 0.6614
2785.000000 0.6621 0.6628 0.6634 0.6638 0.6642
2780.000000 0.6644 0.6646 0.6647 0.6648 0.6649
2775.000000 0.6650 0.6651 0.6651 0.6651 0.6651
2770.000000 0.6651 0.6651 0.6651 0.6651 0.6651
2765.000000 0.6653 0.6653 0.6653 0.6651 0.6651
2760.000000 0.6651 0.6651 0.6651 0.6651 0.6651
2755.000000 0.6651 0.6651 0.6650 0.6650 0.6650
2750.000000 0.6650 0.6650 0.6650 0.6651 0.6651
2745.000000 0.6651 0.6653 0.6654 0.6655 0.6656
2740.000000 0.6658 0.6661 0.6665 0.6668 0.6671
2735.000000 0.6676 0.6686 0.6695 0.6705 0.6718
2730.000000 0.6730 0.6743 0.6755 0.6767 0.6778
2725.000000 0.6792 0.6805 0.6818 0.6831 0.6844
2720.000000 0.6857 0.6869 0.6883 0.6897 0.6910
2715.000000 0.6922 0.6936 0.6950 0.6964 0.6976
2710.000000 0.6990 0.7003 0.7015 0.7025 0.7037
2705.000000 0.7049 0.7060 0.7071 0.7082 0.7094
2700.000000 0.7105 0.7115 0.7128 0.7139 0.7150
2695.000000 0.7161 0.7172 0.7183 0.7194 0.7204
2690.000000 0.7214 0.7222 0.7233 0.7243 0.7253
2685.000000 0.7261 0.7271 0.7282 0.7292 0.7301
2680.000000 0.7311 0.7321 0.7331 0.7341 0.7351
2675.000000 0.7361 0.7371 0.7380 0.7389 0.7399
2670.000000 0.7407 0.7415 0.7424 0.7433 0.7442
2665.000000 0.7451 0.7458 0.7468 0.7476 0.7486
2660.000000 0.7495 0.7504 0.7511 0.7521 0.7530
2655.000000 0.7538 0.7547 0.7556 0.7565 0.7572
2650.000000 0.7581 0.7589 0.7596 0.7601 0.7606
2645.000000 0.7611 0.7617 0.7621 0.7626 0.7632
2640.000000 0.7637 0.7642 0.7648 0.7653 0.7658
2635.000000 0.7662 0.7668 0.7674 0.7678 0.7684
2630.000000 0.7689 0.7695 0.7698 0.7701 0.7706
2625.000000 0.7708 0.7711 0.7712 0.7715 0.7718
2620.000000 0.7721 0.7724 0.7726 0.7730 0.7732
2615.000000 0.7735 0.7737 0.7740 0.7742 0.7745
2610.000000 0.7747 0.7750 0.7753 0.7755 0.7757
2605.000000 0.7760 0.7761 0.7764 0.7765 0.7768
2600.000000 0.7771 0.7772 0.7775 0.7778 0.7781
2595.000000 0.7783 0.7785 0.7787 0.7790 0.7792
2590.000000 0.7794 0.7796 0.7798 0.7801 0.7803
2585.000000 0.7805 0.7808 0.7811 0.7812 0.7815
2580.000000 0.7818 0.7821 0.7824 0.7825 0.7828
2575.000000 0.7832 0.7835 0.7838 0.7841 0.7844
2570.000000 0.7847 0.7849 0.7851 0.7855 0.7858
2565.000000 0.7861 0.7864 0.7865 0.7868 0.7871
2560.000000 0.7875 0.7878 0.7881 0.7883 0.7886
2555.000000 0.7889 0.7891 0.7894 0.7896 0.7898
2550.000000 0.7899 0.7901 0.7903 0.7906 0.7908
2545.000000 0.7910 0.7911 0.7914 0.7915 0.7918
2540.000000 0.7921 0.7922 0.7925 0.7926 0.7928
2535.000000 0.7931 0.7933 0.7935 0.7937 0.7939
2530.000000 0.7941 0.7944 0.7946 0.7948 0.7951
2525.000000 0.7953 0.7955 0.7958 0.7960 0.7962
2520.000000 0.7965 0.7968 0.7969 0.7972 0.7975
2515.000000 0.7978 0.7980 0.7982 0.7985 0.7988
2510.000000 0.7991 0.7993 0.7995 0.7998 0.8000
2505.000000 0.8003 0.8005 0.8008 0.8011 0.8014
2500.000000 0.8017 0.8018 0.8021 0.8024 0.8026
2495.000000 0.8030 0.8033 0.8036 0.8040 0.8045
2490.000000 0.8051 0.8056 0.8061 0.8067 0.8071
2485.000000 0.8078 0.8083 0.8089 0.8094 0.8099
2480.000000 0.8104 0.8110 0.8115 0.8119 0.8125
2475.000000 0.8132 0.8138 0.8144 0.8151 0.8158
2470.000000 0.8165 0.8171 0.8178 0.8185 0.8192
2465.000000 0.8199 0.8205 0.8212 0.8218 0.8225
2460.000000 0.8233 0.8240 0.8247 0.8254 0.8260
2455.000000 0.8266 0.8271 0.8277 0.8282 0.8287
2450.000000 0.8293 0.8298 0.8304 0.8309 0.8314
2445.000000 0.8318 0.8324 0.8330 0.8335 0.8341
2440.000000 0.8346 0.8352 0.8357 0.8362 0.8367
2435.000000 0.8373 0.8378 0.8384 0.8390 0.8395
2430.000000 0.8401 0.8406 0.8412 0.8418 0.8423
2425.000000 0.8428 0.8434 0.8440 0.8446 0.8452
2420.000000 0.8457 0.8463 0.8468 0.8474 0.8478
2415.000000 0.8485 0.8489 0.8494 0.8498 0.8502
2410.000000 0.8506 0.8510 0.8514 0.8518 0.8521
2405.000000 0.8525 0.8530 0.8534 0.8538 0.8543
2400.000000 0.8547 0.8550 0.8553 0.8556 0.8559
2395.000000 0.8561 0.8563 0.8565 0.8567 0.8568
2390.000000 0.8571 0.8574 0.8575 0.8578 0.8580
2385.000000 0.8583 0.8584 0.8585 0.8584 0.8583
2380.000000 0.8580 0.8575 0.8574 0.8571 0.8568
2375.000000 0.8566 0.8563 0.8562 0.8561 0.8559
2370.000000 0.8557 0.8557 0.8557 0.8557 0.8558
2365.000000 0.8560 0.8561 0.8562 0.8564 0.8565
2360.000000 0.8566 0.8567 0.8568 0.8571 0.8575
2355.000000 0.8580 0.8584 0.8588 0.8592 0.8596
2350.000000 0.8600 0.8604 0.8608 0.8612 0.8616
2345.000000 0.8620 0.8624 0.8628 0.8633 0.8637
2340.000000 0.8640 0.8643 0.8646 0.8649 0.8652
2335.000000 0.8654 0.8656 0.8659 0.8662 0.8665
2330.000000 0.8667 0.8670 0.8673 0.8675 0.8678
2325.000000 0.8681 0.8684 0.8687 0.8689 0.8692
2320.000000 0.8694 0.8696 0.8698 0.8699 0.8701
2315.000000 0.8703 0.8705 0.8706 0.8708 0.8710
2310.000000 0.8712 0.8713 0.8715 0.8717 0.8718
2305.000000 0.8720 0.8721 0.8724 0.8725 0.8727
2300.000000 0.8728 0.8731 0.8732 0.8733 0.8734
2295.000000 0.8735 0.8736 0.8737 0.8738 0.8739
2290.000000 0.8739 0.8740 0.8741 0.8742 0.8743
2285.000000 0.8744 0.8745 0.8746 0.8746 0.8745
2280.000000 0.8745 0.8744 0.8743 0.8742 0.8741
2275.000000 0.8740 0.8739 0.8738 0.8737 0.8736
2270.000000 0.8735 0.8734 0.8733 0.8732 0.8730
2265.000000 0.8728 0.8725 0.8724 0.8721 0.8720
2260.000000 0.8718 0.8715 0.8713 0.8711 0.8709
2255.000000 0.8706 0.8704 0.8702 0.8700 0.8697
2250.000000 0.8695 0.8694 0.8694 0.8694 0.8693
2245.000000 0.8693 0.8692 0.8692 0.8692 0.8692
2240.000000 0.8691 0.8691 0.8691 0.8691 0.8691
2235.000000 0.8692 0.8694 0.8696 0.8699 0.8701
2230.000000 0.8704 0.8706 0.8709 0.8711 0.8714
2225.000000 0.8716 0.8718 0.8721 0.8724 0.8727
2220.000000 0.8728 0.8731 0.8733 0.8736 0.8738
2215.000000 0.8741 0.8743 0.8746 0.8749 0.8752
2210.000000 0.8755 0.8759 0.8762 0.8765 0.8768
2205.000000 0.8771 0.8774 0.8777 0.8780 0.8784
2200.000000 0.8787 0.8790 0.8793 0.8796 0.8799
2195.000000 0.8802 0.8805 0.8807 0.8810 0.8812
2190.000000 0.8814 0.8817 0.8818 0.8821 0.8824
2185.000000 0.8825 0.8828 0.8832 0.8834 0.8837
2180.000000 0.8839 0.8841 0.8843 0.8844 0.8844
2175.000000 0.8845 0.8846 0.8847 0.8849 0.8849
2170.000000 0.8850 0.8851 0.8852 0.8853 0.8854
2165.000000 0.8854 0.8855 0.8856 0.8856 0.8856
2160.000000 0.8855 0.8855 0.8855 0.8854 0.8854
2155.000000 0.8853 0.8853 0.8853 0.8853 0.8853
2150.000000 0.8854 0.8855 0.8855 0.8856 0.8857
2145.000000 0.8859 0.8860 0.8860 0.8861 0.8862
2140.000000 0.8863 0.8863 0.8864 0.8865 0.8866
2135.000000 0.8866 0.8868 0.8868 0.8870 0.8871
2130.000000 0.8874 0.8875 0.8878 0.8880 0.8881
2125.000000 0.8883 0.8886 0.8887 0.8889 0.8891
2120.000000 0.8893 0.8895 0.8897 0.8899 0.8901
2115.000000 0.8904 0.8905 0.8907 0.8909 0.8912
2110.000000 0.8914 0.8916 0.8917 0.8920 0.8921
2105.000000 0.8924 0.8925 0.8928 0.8931 0.8932
2100.000000 0.8934 0.8937 0.8939 0.8941 0.8943
2095.000000 0.8945 0.8947 0.8949 0.8952 0.8954
2090.000000 0.8956 0.8958 0.8960 0.8962 0.8963
2085.000000 0.8965 0.8966 0.8967 0.8968 0.8968
2080.000000 0.8968 0.8968 0.8968 0.8966 0.8964
2075.000000 0.8962 0.8960 0.8959 0.8956 0.8953
2070.000000 0.8950 0.8947 0.8944 0.8941 0.8938
2065.000000 0.8935 0.8932 0.8928 0.8925 0.8923
2060.000000 0.8921 0.8918 0.8915 0.8913 0.8910
2055.000000 0.8907 0.8904 0.8902 0.8899 0.8896
2050.000000 0.8894 0.8894 0.8894 0.8894 0.8894
2045.000000 0.8894 0.8895 0.8895 0.8896 0.8897
2040.000000 0.8898 0.8899 0.8899 0.8900 0.8901
2035.000000 0.8902 0.8903 0.8903 0.8904 0.8905
2030.000000 0.8906 0.8907 0.8907 0.8908 0.8909
2025.000000 0.8910 0.8911 0.8911 0.8912 0.8914
2020.000000 0.8914 0.8914 0.8914 0.8915 0.8915
2015.000000 0.8915 0.8916 0.8916 0.8916 0.8916
2010.000000 0.8916 0.8917 0.8917 0.8917 0.8918
2005.000000 0.8918 0.8918 0.8918 0.8918 0.8918
2000.000000 0.8918 0.8918 0.8920 0.8920 0.8918
1995.000000 0.8918 0.8918 0.8917 0.8916 0.8916
1990.000000 0.8915 0.8915 0.8914 0.8913 0.8913
1985.000000 0.8912 0.8911 0.8911 0.8910 0.8910
1980.000000 0.8909 0.8908 0.8908 0.8907 0.8906
1975.000000 0.8906 0.8905 0.8904 0.8904 0.8903
1970.000000 0.8902 0.8902 0.8901 0.8901 0.8900
1965.000000 0.8899 0.8897 0.8895 0.8894 0.8892
1960.000000 0.8890 0.8888 0.8886 0.8884 0.8882
1955.000000 0.8880 0.8878 0.8877 0.8875 0.8873
1950.000000 0.8871 0.8868 0.8867 0.8865 0.8863
1945.000000 0.8862 0.8860 0.8858 0.8857 0.8855
1940.000000 0.8851 0.8848 0.8846 0.8842 0.8839
1935.000000 0.8837 0.8833 0.8830 0.8828 0.8824
1930.000000 0.8821 0.8818 0.8816 0.8813 0.8809
1925.000000 0.8806 0.8802 0.8798 0.8794 0.8790
1920.000000 0.8786 0.8782 0.8778 0.8774 0.8770
1915.000000 0.8766 0.8762 0.8757 0.8753 0.8749
1910.000000 0.8745 0.8740 0.8734 0.8728 0.8721
1905.000000 0.8716 0.8710 0.8704 0.8698 0.8692
1900.000000 0.8685 0.8678 0.8670 0.8662 0.8654
1895.000000 0.8645 0.8637 0.8628 0.8618 0.8611
1890.000000 0.8602 0.8594 0.8586 0.8577 0.8567
1885.000000 0.8556 0.8545 0.8533 0.8521 0.8510
1880.000000 0.8498 0.8487 0.8475 0.8463 0.8452
1875.000000 0.8440 0.8428 0.8417 0.8406 0.8398
1870.000000 0.8391 0.8383 0.8375 0.8368 0.8361
1865.000000 0.8354 0.8346 0.8339 0.8332 0.8324
1860.000000 0.8317 0.8309 0.8300 0.8291 0.8282
1855.000000 0.8273 0.8264 0.8256 0.8247 0.8237
1850.000000 0.8228 0.8218 0.8208 0.8198 0.8188
1845.000000 0.8176 0.8167 0.8157 0.8146 0.8135
1840.000000 0.8125 0.8110 0.8092 0.8075 0.8058
1835.000000 0.8040 0.8021 0.8003 0.7980 0.7957
1830.000000 0.7935 0.7911 0.7889 0.7865 0.7843
1825.000000 0.7819 0.7791 0.7761 0.7732 0.7701
1820.000000 0.7672 0.7647 0.7624 0.7605 0.7586
1815.000000 0.7567 0.7548 0.7528 0.7510 0.7491
1810.000000 0.7471 0.7453 0.7434 0.7415 0.7397
1805.000000 0.7378 0.7358 0.7337 0.7312 0.7289
1800.000000 0.7264 0.7239 0.7214 0.7189 0.7164
1795.000000 0.7118 0.7065 0.7008 0.6944 0.6868
1790.000000 0.6811 0.6765 0.6725 0.6684 0.6643
1785.000000 0.6612 0.6588 0.6565 0.6542 0.6518
1780.000000 0.6496 0.6471 0.6449 0.6425 0.6398
1775.000000 0.6371 0.6344 0.6317 0.6290 0.6262
1770.000000 0.6232 0.6197 0.6154 0.6110 0.6066
1765.000000 0.6022 0.5979 0.5939 0.5903 0.5867
1760.000000 0.5831 0.5795 0.5758 0.5723 0.5668
1755.000000 0.5610 0.5551 0.5491 0.5427 0.5360
1750.000000 0.5293 0.5225 0.5152 0.5064 0.4973
1745.000000 0.4882 0.4803 0.4734 0.4667 0.4598
1740.000000 0.4527 0.4456 0.4395 0.4351 0.4317
1735.000000 0.4283 0.4248 0.4214 0.4167 0.4098
1730.000000 0.4002 0.3905 0.3791 0.3714 0.3659
1725.000000 0.3609 0.3559 0.3507 0.3421 0.3372
1720.000000 0.3255 0.3117 0.3042 0.3000 0.2966
1715.000000 0.2884 0.2818 0.2763 0.2721 0.2698
1710.000000 0.2674 0.2632 0.2589 0.2545 0.2498
1705.000000 0.2448 0.2398 0.2348 0.2240 0.2102
1700.000000 0.1949 0.1815 0.1721 0.1665 0.1632
1695.000000 0.1627 0.1623 0.1617 0.1612 0.1606
1690.000000 0.1598 0.1591 0.1583 0.1552 0.1508
1685.000000 0.1462 0.1420 0.1380 0.1342 0.1306
1680.000000 0.1269 0.1233 0.1206 0.1178 0.1151
1675.000000 0.1124 0.1098 0.1073 0.1054 0.1034
1670.000000 0.1014 0.0993 0.0982 0.0971 0.0963
1665.000000 0.0960 0.0960 0.0959 0.0959 0.0963
1660.000000 0.0969 0.0972 0.0979 0.0983 0.0984
1655.000000 0.0984 0.0984 0.0974 0.0872 0.0931
1650.000000 0.0909 0.0893 0.0881 0.0871 0.0871
1645.000000 0.0875 0.0884 0.0893 0.0904 0.0921
1640.000000 0.0946 0.0972 0.0999 0.1028 0.1064
1635.000000 0.1100 0.1130 0.1155 0.1181 0.1206
1630.000000 0.1232 0.1257 0.1282 0.1300 0.1312
1625.000000 0.1320 0.1326 0.1364 0.1333 0.1329
1620.000000 0.1324 0.1311 0.1255 0.1188 0.1121
1615.000000 0.1073 0.1028 0.0982 0.0937 0.0902
1610.000000 0.0872 0.0843 0.0815 0.0786 0.0757
1605.000000 0.0728 0.0701 0.0673 0.0646 0.0619
1600.000000 0.0596 0.0580 0.0568 0.0559 0.0549
1595.000000 0.0540 0.0531 0.0523 0.0518 0.0515
1590.000000 0.0490 0.0509 0.0505 0.0502 0.0499
1585.000000 0.0499 0.0500 0.0502 0.0505 0.0508
1580.000000 0.0512 0.0520 0.0529 0.0538 0.0548
1575.000000 0.0557 0.0568 0.0584 0.0603 0.0622
1570.000000 0.0642 0.0663 0.0688 0.0714 0.0739
1565.000000 0.0765 0.0795 0.0828 0.0861 0.0893
1560.000000 0.0926 0.0963 0.1006 0.1053 0.1099
1555.000000 0.1142 0.1183 0.1223 0.1263 0.1303
1550.000000 0.1342 0.1383 0.1426 0.1471 0.1517
1545.000000 0.1562 0.1608 0.1654 0.1706 0.1759
1540.000000 0.1811 0.1864 0.1920 0.1982 0.2044
1535.000000 0.2106 0.2175 0.2258 0.2346 0.2427
1530.000000 0.2501 0.2567 0.2626 0.2677 0.2726
1525.000000 0.2777 0.2827 0.2877 0.2928 0.2978
1520.000000 0.3028 0.3078 0.3129 0.3180 0.3230
1515.000000 0.3280 0.3332 0.3382 0.3434 0.3484
1510.000000 0.3536 0.3587 0.3638 0.3690 0.3741
1505.000000 0.3793 0.3844 0.3884 0.3896 0.3904
1500.000000 0.3912 0.3914 0.3914 0.3937 0.3910
1495.000000 0.3904 0.3897 0.3891 0.3880 0.3864
1490.000000 0.3848 0.3826 0.3798 0.3766 0.3728
1485.000000 0.3673 0.3560 0.3404 0.3241 0.3079
1480.000000 0.2915 0.2752 0.2589 0.2425 0.2262
1475.000000 0.2152 0.2134 0.2124 0.2117 0.2112
1470.000000 0.2129 0.2144 0.2160 0.2179 0.2215
1465.000000 0.2251 0.2289 0.2327 0.2367 0.2473
1460.000000 0.2572 0.2671 0.2770 0.2870 0.2970
1455.000000 0.3070 0.3170 0.3270 0.3370 0.3470
1450.000000 0.3571 0.3671 0.3772 0.3873 0.3974
1445.000000 0.4075 0.4176 0.4278 0.4380 0.4437
1440.000000 0.4436 0.4435 0.4399 0.4245 0.4047
1435.000000 0.3849 0.3650 0.3452 0.3253 0.3055
1430.000000 0.2904 0.2863 0.2896 0.2903 0.2923
1425.000000 0.3020 0.3118 0.3216 0.3312 0.3412
1420.000000 0.3509 0.3609 0.3707 0.3805 0.3904
1415.000000 0.4003 0.4102 0.4201 0.4301 0.4400
1410.000000 0.4460 0.4471 0.4479 0.4486 0.4492
1405.000000 0.4496 0.4516 0.4501 0.4501 0.4501
1400.000000 0.4498 0.4494 0.4489 0.4479 0.4460
1395.000000 0.4423 0.4336 0.4201 0.4066 0.3930
1390.000000 0.3795 0.3659 0.3523 0.3387 0.3250
1385.000000 0.3114 0.2859 0.2546 0.2489 0.2448
1380.000000 0.2407 0.2367 0.2334 0.2302 0.2270
1375.000000 0.2237 0.2207 0.2177 0.2144 0.2112
1370.000000 0.2097 0.2067 0.2079 0.2074 0.2074
1365.000000 0.2074 0.2076 0.2084 0.2093 0.2104
1360.000000 0.2115 0.2128 0.2141 0.2169 0.2204
1355.000000 0.2238 0.2280 0.2331 0.2382 0.2435
1350.000000 0.2490 0.2544 0.2598 0.2653 0.2710
1345.000000 0.2768 0.2826 0.2884 0.2943 0.3044
1340.000000 0.3149 0.3230 0.3302 0.3372 0.3450
1335.000000 0.3537 0.3624 0.3707 0.3777 0.3845
1330.000000 0.3912 0.3982 0.4057 0.4131 0.4208
1325.000000 0.4285 0.4362 0.4431 0.4495 0.4559
1320.000000 0.4624 0.4673 0.4709 0.4745 0.4781
1315.000000 0.4814 0.4845 0.4877 0.4909 0.4941
1310.000000 0.4973 0.5005 0.5039 0.5072 0.5105
1305.000000 0.5139 0.5165 0.5187 0.5208 0.5230
1300.000000 0.5252 0.5273 0.5294 0.5314 0.5334
1295.000000 0.5354 0.5373 0.5392 0.5408 0.5420
1290.000000 0.5430 0.5440 0.5449 0.5460 0.5470
1285.000000 0.5479 0.5489 0.5499 0.5508 0.5517
1280.000000 0.5525 0.5533 0.5541 0.5550 0.5558
1275.000000 0.5566 0.5574 0.5583 0.5591 0.5599
1270.000000 0.5607 0.5616 0.5625 0.5638 0.5650
1265.000000 0.5662 0.5676 0.5689 0.5701 0.5714
1260.000000 0.5728 0.5740 0.5753 0.5766 0.5779
1255.000000 0.5792 0.5804 0.5816 0.5829 0.5841
1250.000000 0.5854 0.5866 0.5878 0.5890 0.5899
1245.000000 0.5907 0.5914 0.5922 0.5930 0.5937
1240.000000 0.5942 0.5948 0.5954 0.5960 0.5965
1235.000000 0.5971 0.5972 0.5972 0.5973 0.5973
1230.000000 0.5973 0.5974 0.5974 0.5968 0.5960
1225.000000 0.5953 0.5946 0.5939 0.5931 0.5924
1220.000000 0.5915 0.5901 0.5886 0.5872 0.5857
1215.000000 0.5843 0.5829 0.5814 0.5794 0.5774
1210.000000 0.5752 0.5731 0.5710 0.5682 0.5654
1205.000000 0.5625 0.5596 0.5568 0.5539 0.5509
1200.000000 0.5479 0.5449 0.5419 0.5387 0.5354
1195.000000 0.5322 0.5288 0.5252 0.5201 0.5147
1190.000000 0.5082 0.5012 0.4941 0.4849 0.4741
1185.000000 0.4627 0.4535 0.4464 0.4373 0.4190
1180.000000 0.4007 0.3823 0.3638 0.3454 0.3268
1175.000000 0.3083 0.2884 0.2767 0.2690 0.2640
1170.000000 0.2621 0.2573 0.2615 0.2633 0.2661
1165.000000 0.2710 0.2761 0.2817 0.2888 0.2961
1160.000000 0.3033 0.3106 0.3178 0.3278 0.3400
1155.000000 0.3529 0.3674 0.3818 0.3964 0.4108
1150.000000 0.4252 0.4396 0.4534 0.4632 0.4725
1145.000000 0.4818 0.4912 0.4995 0.5067 0.5139
1140.000000 0.5210 0.5254 0.5289 0.5323 0.5357
1135.000000 0.5387 0.5415 0.5442 0.5469 0.5493
1130.000000 0.5515 0.5537 0.5552 0.5559 0.5568
1125.000000 0.5550 0.5532 0.5512 0.5494 0.5467
1120.000000 0.5440 0.5412 0.5385 0.5358 0.5329
1115.000000 0.5301 0.5273 0.5245 0.5229 0.5212
1110.000000 0.5196 0.5172 0.5192 0.5193 0.5200
1105.000000 0.5224 0.5247 0.5272 0.5295 0.5323
1100.000000 0.5360 0.5399 0.5436 0.5474 0.5510
1095.000000 0.5541 0.5572 0.5603 0.5634 0.5666
1090.000000 0.5697 0.5729 0.5760 0.5788 0.5816
1085.000000 0.5843 0.5871 0.5899 0.5923 0.5946
1080.000000 0.5969 0.5993 0.6016 0.6036 0.6054
1075.000000 0.6069 0.6071 0.6072 0.6075 0.6082
1070.000000 0.6089 0.6096 0.6103 0.6114 0.6129
1065.000000 0.6144 0.6160 0.6175 0.6192 0.6205
1060.000000 0.6212 0.6223 0.6233 0.6242 0.6252
1055.000000 0.6260 0.6265 0.6269 0.6273 0.6278
1050.000000 0.6281 0.6280 0.6279 0.6278 0.6277
1045.000000 0.6277 0.6283 0.6290 0.6298 0.6305
1040.000000 0.6312 0.6321 0.6329 0.6335 0.6333
1035.000000 0.6331 0.6329 0.6328 0.6328 0.6328
1030.000000 0.6327 0.6327 0.6327 0.6327 0.6325
1025.000000 0.6322 0.6322 0.6322 0.6331 0.6341
1020.000000 0.6350 0.6360 0.6370 0.6380 0.6389
1015.000000 0.6398 0.6405 0.6411 0.6418 0.6425
1010.000000 0.6431 0.6438 0.6444 0.6451 0.6464
1005.000000 0.6490 0.6525 0.6565 0.6606 0.6647
1000.000000 0.6691 0.6735 0.6769 0.6801 0.6835
995.000000 0.6856 0.6869 0.6884 0.6898 0.6906
990.000000 0.6911 0.6917 0.6925 0.6936 0.6945
985.000000 0.6955 0.6975 0.6998 0.7022 0.7054
980.000000 0.7078 0.7092 0.7105 0.7118 0.7131
975.000000 0.7145 0.7160 0.7178 0.7197 0.7215
970.000000 0.7235 0.7254 0.7269 0.7286 0.7301
965.000000 0.7318 0.7335 0.7351 0.7367 0.7383
960.000000 0.7400 0.7417 0.7433 0.7450 0.7467
955.000000 0.7484 0.7499 0.7514 0.7528 0.7544
950.000000 0.7558 0.7574 0.7589 0.7603 0.7615
945.000000 0.7628 0.7641 0.7653 0.7665 0.7678
940.000000 0.7690 0.7704 0.7718 0.7732 0.7746
935.000000 0.7760 0.7775 0.7789 0.7804 0.7818
930.000000 0.7831 0.7844 0.7856 0.7868 0.7884
925.000000 0.7899 0.7903 0.7906 0.7910 0.7915
920.000000 0.7905 0.7895 0.7872 0.7862 0.7858
915.000000 0.7860 0.7871 0.7894 0.7908 0.7915
910.000000 0.7881 0.7808 0.7739 0.7696 0.7682
905.000000 0.7668 0.7665 0.7686 0.7700 0.7726
900.000000 0.7756 0.7787 0.7821 0.7854 0.7888
895.000000 0.7921 0.7949 0.7975 0.8003 0.8025
890.000000 0.8043 0.8061 0.8078 0.8096 0.8114
885.000000 0.8128 0.8144 0.8160 0.8175 0.8190
880.000000 0.8206 0.8221 0.8237 0.8254 0.8268
875.000000 0.8281 0.8285 0.8290 0.8294 0.8295
870.000000 0.8295 0.8294 0.8294 0.8294 0.8291
865.000000 0.8288 0.8286 0.8283 0.8280 0.8278
860.000000 0.8277 0.8275 0.8275 0.8274 0.8273
855.000000 0.8270 0.8263 0.8256 0.8249 0.8243
850.000000 0.8237 0.8234 0.8233 0.8232 0.8230
845.000000 0.8228 0.8228 0.8228 0.8228 0.8228
840.000000 0.8225 0.8223 0.8218 0.8216 0.8213
835.000000 0.8213 0.8213 0.8214 0.8215 0.8217
830.000000 0.8218 0.8218 0.8218 0.8216 0.8200
825.000000 0.8180 0.8161 0.8144 0.8125 0.8108
820.000000 0.8091 0.8072 0.8064 0.8060 0.8055
815.000000 0.8050 0.8045 0.8040 0.8032 0.8022
810.000000 0.8014 0.8000 0.7983 0.7968 0.7948
805.000000 0.7926 0.7905 0.7878 0.7850 0.7819
800.000000 0.7792 0.7765 0.7741 0.7710 0.7680
795.000000 0.7650 0.7624 0.7594 0.7528 0.7433
790.000000 0.7308 0.7180 0.7043 0.6795 0.6550
785.000000 0.6305 0.6059 0.5812 0.5659 0.5581
780.000000 0.5594 0.5679 0.5798 0.5942 0.6102
775.000000 0.6248 0.6391 0.6525 0.6651 0.6756
770.000000 0.6815 0.6858 0.6890 0.6939 0.6985
765.000000 0.7011 0.7024 0.7036 0.7047 0.7058
760.000000 0.7058 0.7083 0.7041 0.7028 0.7021
755.000000 0.7012 0.7005 0.6990 0.6975 0.6961
750.000000 0.6937 0.6905 0.6872 0.6841 0.6808
745.000000 0.6772 0.6732 0.6676 0.6625 0.6572
740.000000 0.6521 0.6472 0.6428 0.6381 0.6336
735.000000 0.6297 0.6258 0.6212 0.6168 0.6121
730.000000 0.6074 0.6027 0.5980 0.5930 0.5878
725.000000 0.5812 0.5740 0.5680 0.5630 0.5581
720.000000 0.5537 0.5504 0.5480 0.5474 0.5469
715.000000 0.5498 0.5462 0.5460 0.5458 0.5474
710.000000 0.5493 0.5514 0.5550 0.5585 0.5619
705.000000 0.5651 0.5683 0.5717 0.5749 0.5765
700.000000 0.5781 0.5795 0.5805 0.5815 0.5816
695.000000 0.5817 0.5823 0.5833 0.5842 0.5852
690.000000 0.5862 0.5871 0.5879 0.5887 0.5886
685.000000 0.5886 0.5882 0.5875 0.5870 0.5869
680.000000 0.5868 0.5910 0.5840 0.5784 0.5737
675.000000 0.5697 0.5655 0.5619 0.5588 0.5553
670.000000 0.5510 0.5471 0.5433 0.5396 0.5360
665.000000 0.5351 0.5340 0.5322 0.5220 0.5126
660.000000 0.5040 0.4962 0.4882 0.4798 0.4733
655.000000 0.4708 0.4714 0.4718 0.4703 0.4734
650.000000 0.4780 0.4810 0.4834 0.4881 0.4954
645.000000 0.5010 0.5057 0.5087 0.5110 0.5129
640.000000 0.5140 0.5148 0.5156 0.5175 0.5206
635.000000 0.5241 0.5275 0.5310 0.5335 0.5356
630.000000 0.5377 0.5385 0.5397 0.5412 0.5412
##END=
