##TITLE=GLYCOLAMIDE
##JCAMP-DX=4.24
##DATA TYPE=INFRARED SPECTRUM
##CLASS=COBLENTZ III
##ORIGIN=DOW CHEMICAL COMPANY
##OWNER=COBLENTZ SOC.
Collection (C) 2018 copyright by the U.S. Secretary of Commerce
on behalf of the United States of America. All rights reserved.
##DATE=1964/06/24
##NAMES=2-hydroxyacetamide
##CAS REGISTRY NO=598-42-5
##MOLFORM=C2 H5 N O2
##SOURCE REFERENCE=COBLENTZ NO. 06636
##$NIST SOURCE=COBLENTZ
##$NIST IMAGE=cob6636
##SPECTROMETER/DATA SYSTEM=DOW KBr FOREPRISM-GRATING
##INSTRUMENT PARAMETERS=BLAZED AT 3.5, 12.0, 20.0 MICRON AND CHANGED AT 5.0, 7.5, 14.9 MICRON
##STATE=SOLID (SPLIT MULL)
##SAMPLING PROCEDURE=TRANSMISSION
##RESOLUTION=2
##DATA PROCESSING=DIGITIZED BY COBLENTZ SOCIETY (BATCH I) FROM HARD COPY
##XUNITS=1/CM
##YUNITS=TRANSMITTANCE
##XLABEL=Wavenumbers (cm-1)
##YLABEL=% Transmission
##XFACTOR=1
##YFACTOR=1
##DELTAX=1
##FIRSTX=382
##LASTX=3797
##FIRSTY=0.8896
##MAXX=3797
##MINX=382
##MAXY=0.9928
##MINY=0.0407
##NPOINTS=3416
##XYDATA=(X++(Y..Y))
382.000000 0.8896 0.8898 0.8900 0.8901 0.8902
387.000000 0.8903 0.8904 0.8904 0.8905 0.8906
392.000000 0.8907 0.8908 0.8909 0.8911 0.8913
397.000000 0.8915 0.8918 0.8920 0.8924 0.8930
402.000000 0.8935 0.8941 0.8946 0.8952 0.8959
407.000000 0.8966 0.8973 0.8980 0.8989 0.9000
412.000000 0.9010 0.9020 0.9031 0.9041 0.9051
417.000000 0.9059 0.9066 0.9074 0.9081 0.9088
422.000000 0.9095 0.9102 0.9109 0.9117 0.9124
427.000000 0.9132 0.9139 0.9147 0.9154 0.9161
432.000000 0.9167 0.9173 0.9178 0.9184 0.9190
437.000000 0.9196 0.9202 0.9207 0.9213 0.9218
442.000000 0.9225 0.9230 0.9236 0.9242 0.9248
447.000000 0.9254 0.9259 0.9265 0.9271 0.9275
452.000000 0.9278 0.9283 0.9288 0.9292 0.9293
457.000000 0.9294 0.9295 0.9296 0.9297 0.9299
462.000000 0.9301 0.9303 0.9305 0.9307 0.9308
467.000000 0.9309 0.9311 0.9312 0.9313 0.9317
472.000000 0.9321 0.9327 0.9333 0.9338 0.9346
477.000000 0.9355 0.9364 0.9371 0.9381 0.9391
482.000000 0.9400 0.9410 0.9418 0.9428 0.9439
487.000000 0.9442 0.9418 0.9448 0.9451 0.9445
492.000000 0.9439 0.9433 0.9423 0.9410 0.9397
497.000000 0.9382 0.9362 0.9342 0.9321 0.9301
502.000000 0.9274 0.9246 0.9218 0.9189 0.9151
507.000000 0.9113 0.9060 0.8962 0.8859 0.8709
512.000000 0.8504 0.8370 0.7784 0.7080 0.6376
517.000000 0.5515 0.5490 0.5664 0.6721 0.7778
522.000000 0.8844 0.9002 0.9168 0.9241 0.9273
527.000000 0.9300 0.9275 0.9321 0.9314 0.9302
532.000000 0.9288 0.9260 0.9230 0.9191 0.9143
537.000000 0.9081 0.9013 0.8940 0.8793 0.8375
542.000000 0.7957 0.7438 0.7425 0.7435 0.7625
547.000000 0.7903 0.8180 0.8457 0.8734 0.9011
552.000000 0.9168 0.9216 0.9237 0.9248 0.9260
557.000000 0.9260 0.9260 0.9260 0.9259 0.9250
562.000000 0.9241 0.9233 0.9224 0.9212 0.9200
567.000000 0.9187 0.9174 0.9161 0.9147 0.9128
572.000000 0.9109 0.9088 0.9064 0.9039 0.9015
577.000000 0.8990 0.8966 0.8923 0.8878 0.8828
582.000000 0.8760 0.8692 0.8586 0.8443 0.8286
587.000000 0.8155 0.7747 0.7356 0.6964 0.6302
592.000000 0.6319 0.6318 0.6398 0.6691 0.6984
597.000000 0.7278 0.7571 0.7864 0.8157 0.8435
602.000000 0.8418 0.8418 0.8415 0.8412 0.8407
607.000000 0.8398 0.8387 0.8375 0.8357 0.8339
612.000000 0.8317 0.8295 0.8274 0.8253 0.8232
617.000000 0.8212 0.8189 0.8165 0.8141 0.8118
622.000000 0.8091 0.8061 0.8004 0.7937 0.7868
627.000000 0.7801 0.7734 0.7667 0.7600 0.7532
632.000000 0.7465 0.7397 0.7330 0.7261 0.7195
637.000000 0.7126 0.7068 0.7031 0.6994 0.6957
642.000000 0.6895 0.6826 0.6757 0.6685 0.6612
647.000000 0.6540 0.6465 0.6393 0.6266 0.6120
652.000000 0.6036 0.5952 0.5853 0.5731 0.5614
657.000000 0.5502 0.5396 0.5285 0.5157 0.5051
662.000000 0.4946 0.4854 0.4760 0.4646 0.4515
667.000000 0.4407 0.4307 0.4222 0.4138 0.4053
672.000000 0.3966 0.3825 0.3687 0.3592 0.3497
677.000000 0.3400 0.3300 0.3202 0.3132 0.3062
682.000000 0.3010 0.2972 0.2934 0.2903 0.2880
687.000000 0.2857 0.2840 0.2828 0.2817 0.2806
692.000000 0.2798 0.2804 0.2792 0.2789 0.2790
697.000000 0.2790 0.2797 0.2810 0.2822 0.2834
702.000000 0.2850 0.2871 0.2891 0.2927 0.2967
707.000000 0.3010 0.3059 0.3117 0.3174 0.3230
712.000000 0.3287 0.3343 0.3400 0.3457 0.3512
717.000000 0.3562 0.3614 0.3664 0.3712 0.3760
722.000000 0.3808 0.3856 0.3908 0.3962 0.4016
727.000000 0.4070 0.4127 0.4192 0.4257 0.4323
732.000000 0.4394 0.4466 0.4528 0.4590 0.4650
737.000000 0.4710 0.4762 0.4801 0.4840 0.4880
742.000000 0.4916 0.4949 0.4982 0.5014 0.5046
747.000000 0.5077 0.5110 0.5143 0.5177 0.5237
752.000000 0.5341 0.5449 0.5551 0.5654 0.5744
757.000000 0.5826 0.5935 0.6028 0.6120 0.6212
762.000000 0.6305 0.6397 0.6489 0.6582 0.6674
767.000000 0.6767 0.6858 0.7015 0.7084 0.7151
772.000000 0.7218 0.7310 0.7401 0.7478 0.7554
777.000000 0.7630 0.7710 0.7792 0.7874 0.7956
782.000000 0.8048 0.8141 0.8232 0.8286 0.8339
787.000000 0.8393 0.8431 0.8461 0.8491 0.8521
792.000000 0.8551 0.8571 0.8586 0.8601 0.8616
797.000000 0.8631 0.8646 0.8656 0.8666 0.8675
802.000000 0.8685 0.8694 0.8701 0.8707 0.8712
807.000000 0.8718 0.8723 0.8723 0.8723 0.8723
812.000000 0.8723 0.8723 0.8718 0.8711 0.8703
817.000000 0.8696 0.8684 0.8662 0.8641 0.8618
822.000000 0.8597 0.8568 0.8539 0.8509 0.8480
827.000000 0.8451 0.8425 0.8398 0.8371 0.8345
832.000000 0.8324 0.8298 0.8310 0.8325 0.8343
837.000000 0.8381 0.8424 0.8468 0.8513 0.8568
842.000000 0.8625 0.8681 0.8731 0.8782 0.8832
847.000000 0.8881 0.8924 0.8959 0.8994 0.9028
852.000000 0.9054 0.9075 0.9097 0.9118 0.9141
857.000000 0.9163 0.9184 0.9206 0.9224 0.9238
862.000000 0.9252 0.9253 0.9255 0.9256 0.9252
867.000000 0.9249 0.9245 0.9239 0.9231 0.9223
872.000000 0.9215 0.9213 0.9211 0.9224 0.9240
877.000000 0.9275 0.9315 0.9358 0.9401 0.9444
882.000000 0.9481 0.9497 0.9486 0.9475 0.9473
887.000000 0.9468 0.9470 0.9471 0.9482 0.9496
892.000000 0.9510 0.9525 0.9540 0.9549 0.9553
897.000000 0.9556 0.9559 0.9563 0.9566 0.9568
902.000000 0.9568 0.9568 0.9568 0.9568 0.9568
907.000000 0.9568 0.9566 0.9563 0.9560 0.9558
912.000000 0.9555 0.9552 0.9549 0.9547 0.9544
917.000000 0.9541 0.9538 0.9535 0.9532 0.9528
922.000000 0.9525 0.9523 0.9520 0.9517 0.9513
927.000000 0.9509 0.9504 0.9500 0.9495 0.9491
932.000000 0.9487 0.9482 0.9474 0.9467 0.9459
937.000000 0.9452 0.9444 0.9437 0.9430 0.9421
942.000000 0.9415 0.9408 0.9400 0.9393 0.9385
947.000000 0.9378 0.9371 0.9363 0.9356 0.9350
952.000000 0.9344 0.9337 0.9331 0.9324 0.9318
957.000000 0.9311 0.9305 0.9299 0.9292 0.9284
962.000000 0.9275 0.9266 0.9257 0.9248 0.9239
967.000000 0.9230 0.9221 0.9208 0.9191 0.9174
972.000000 0.9158 0.9141 0.9124 0.9107 0.9084
977.000000 0.9056 0.9028 0.8988 0.8945 0.8901
982.000000 0.8856 0.8758 0.8651 0.8541 0.8081
987.000000 0.7597 0.7387 0.7491 0.7945 0.8143
992.000000 0.8087 0.8031 0.8026 0.8263 0.8677
997.000000 0.9034 0.9121 0.9183 0.9217 0.9225
1002.000000 0.9239 0.9240 0.9241 0.9237 0.9233
1007.000000 0.9230 0.9225 0.9214 0.9202 0.9191
1012.000000 0.9180 0.9167 0.9154 0.9142 0.9133
1017.000000 0.9125 0.9118 0.9112 0.9105 0.9098
1022.000000 0.9091 0.9084 0.9074 0.9064 0.9054
1027.000000 0.9044 0.9033 0.9023 0.9013 0.8999
1032.000000 0.8983 0.8966 0.8950 0.8934 0.8918
1037.000000 0.8895 0.8870 0.8845 0.8818 0.8794
1042.000000 0.8767 0.8725 0.8685 0.8644 0.8584
1047.000000 0.8497 0.8411 0.8317 0.8224 0.8124
1052.000000 0.8006 0.7786 0.7771 0.7756 0.7745
1057.000000 0.7734 0.7722 0.7701 0.7603 0.7399
1062.000000 0.7072 0.6965 0.6858 0.6703 0.6499
1067.000000 0.6294 0.6090 0.5887 0.4693 0.4401
1072.000000 0.3744 0.3093 0.2442 0.1791 0.1056
1077.000000 0.0610 0.0431 0.0407 0.0410 0.0430
1082.000000 0.0493 0.0571 0.0622 0.0692 0.0773
1087.000000 0.0862 0.0995 0.1278 0.1494 0.1683
1092.000000 0.1883 0.2022 0.2201 0.3033 0.3329
1097.000000 0.3626 0.3923 0.4412 0.4741 0.5273
1102.000000 0.5757 0.6547 0.6893 0.7208 0.7621
1107.000000 0.7856 0.7978 0.8100 0.8210 0.8318
1112.000000 0.8401 0.8477 0.8552 0.8621 0.8689
1117.000000 0.8756 0.8823 0.8861 0.8900 0.8938
1122.000000 0.8977 0.8997 0.9013 0.9028 0.9043
1127.000000 0.9053 0.9063 0.9073 0.9083 0.9105
1132.000000 0.9092 0.9138 0.9139 0.9140 0.9135
1137.000000 0.9128 0.9124 0.9118 0.9112 0.9106
1142.000000 0.9100 0.9094 0.9088 0.9083 0.9077
1147.000000 0.9071 0.9067 0.9062 0.9057 0.9053
1152.000000 0.9049 0.9046 0.9042 0.9039 0.9035
1157.000000 0.9032 0.9038 0.9044 0.9051 0.9057
1162.000000 0.9064 0.9068 0.9071 0.9070 0.9060
1167.000000 0.9039 0.9013 0.8987 0.8954 0.8913
1172.000000 0.8888 0.8866 0.8858 0.8849 0.8842
1177.000000 0.8835 0.8828 0.8824 0.8818 0.8813
1182.000000 0.8807 0.8802 0.8796 0.8790 0.8785
1187.000000 0.8780 0.8777 0.8775 0.8771 0.8768
1192.000000 0.8764 0.8760 0.8756 0.8754 0.8752
1197.000000 0.8750 0.8746 0.8738 0.8730 0.8721
1202.000000 0.8714 0.8700 0.8684 0.8667 0.8651
1207.000000 0.8635 0.8617 0.8595 0.8573 0.8551
1212.000000 0.8528 0.8507 0.8480 0.8452 0.8424
1217.000000 0.8397 0.8368 0.8342 0.8315 0.8288
1222.000000 0.8261 0.8233 0.8206 0.8167 0.8125
1227.000000 0.8084 0.8043 0.7965 0.7882 0.7797
1232.000000 0.7712 0.7622 0.7517 0.7400 0.7267
1237.000000 0.6999 0.6826 0.6674 0.6532 0.6448
1242.000000 0.6453 0.6519 0.6780 0.7040 0.7240
1247.000000 0.7236 0.7215 0.7161 0.7118 0.7095
1252.000000 0.7101 0.7122 0.7186 0.7275 0.7393
1257.000000 0.7471 0.7490 0.7506 0.7508 0.7511
1262.000000 0.7512 0.7507 0.7498 0.7480 0.7458
1267.000000 0.7438 0.7418 0.7398 0.7378 0.7358
1272.000000 0.7339 0.7318 0.7299 0.7276 0.7255
1277.000000 0.7233 0.7211 0.7189 0.7167 0.7145
1282.000000 0.7124 0.7103 0.7083 0.7061 0.7041
1287.000000 0.7021 0.7000 0.6980 0.6958 0.6930
1292.000000 0.6901 0.6872 0.6844 0.6815 0.6787
1297.000000 0.6758 0.6730 0.6701 0.6671 0.6644
1302.000000 0.6615 0.6589 0.6564 0.6538 0.6511
1307.000000 0.6486 0.6461 0.6435 0.6408 0.6383
1312.000000 0.6357 0.6330 0.6296 0.6260 0.6226
1317.000000 0.6191 0.6157 0.6117 0.6074 0.6031
1322.000000 0.5988 0.5945 0.5902 0.5839 0.5751
1327.000000 0.5662 0.5569 0.5455 0.5274 0.5040
1332.000000 0.4805 0.4571 0.4337 0.4103 0.3868
1337.000000 0.3636 0.3230 0.3034 0.2849 0.2607
1342.000000 0.2376 0.2102 0.1827 0.1704 0.1634
1347.000000 0.1621 0.1622 0.1623 0.2070 0.3063
1352.000000 0.4055 0.5047 0.5384 0.5826 0.6073
1357.000000 0.6137 0.6152 0.6164 0.6162 0.6154
1362.000000 0.6109 0.6020 0.5931 0.5842 0.5753
1367.000000 0.5664 0.5575 0.5486 0.5398 0.5309
1372.000000 0.5220 0.5131 0.5042 0.4953 0.4845
1377.000000 0.4754 0.4658 0.4455 0.4480 0.4485
1382.000000 0.4508 0.4560 0.4623 0.4678 0.4760
1387.000000 0.4871 0.5006 0.4965 0.4965 0.4962
1392.000000 0.4953 0.4940 0.4915 0.4883 0.4834
1397.000000 0.4781 0.4723 0.4634 0.4531 0.4428
1402.000000 0.4326 0.4223 0.4098 0.3982 0.3845
1407.000000 0.3730 0.3612 0.3584 0.3574 0.3572
1412.000000 0.3571 0.3571 0.3572 0.3568 0.3440
1417.000000 0.3004 0.3181 0.3051 0.3016 0.3056
1422.000000 0.3406 0.3757 0.4333 0.4308 0.4309
1427.000000 0.4300 0.4272 0.4203 0.4039 0.3874
1432.000000 0.3709 0.3546 0.3502 0.3494 0.3488
1437.000000 0.3486 0.3475 0.3450 0.3400 0.3169
1442.000000 0.3016 0.2968 0.2977 0.2985 0.3146
1447.000000 0.3337 0.3529 0.3720 0.3912 0.4103
1452.000000 0.4272 0.4334 0.4387 0.4424 0.4448
1457.000000 0.4468 0.4485 0.4502 0.4514 0.4527
1462.000000 0.4539 0.4554 0.4571 0.4590 0.4637
1467.000000 0.4699 0.4777 0.4886 0.5074 0.5152
1472.000000 0.5230 0.5310 0.5394 0.5478 0.5560
1477.000000 0.5643 0.5720 0.5787 0.5853 0.5914
1482.000000 0.5974 0.6014 0.6042 0.6070 0.6095
1487.000000 0.6108 0.6121 0.6134 0.6148 0.6158
1492.000000 0.6167 0.6175 0.6183 0.6192 0.6196
1497.000000 0.6196 0.6196 0.6196 0.6195 0.6194
1502.000000 0.6192 0.6190 0.6187 0.6179 0.6172
1507.000000 0.6165 0.6155 0.6139 0.6122 0.6105
1512.000000 0.6088 0.6068 0.6048 0.6029 0.6005
1517.000000 0.5973 0.5940 0.5905 0.5865 0.5826
1522.000000 0.5778 0.5730 0.5682 0.5633 0.5584
1527.000000 0.5535 0.5453 0.5364 0.5276 0.5060
1532.000000 0.4997 0.4941 0.4926 0.4917 0.4909
1537.000000 0.4900 0.4886 0.4872 0.4855 0.4835
1542.000000 0.4815 0.4769 0.4695 0.4610 0.4497
1547.000000 0.4408 0.4331 0.4234 0.4131 0.4009
1552.000000 0.3876 0.3799 0.3723 0.3653 0.3586
1557.000000 0.3527 0.3482 0.3440 0.3408 0.3382
1562.000000 0.3359 0.3342 0.3325 0.3299 0.3268
1567.000000 0.3216 0.3164 0.3126 0.3088 0.3051
1572.000000 0.3012 0.2971 0.2931 0.2890 0.2850
1577.000000 0.2784 0.2706 0.2668 0.2615 0.2615
1582.000000 0.2620 0.2626 0.2634 0.2657 0.2680
1587.000000 0.2712 0.2752 0.2798 0.2846 0.2892
1592.000000 0.2938 0.2984 0.3029 0.3070 0.3111
1597.000000 0.3153 0.3193 0.3232 0.3260 0.3295
1602.000000 0.3282 0.3284 0.3273 0.3260 0.3246
1607.000000 0.3224 0.3194 0.3157 0.3116 0.3074
1612.000000 0.3026 0.2978 0.2926 0.2873 0.2821
1617.000000 0.2768 0.2714 0.2660 0.2606 0.2552
1622.000000 0.2498 0.2443 0.2391 0.2340 0.2290
1627.000000 0.2240 0.2189 0.2139 0.2088 0.2036
1632.000000 0.1983 0.1929 0.1876 0.1822 0.1768
1637.000000 0.1714 0.1659 0.1604 0.1548 0.1492
1642.000000 0.1436 0.1381 0.1328 0.1282 0.1235
1647.000000 0.1189 0.1142 0.1092 0.1042 0.0958
1652.000000 0.1002 0.0986 0.0976 0.0969 0.0966
1657.000000 0.0964 0.0963 0.0968 0.0974 0.0980
1662.000000 0.0987 0.0993 0.1013 0.1005 0.1005
1667.000000 0.1005 0.1002 0.0996 0.0980 0.0963
1672.000000 0.0943 0.0921 0.0896 0.0869 0.0841
1677.000000 0.0782 0.0788 0.0774 0.0773 0.0780
1682.000000 0.0788 0.0797 0.0813 0.0843 0.0891
1687.000000 0.0941 0.1015 0.1096 0.1190 0.1363
1692.000000 0.1790 0.2102 0.2414 0.2727 0.3039
1697.000000 0.3352 0.3664 0.3976 0.4289 0.4601
1702.000000 0.5046 0.5116 0.5186 0.5593 0.5842
1707.000000 0.6095 0.6181 0.6268 0.6360 0.6558
1712.000000 0.6761 0.6982 0.7218 0.7446 0.7642
1717.000000 0.7837 0.8005 0.8089 0.8174 0.8257
1722.000000 0.8340 0.8411 0.8451 0.8491 0.8531
1727.000000 0.8568 0.8607 0.8644 0.8677 0.8709
1732.000000 0.8728 0.8747 0.8763 0.8810 0.8792
1737.000000 0.8799 0.8802 0.8805 0.8798 0.8790
1742.000000 0.8774 0.8757 0.8739 0.8721 0.8703
1747.000000 0.8687 0.8678 0.8674 0.8680 0.8695
1752.000000 0.8712 0.8761 0.8814 0.8873 0.8936
1757.000000 0.9009 0.9089 0.9181 0.9256 0.9318
1762.000000 0.9363 0.9399 0.9432 0.9461 0.9483
1767.000000 0.9502 0.9521 0.9540 0.9556 0.9568
1772.000000 0.9580 0.9590 0.9600 0.9607 0.9614
1777.000000 0.9621 0.9628 0.9634 0.9641 0.9647
1782.000000 0.9654 0.9661 0.9668 0.9675 0.9684
1787.000000 0.9691 0.9699 0.9707 0.9714 0.9723
1792.000000 0.9732 0.9741 0.9750 0.9760 0.9771
1797.000000 0.9782 0.9792 0.9798 0.9805 0.9812
1802.000000 0.9818 0.9825 0.9831 0.9835 0.9840
1807.000000 0.9845 0.9849 0.9854 0.9858 0.9863
1812.000000 0.9867 0.9870 0.9873 0.9875 0.9878
1817.000000 0.9884 0.9888 0.9893 0.9898 0.9902
1822.000000 0.9907 0.9909 0.9912 0.9914 0.9916
1827.000000 0.9918 0.9921 0.9924 0.9925 0.9928
1832.000000 0.9928 0.9928 0.9928 0.9928 0.9928
1837.000000 0.9928 0.9928 0.9925 0.9923 0.9920
1842.000000 0.9917 0.9914 0.9911 0.9908 0.9905
1847.000000 0.9903 0.9900 0.9900 0.9896 0.9894
1852.000000 0.9893 0.9891 0.9890 0.9888 0.9887
1857.000000 0.9885 0.9884 0.9884 0.9883 0.9883
1862.000000 0.9883 0.9882 0.9882 0.9882 0.9881
1867.000000 0.9881 0.9881 0.9881 0.9882 0.9883
1872.000000 0.9884 0.9885 0.9887 0.9888 0.9889
1877.000000 0.9890 0.9891 0.9892 0.9894 0.9895
1882.000000 0.9896 0.9898 0.9899 0.9901 0.9902
1887.000000 0.9903 0.9903 0.9904 0.9905 0.9905
1892.000000 0.9906 0.9906 0.9906 0.9905 0.9904
1897.000000 0.9902 0.9901 0.9899 0.9898 0.9897
1902.000000 0.9895 0.9894 0.9892 0.9891 0.9889
1907.000000 0.9887 0.9884 0.9882 0.9880 0.9878
1912.000000 0.9875 0.9873 0.9871 0.9868 0.9867
1917.000000 0.9864 0.9862 0.9860 0.9858 0.9856
1922.000000 0.9854 0.9852 0.9850 0.9849 0.9847
1927.000000 0.9845 0.9843 0.9841 0.9838 0.9835
1932.000000 0.9833 0.9830 0.9827 0.9825 0.9821
1937.000000 0.9814 0.9805 0.9797 0.9788 0.9780
1942.000000 0.9770 0.9760 0.9760 0.9760 0.9760
1947.000000 0.9761 0.9761 0.9762 0.9763 0.9764
1952.000000 0.9764 0.9765 0.9767 0.9768 0.9775
1957.000000 0.9801 0.9833 0.9861 0.9881 0.9868
1962.000000 0.9850 0.9818 0.9783 0.9743 0.9705
1967.000000 0.9681 0.9660 0.9647 0.9638 0.9630
1972.000000 0.9625 0.9618 0.9612 0.9604 0.9603
1977.000000 0.9607 0.9611 0.9616 0.9621 0.9625
1982.000000 0.9632 0.9639 0.9646 0.9651 0.9656
1987.000000 0.9656 0.9656 0.9644 0.9632 0.9611
1992.000000 0.9580 0.9555 0.9533 0.9533 0.9541
1997.000000 0.9554 0.9618 0.9682 0.9700 0.9712
2002.000000 0.9725 0.9730 0.9735 0.9739 0.9743
2007.000000 0.9745 0.9746 0.9746 0.9746 0.9745
2012.000000 0.9745 0.9744 0.9744 0.9743 0.9742
2017.000000 0.9741 0.9740 0.9739 0.9739 0.9738
2022.000000 0.9737 0.9736 0.9735 0.9732 0.9728
2027.000000 0.9725 0.9721 0.9718 0.9716 0.9713
2032.000000 0.9710 0.9705 0.9700 0.9695 0.9691
2037.000000 0.9686 0.9681 0.9675 0.9671 0.9667
2042.000000 0.9663 0.9659 0.9655 0.9651 0.9647
2047.000000 0.9643 0.9640 0.9636 0.9632 0.9628
2052.000000 0.9624 0.9620 0.9616 0.9612 0.9609
2057.000000 0.9605 0.9601 0.9597 0.9594 0.9591
2062.000000 0.9589 0.9586 0.9584 0.9581 0.9578
2067.000000 0.9575 0.9574 0.9571 0.9568 0.9565
2072.000000 0.9563 0.9560 0.9558 0.9555 0.9553
2077.000000 0.9550 0.9548 0.9545 0.9543 0.9540
2082.000000 0.9538 0.9535 0.9533 0.9530 0.9528
2087.000000 0.9525 0.9523 0.9520 0.9518 0.9515
2092.000000 0.9513 0.9510 0.9508 0.9505 0.9503
2097.000000 0.9500 0.9498 0.9495 0.9493 0.9490
2102.000000 0.9488 0.9485 0.9483 0.9480 0.9478
2107.000000 0.9474 0.9471 0.9467 0.9464 0.9461
2112.000000 0.9458 0.9454 0.9451 0.9447 0.9444
2117.000000 0.9440 0.9437 0.9433 0.9430 0.9423
2122.000000 0.9416 0.9406 0.9397 0.9388 0.9378
2127.000000 0.9368 0.9360 0.9350 0.9341 0.9331
2132.000000 0.9321 0.9315 0.9308 0.9308 0.9309
2137.000000 0.9310 0.9311 0.9312 0.9313 0.9315
2142.000000 0.9318 0.9320 0.9323 0.9323 0.9324
2147.000000 0.9324 0.9324 0.9324 0.9324 0.9321
2152.000000 0.9318 0.9315 0.9312 0.9309 0.9306
2157.000000 0.9302 0.9299 0.9295 0.9291 0.9287
2162.000000 0.9283 0.9278 0.9274 0.9270 0.9266
2167.000000 0.9261 0.9257 0.9252 0.9247 0.9242
2172.000000 0.9237 0.9233 0.9230 0.9227 0.9224
2177.000000 0.9223 0.9223 0.9223 0.9224 0.9225
2182.000000 0.9228 0.9235 0.9241 0.9247 0.9253
2187.000000 0.9258 0.9264 0.9268 0.9275 0.9278
2192.000000 0.9283 0.9287 0.9291 0.9294 0.9297
2197.000000 0.9299 0.9302 0.9304 0.9307 0.9307
2202.000000 0.9308 0.9303 0.9299 0.9294 0.9290
2207.000000 0.9285 0.9281 0.9275 0.9271 0.9265
2212.000000 0.9260 0.9253 0.9247 0.9239 0.9231
2217.000000 0.9223 0.9216 0.9207 0.9199 0.9190
2222.000000 0.9182 0.9173 0.9165 0.9156 0.9148
2227.000000 0.9139 0.9131 0.9121 0.9114 0.9105
2232.000000 0.9096 0.9088 0.9081 0.9077 0.9074
2237.000000 0.9070 0.9067 0.9063 0.9060 0.9056
2242.000000 0.9053 0.9049 0.9046 0.9042 0.9039
2247.000000 0.9035 0.9032 0.9028 0.9025 0.9023
2252.000000 0.9021 0.9018 0.9017 0.9015 0.9013
2257.000000 0.9011 0.9009 0.9007 0.9006 0.9004
2262.000000 0.9002 0.9000 0.8998 0.8996 0.8994
2267.000000 0.8993 0.8992 0.8992 0.8992 0.8992
2272.000000 0.8992 0.8992 0.8992 0.8992 0.8992
2277.000000 0.8992 0.8992 0.8992 0.8992 0.8992
2282.000000 0.8993 0.8993 0.8993 0.8994 0.8995
2287.000000 0.8997 0.8999 0.9000 0.9002 0.9003
2292.000000 0.9005 0.9006 0.9008 0.9010 0.9012
2297.000000 0.9013 0.9015 0.9016 0.9015 0.9015
2302.000000 0.9013 0.9011 0.9009 0.9007 0.9005
2307.000000 0.9002 0.9000 0.8998 0.8996 0.8992
2312.000000 0.8989 0.8982 0.8975 0.8968 0.8963
2317.000000 0.8960 0.8957 0.8953 0.8950 0.8947
2322.000000 0.8947 0.8948 0.8953 0.8957 0.8962
2327.000000 0.8966 0.8971 0.8978 0.8985 0.8997
2332.000000 0.9009 0.9015 0.9021 0.9025 0.9031
2337.000000 0.9035 0.9039 0.9038 0.9037 0.9036
2342.000000 0.9035 0.9034 0.9033 0.9031 0.9028
2347.000000 0.9027 0.9025 0.9021 0.9020 0.9017
2352.000000 0.9015 0.9012 0.9010 0.9007 0.9005
2357.000000 0.9002 0.9000 0.8997 0.8995 0.8992
2362.000000 0.8989 0.8986 0.8984 0.8981 0.8978
2367.000000 0.8975 0.8974 0.8968 0.8965 0.8960
2372.000000 0.8956 0.8952 0.8948 0.8943 0.8939
2377.000000 0.8934 0.8930 0.8925 0.8921 0.8916
2382.000000 0.8911 0.8905 0.8899 0.8893 0.8887
2387.000000 0.8881 0.8875 0.8868 0.8863 0.8857
2392.000000 0.8851 0.8844 0.8837 0.8827 0.8818
2397.000000 0.8809 0.8800 0.8790 0.8781 0.8771
2402.000000 0.8763 0.8754 0.8745 0.8735 0.8725
2407.000000 0.8717 0.8708 0.8699 0.8690 0.8680
2412.000000 0.8671 0.8661 0.8651 0.8641 0.8632
2417.000000 0.8621 0.8613 0.8603 0.8593 0.8583
2422.000000 0.8574 0.8564 0.8555 0.8537 0.8518
2427.000000 0.8509 0.8499 0.8495 0.8491 0.8487
2432.000000 0.8483 0.8478 0.8475 0.8475 0.8475
2437.000000 0.8475 0.8475 0.8475 0.8475 0.8475
2442.000000 0.8475 0.8475 0.8478 0.8480 0.8482
2447.000000 0.8484 0.8486 0.8487 0.8488 0.8488
2452.000000 0.8489 0.8490 0.8491 0.8491 0.8492
2457.000000 0.8496 0.8500 0.8502 0.8504 0.8506
2462.000000 0.8508 0.8509 0.8510 0.8509 0.8509
2467.000000 0.8505 0.8502 0.8498 0.8495 0.8494
2472.000000 0.8494 0.8494 0.8495 0.8495 0.8496
2477.000000 0.8500 0.8504 0.8512 0.8520 0.8530
2482.000000 0.8541 0.8552 0.8564 0.8573 0.8583
2487.000000 0.8590 0.8597 0.8604 0.8612 0.8617
2492.000000 0.8601 0.8623 0.8624 0.8624 0.8625
2497.000000 0.8621 0.8618 0.8613 0.8609 0.8605
2502.000000 0.8601 0.8597 0.8593 0.8589 0.8585
2507.000000 0.8581 0.8577 0.8571 0.8567 0.8560
2512.000000 0.8554 0.8547 0.8541 0.8534 0.8528
2517.000000 0.8521 0.8515 0.8509 0.8503 0.8498
2522.000000 0.8494 0.8489 0.8484 0.8482 0.8480
2527.000000 0.8478 0.8477 0.8475 0.8475 0.8474
2532.000000 0.8473 0.8473 0.8473 0.8473 0.8473
2537.000000 0.8473 0.8473 0.8473 0.8474 0.8474
2542.000000 0.8475 0.8475 0.8477 0.8477 0.8478
2547.000000 0.8478 0.8480 0.8480 0.8481 0.8481
2552.000000 0.8482 0.8482 0.8482 0.8482 0.8482
2557.000000 0.8478 0.8477 0.8475 0.8473 0.8470
2562.000000 0.8468 0.8465 0.8463 0.8461 0.8459
2567.000000 0.8455 0.8451 0.8446 0.8442 0.8437
2572.000000 0.8433 0.8428 0.8425 0.8418 0.8414
2577.000000 0.8407 0.8401 0.8395 0.8389 0.8383
2582.000000 0.8377 0.8370 0.8364 0.8358 0.8352
2587.000000 0.8345 0.8339 0.8328 0.8320 0.8310
2592.000000 0.8300 0.8290 0.8280 0.8268 0.8259
2597.000000 0.8248 0.8238 0.8225 0.8214 0.8201
2602.000000 0.8189 0.8176 0.8165 0.8153 0.8141
2607.000000 0.8128 0.8115 0.8099 0.8083 0.8065
2612.000000 0.8050 0.8033 0.8017 0.8000 0.7984
2617.000000 0.7967 0.7951 0.7934 0.7918 0.7900
2622.000000 0.7883 0.7865 0.7849 0.7831 0.7814
2627.000000 0.7797 0.7780 0.7761 0.7745 0.7728
2632.000000 0.7711 0.7699 0.7686 0.7672 0.7660
2637.000000 0.7647 0.7635 0.7621 0.7608 0.7599
2642.000000 0.7589 0.7581 0.7574 0.7565 0.7558
2647.000000 0.7555 0.7553 0.7550 0.7548 0.7545
2652.000000 0.7543 0.7540 0.7537 0.7533 0.7530
2657.000000 0.7522 0.7517 0.7484 0.7451 0.7415
2662.000000 0.7380 0.7342 0.7305 0.7265 0.7225
2667.000000 0.7187 0.7148 0.7110 0.7072 0.7035
2672.000000 0.6998 0.6951 0.6905 0.6890 0.6837
2677.000000 0.6878 0.6882 0.6886 0.6890 0.6894
2682.000000 0.6898 0.6901 0.6905 0.6908 0.6912
2687.000000 0.6915 0.6919 0.6925 0.6930 0.6935
2692.000000 0.6941 0.6946 0.6951 0.6961 0.6969
2697.000000 0.6983 0.6996 0.7011 0.7028 0.7049
2702.000000 0.7069 0.7095 0.7119 0.7150 0.7180
2707.000000 0.7212 0.7247 0.7255 0.7264 0.7262
2712.000000 0.7262 0.7261 0.7261 0.7261 0.7276
2717.000000 0.7258 0.7256 0.7251 0.7248 0.7244
2722.000000 0.7241 0.7237 0.7233 0.7228 0.7225
2727.000000 0.7221 0.7217 0.7207 0.7198 0.7188
2732.000000 0.7178 0.7168 0.7160 0.7151 0.7142
2737.000000 0.7132 0.7122 0.7114 0.7105 0.7095
2742.000000 0.7086 0.7076 0.7068 0.7060 0.7053
2747.000000 0.7045 0.7037 0.7028 0.7021 0.7014
2752.000000 0.7006 0.6998 0.6990 0.6982 0.6975
2757.000000 0.6965 0.6956 0.6946 0.6936 0.6925
2762.000000 0.6915 0.6906 0.6896 0.6886 0.6875
2767.000000 0.6865 0.6856 0.6845 0.6835 0.6821
2772.000000 0.6808 0.6795 0.6782 0.6768 0.6756
2777.000000 0.6742 0.6728 0.6715 0.6703 0.6689
2782.000000 0.6675 0.6660 0.6644 0.6626 0.6610
2787.000000 0.6593 0.6576 0.6560 0.6543 0.6525
2792.000000 0.6510 0.6492 0.6474 0.6456 0.6438
2797.000000 0.6418 0.6401 0.6382 0.6364 0.6346
2802.000000 0.6328 0.6309 0.6291 0.6272 0.6253
2807.000000 0.6223 0.6193 0.6162 0.6133 0.6103
2812.000000 0.6073 0.6043 0.6012 0.5976 0.5940
2817.000000 0.5897 0.5854 0.5810 0.5768 0.5725
2822.000000 0.5682 0.5638 0.5595 0.5551 0.5507
2827.000000 0.5469 0.5432 0.5398 0.5365 0.5331
2832.000000 0.5298 0.5262 0.5226 0.5185 0.5145
2837.000000 0.5107 0.5070 0.5044 0.5019 0.4993
2842.000000 0.4967 0.4942 0.4917 0.4894 0.4872
2847.000000 0.4850 0.4828 0.4807 0.4787 0.4782
2852.000000 0.4755 0.4777 0.4777 0.4778 0.4780
2857.000000 0.4783 0.4787 0.4793 0.4799 0.4809
2862.000000 0.4819 0.4830 0.4841 0.4856 0.4872
2867.000000 0.4892 0.4912 0.4941 0.4970 0.5000
2872.000000 0.5031 0.5055 0.5079 0.5090 0.5101
2877.000000 0.5105 0.5109 0.5112 0.5115 0.5117
2882.000000 0.5119 0.5121 0.5124 0.5126 0.5128
2887.000000 0.5128 0.5129 0.5129 0.5129 0.5129
2892.000000 0.5129 0.5129 0.5129 0.5128 0.5127
2897.000000 0.5126 0.5125 0.5124 0.5124 0.5123
2902.000000 0.5122 0.5121 0.5120 0.5119 0.5119
2907.000000 0.5118 0.5118 0.5115 0.5112 0.5105
2912.000000 0.5097 0.5088 0.5080 0.5065 0.5051
2917.000000 0.5031 0.5010 0.4977 0.4944 0.4910
2922.000000 0.4878 0.4844 0.4810 0.4778 0.4745
2927.000000 0.4710 0.4677 0.4639 0.4602 0.4569
2932.000000 0.4536 0.4518 0.4501 0.4502 0.4459
2937.000000 0.4509 0.4515 0.4554 0.4593 0.4781
2942.000000 0.4969 0.5185 0.5402 0.5520 0.5638
2947.000000 0.5645 0.5669 0.5651 0.5650 0.5643
2952.000000 0.5636 0.5620 0.5605 0.5583 0.5560
2957.000000 0.5531 0.5501 0.5465 0.5400 0.5429
2962.000000 0.5429 0.5443 0.5458 0.5480 0.5502
2967.000000 0.5530 0.5558 0.5558 0.5557 0.5568
2972.000000 0.5564 0.5554 0.5545 0.5531 0.5517
2977.000000 0.5488 0.5460 0.5435 0.5410 0.5385
2982.000000 0.5360 0.5335 0.5310 0.5284 0.5259
2987.000000 0.5234 0.5209 0.5184 0.5159 0.5134
2992.000000 0.5109 0.5083 0.5058 0.5033 0.5008
2997.000000 0.4983 0.4958 0.4933 0.4908 0.4882
3002.000000 0.4857 0.4832 0.4807 0.4782 0.4757
3007.000000 0.4732 0.4707 0.4681 0.4656 0.4631
3012.000000 0.4606 0.4581 0.4556 0.4531 0.4506
3017.000000 0.4481 0.4456 0.4430 0.4405 0.4380
3022.000000 0.4355 0.4330 0.4305 0.4280 0.4255
3027.000000 0.4229 0.4204 0.4179 0.4154 0.4129
3032.000000 0.4104 0.4079 0.4054 0.4028 0.4003
3037.000000 0.3978 0.3953 0.3928 0.3903 0.3878
3042.000000 0.3853 0.3827 0.3802 0.3777 0.3752
3047.000000 0.3727 0.3702 0.3677 0.3652 0.3627
3052.000000 0.3602 0.3576 0.3550 0.3526 0.3500
3057.000000 0.3476 0.3450 0.3426 0.3400 0.3375
3062.000000 0.3350 0.3325 0.3300 0.3275 0.3250
3067.000000 0.3225 0.3200 0.3174 0.3149 0.3124
3072.000000 0.3099 0.3074 0.3049 0.3024 0.2999
3077.000000 0.2973 0.2948 0.2923 0.2898 0.2873
3082.000000 0.2848 0.2823 0.2798 0.2773 0.2749
3087.000000 0.2724 0.2700 0.2675 0.2651 0.2627
3092.000000 0.2604 0.2583 0.2563 0.2543 0.2523
3097.000000 0.2503 0.2483 0.2462 0.2442 0.2417
3102.000000 0.2392 0.2362 0.2333 0.2303 0.2274
3107.000000 0.2244 0.2215 0.2184 0.2155 0.2134
3112.000000 0.2115 0.2094 0.2074 0.2054 0.2034
3117.000000 0.2014 0.1994 0.1974 0.1954 0.1934
3122.000000 0.1914 0.1894 0.1874 0.1853 0.1833
3127.000000 0.1813 0.1793 0.1772 0.1752 0.1732
3132.000000 0.1712 0.1692 0.1672 0.1650 0.1628
3137.000000 0.1604 0.1580 0.1556 0.1532 0.1507
3142.000000 0.1483 0.1459 0.1435 0.1412 0.1390
3147.000000 0.1368 0.1346 0.1323 0.1301 0.1279
3152.000000 0.1257 0.1234 0.1212 0.1189 0.1167
3157.000000 0.1146 0.1125 0.1105 0.1085 0.1065
3162.000000 0.1045 0.1025 0.1005 0.0985 0.0965
3167.000000 0.0943 0.0924 0.0905 0.0886 0.0867
3172.000000 0.0847 0.0829 0.0810 0.0791 0.0773
3177.000000 0.0755 0.0738 0.0720 0.0703 0.0691
3182.000000 0.0680 0.0674 0.0668 0.0662 0.0657
3187.000000 0.0654 0.0652 0.0651 0.0650 0.0649
3192.000000 0.0649 0.0649 0.0649 0.0651 0.0654
3197.000000 0.0656 0.0659 0.0661 0.0664 0.0666
3202.000000 0.0669 0.0674 0.0680 0.0686 0.0692
3207.000000 0.0698 0.0704 0.0712 0.0720 0.0729
3212.000000 0.0739 0.0748 0.0757 0.0766 0.0776
3217.000000 0.0785 0.0795 0.0804 0.0814 0.0822
3222.000000 0.0832 0.0842 0.0854 0.0865 0.0876
3227.000000 0.0888 0.0900 0.0912 0.0924 0.0935
3232.000000 0.0946 0.0958 0.0969 0.0979 0.0989
3237.000000 0.1000 0.1010 0.1020 0.1031 0.1041
3242.000000 0.1052 0.1062 0.1073 0.1086 0.1099
3247.000000 0.1113 0.1127 0.1141 0.1155 0.1168
3252.000000 0.1182 0.1196 0.1210 0.1223 0.1237
3257.000000 0.1252 0.1268 0.1285 0.1303 0.1320
3262.000000 0.1337 0.1354 0.1371 0.1388 0.1405
3267.000000 0.1422 0.1440 0.1458 0.1477 0.1500
3272.000000 0.1524 0.1548 0.1572 0.1595 0.1619
3277.000000 0.1643 0.1667 0.1690 0.1714 0.1737
3282.000000 0.1762 0.1795 0.1829 0.1877 0.1924
3287.000000 0.1970 0.2017 0.2058 0.2100 0.2141
3292.000000 0.2183 0.2243 0.2303 0.2371 0.2440
3297.000000 0.2459 0.2479 0.2495 0.2512 0.2520
3302.000000 0.2528 0.2534 0.2541 0.2543 0.2546
3307.000000 0.2548 0.2551 0.2553 0.2556 0.2555
3312.000000 0.2554 0.2553 0.2552 0.2549 0.2546
3317.000000 0.2542 0.2539 0.2535 0.2533 0.2527
3322.000000 0.2521 0.2514 0.2508 0.2502 0.2496
3327.000000 0.2487 0.2479 0.2470 0.2462 0.2453
3332.000000 0.2445 0.2432 0.2419 0.2404 0.2390
3337.000000 0.2375 0.2360 0.2343 0.2326 0.2308
3342.000000 0.2291 0.2270 0.2250 0.2228 0.2206
3347.000000 0.2184 0.2162 0.2137 0.2113 0.2079
3352.000000 0.2044 0.2010 0.1976 0.1941 0.1906
3357.000000 0.1871 0.1835 0.1794 0.1753 0.1700
3362.000000 0.1648 0.1616 0.1585 0.1563 0.1535
3367.000000 0.1535 0.1536 0.1538 0.1541 0.1545
3372.000000 0.1549 0.1559 0.1569 0.1581 0.1594
3377.000000 0.1623 0.1652 0.1794 0.1937 0.1999
3382.000000 0.2061 0.2124 0.2188 0.2245 0.2302
3387.000000 0.2349 0.2397 0.2438 0.2479 0.2521
3392.000000 0.2564 0.2657 0.2750 0.2849 0.2948
3397.000000 0.3047 0.3147 0.3246 0.3346 0.3445
3402.000000 0.3545 0.3643 0.3741 0.3820 0.3899
3407.000000 0.3962 0.4027 0.4127 0.4227 0.4331
3412.000000 0.4436 0.4521 0.4607 0.4657 0.4707
3417.000000 0.4757 0.4807 0.4864 0.4921 0.4982
3422.000000 0.5044 0.5134 0.5225 0.5324 0.5423
3427.000000 0.5488 0.5553 0.5626 0.5699 0.5779
3432.000000 0.5859 0.5930 0.6002 0.6062 0.6124
3437.000000 0.6185 0.6246 0.6305 0.6364 0.6421
3442.000000 0.6481 0.6540 0.6599 0.6672 0.6747
3447.000000 0.6819 0.6894 0.6943 0.6993 0.7042
3452.000000 0.7092 0.7141 0.7190 0.7231 0.7271
3457.000000 0.7311 0.7351 0.7392 0.7432 0.7481
3462.000000 0.7531 0.7583 0.7636 0.7682 0.7728
3467.000000 0.7765 0.7805 0.7843 0.7882 0.7919
3472.000000 0.7958 0.7994 0.8030 0.8058 0.8089
3477.000000 0.8118 0.8147 0.8175 0.8206 0.8235
3482.000000 0.8264 0.8293 0.8323 0.8352 0.8381
3487.000000 0.8410 0.8440 0.8468 0.8499 0.8527
3492.000000 0.8556 0.8582 0.8608 0.8634 0.8661
3497.000000 0.8687 0.8713 0.8739 0.8765 0.8791
3502.000000 0.8818 0.8842 0.8867 0.8892 0.8917
3507.000000 0.8942 0.8967 0.8991 0.9016 0.9043
3512.000000 0.9070 0.9096 0.9123 0.9149 0.9175
3517.000000 0.9201 0.9225 0.9248 0.9270 0.9290
3522.000000 0.9310 0.9325 0.9341 0.9356 0.9371
3527.000000 0.9386 0.9402 0.9417 0.9432 0.9440
3532.000000 0.9448 0.9455 0.9463 0.9471 0.9478
3537.000000 0.9487 0.9495 0.9502 0.9509 0.9514
3542.000000 0.9520 0.9525 0.9530 0.9535 0.9541
3547.000000 0.9546 0.9551 0.9556 0.9562 0.9566
3552.000000 0.9571 0.9575 0.9580 0.9584 0.9589
3557.000000 0.9593 0.9598 0.9602 0.9606 0.9610
3562.000000 0.9615 0.9618 0.9624 0.9625 0.9628
3567.000000 0.9632 0.9635 0.9638 0.9641 0.9643
3572.000000 0.9646 0.9649 0.9652 0.9655 0.9658
3577.000000 0.9660 0.9663 0.9664 0.9666 0.9668
3582.000000 0.9670 0.9671 0.9674 0.9675 0.9694
3587.000000 0.9680 0.9682 0.9683 0.9685 0.9687
3592.000000 0.9690 0.9692 0.9695 0.9697 0.9700
3597.000000 0.9702 0.9705 0.9705 0.9705 0.9705
3602.000000 0.9705 0.9704 0.9704 0.9703 0.9703
3607.000000 0.9702 0.9702 0.9701 0.9700 0.9699
3612.000000 0.9698 0.9697 0.9696 0.9695 0.9694
3617.000000 0.9693 0.9692 0.9691 0.9690 0.9689
3622.000000 0.9688 0.9687 0.9686 0.9684 0.9683
3627.000000 0.9682 0.9681 0.9680 0.9678 0.9677
3632.000000 0.9675 0.9675 0.9674 0.9673 0.9671
3637.000000 0.9670 0.9668 0.9668 0.9667 0.9665
3642.000000 0.9664 0.9662 0.9660 0.9658 0.9656
3647.000000 0.9654 0.9652 0.9650 0.9649 0.9647
3652.000000 0.9645 0.9643 0.9641 0.9639 0.9637
3657.000000 0.9635 0.9633 0.9631 0.9628 0.9627
3662.000000 0.9625 0.9623 0.9621 0.9618 0.9616
3667.000000 0.9613 0.9611 0.9608 0.9606 0.9603
3672.000000 0.9601 0.9598 0.9596 0.9593 0.9591
3677.000000 0.9588 0.9586 0.9583 0.9580 0.9578
3682.000000 0.9578 0.9578 0.9578 0.9577 0.9575
3687.000000 0.9575 0.9575 0.9574 0.9573 0.9573
3692.000000 0.9573 0.9575 0.9578 0.9581 0.9584
3697.000000 0.9586 0.9589 0.9591 0.9593 0.9593
3702.000000 0.9594 0.9594 0.9595 0.9595 0.9596
3707.000000 0.9596 0.9597 0.9597 0.9597 0.9595
3712.000000 0.9594 0.9593 0.9592 0.9590 0.9589
3717.000000 0.9587 0.9585 0.9583 0.9582 0.9580
3722.000000 0.9578 0.9577 0.9575 0.9574 0.9571
3727.000000 0.9568 0.9564 0.9560 0.9557 0.9553
3732.000000 0.9550 0.9546 0.9543 0.9539 0.9536
3737.000000 0.9532 0.9528 0.9525 0.9521 0.9518
3742.000000 0.9517 0.9514 0.9512 0.9509 0.9507
3747.000000 0.9504 0.9501 0.9499 0.9498 0.9496
3752.000000 0.9495 0.9493 0.9492 0.9490 0.9489
3757.000000 0.9487 0.9486 0.9485 0.9484 0.9482
3762.000000 0.9481 0.9478 0.9478 0.9475 0.9475
3767.000000 0.9473 0.9471 0.9471 0.9470 0.9468
3772.000000 0.9467 0.9465 0.9464 0.9462 0.9461
3777.000000 0.9459 0.9458 0.9456 0.9455 0.9454
3782.000000 0.9453 0.9451 0.9450 0.9448 0.9447
3787.000000 0.9445 0.9444 0.9442 0.9441 0.9440
3792.000000 0.9439 0.9437 0.9436 0.9434 0.9433
3797.000000 0.9431
##END=
