##TITLE=ETHYL ETHER
##JCAMP-DX=4.24
##DATA TYPE=INFRARED SPECTRUM
##CLASS=COBLENTZ
##ORIGIN=DOW CHEMICAL COMPANY
##OWNER=COBLENTZ SOCIETY
Collection (C) 2018 copyright by the U.S. Secretary of Commerce
on behalf of the United States of America. All rights reserved.
##DATE=1964
##NAMES=diethyl ether
1-ethoxyethane
ETHANE, 1,1'-OXYBIS-
##CAS REGISTRY NO=60-29-7
##MOLFORM=C4 H10 O
##SOURCE REFERENCE=COBLENTZ NO. 8793
##$NIST SOURCE=COBLENTZ
##$NIST IMAGE=cob-r8793
##SPECTROMETER/DATA SYSTEM=DOW KBr FOREPRISM-GRATING
##INSTRUMENT PARAMETERS=GRATING CHANGED AT 5.0, 7.5, 15.0 MICRON
$$ SPECTRAL CONTAMINATION DUE TO H2O IN THE 1600 CM^-^1 REGION.
$$ ABSORPTION DUE TO AN UNKNOWN AROUND 1750 CM^-^1.
##STATE=GAS (50 mmHg, N2 ADDED, TOTAL PRESSURE 600 mmHg)
##PATH LENGTH=5 CM
$$SPECTRAL CONTAMINATION DUE TO AN UNKNOWN AROUND 1752 CM^-^1
##SAMPLING PROCEDURE=TRANSMISSION
##RESOLUTION=2
##DATA PROCESSING=DIGITIZED BY NIST FROM HARD COPY (FROM TWO SEGMENTS)
##XUNITS=1/CM
##YUNITS=TRANSMITTANCE
##XFACTOR=1.000000
##YFACTOR=1
##DELTAX=0.939705
##FIRSTX=386.531
##LASTX=3801.42
##FIRSTY=0.879
##MAXX=3801.42
##MINX=386.531
##MAXY=1.018
##MINY=0.007
##NPOINTS=3635
##XYDATA=(X++(Y..Y))
386.531000 0.8790 0.8790 0.8790 0.8790 0.8790
391.229523 0.8790 0.8790 0.8790 0.8790 0.8790
395.928046 0.8790 0.8770 0.8770 0.8760 0.8760
400.626569 0.8760 0.8740 0.8740 0.8740 0.8740
405.325091 0.8740 0.8730 0.8710 0.8700 0.8700
410.023614 0.8700 0.8670 0.8640 0.8610 0.8600
414.722137 0.8580 0.8540 0.8510 0.8500 0.8470
419.420660 0.8440 0.8410 0.8390 0.8360 0.8350
424.119183 0.8320 0.8310 0.8290 0.8260 0.8230
428.817706 0.8220 0.8200 0.8180 0.8160 0.8160
433.516229 0.8160 0.8160 0.8160 0.8160 0.8180
438.214751 0.8180 0.8190 0.8200 0.8220 0.8230
442.913274 0.8250 0.8280 0.8290 0.8310 0.8340
447.611797 0.8390 0.8420 0.8470 0.8510 0.8570
452.310320 0.8630 0.8680 0.8730 0.8770 0.8820
457.008843 0.8870 0.8920 0.8930 0.8980 0.9030
461.707366 0.9060 0.9080 0.9110 0.9150 0.9170
466.405889 0.9190 0.9210 0.9210 0.9220 0.9220
471.104411 0.9220 0.9220 0.9240 0.9240 0.9240
475.802934 0.9240 0.9240 0.9220 0.9220 0.9210
480.501457 0.9210 0.9190 0.9180 0.9170 0.9140
485.199980 0.9140 0.9120 0.9110 0.9090 0.9090
489.898503 0.9080 0.9080 0.9080 0.9080 0.9080
494.597026 0.9080 0.9080 0.9090 0.9090 0.9090
499.295549 0.9110 0.9110 0.9120 0.9120 0.9140
503.994072 0.9140 0.9150 0.9150 0.9170 0.9180
508.692594 0.9190 0.9210 0.9250 0.9300 0.9310
513.391117 0.9330 0.9340 0.9340 0.9350 0.9350
518.089640 0.9370 0.9380 0.9380 0.9400 0.9400
522.788163 0.9410 0.9410 0.9410 0.9430 0.9430
527.486686 0.9440 0.9460 0.9460 0.9460 0.9460
532.185209 0.9460 0.9460 0.9460 0.9460 0.9460
536.883732 0.9460 0.9460 0.9460 0.9460 0.9460
541.582254 0.9460 0.9460 0.9470 0.9460 0.9460
546.280777 0.9460 0.9460 0.9470 0.9470 0.9470
550.979300 0.9470 0.9490 0.9490 0.9490 0.9490
555.677823 0.9490 0.9490 0.9490 0.9490 0.9500
560.376346 0.9510 0.9510 0.9510 0.9530 0.9530
565.074869 0.9530 0.9530 0.9540 0.9540 0.9540
569.773392 0.9560 0.9560 0.9560 0.9560 0.9570
574.471914 0.9570 0.9570 0.9570 0.9570 0.9570
579.170437 0.9570 0.9570 0.9590 0.9590 0.9590
583.868960 0.9590 0.9600 0.9600 0.9600 0.9600
588.567483 0.9620 0.9620 0.9620 0.9620 0.9620
593.266006 0.9630 0.9630 0.9630 0.9630 0.9630
597.964529 0.9630 0.9650 0.9650 0.9660 0.9660
602.663052 0.9670 0.9670 0.9690 0.9690 0.9700
607.361574 0.9720 0.9720 0.9730 0.9730 0.9750
612.060097 0.9750 0.9760 0.9780 0.9780 0.9790
616.758620 0.9790 0.9810 0.9820 0.9820 0.9830
621.457143 0.9830 0.9850 0.9850 0.9860 0.9860
626.155666 0.9880 0.9880 0.9890 0.9910 0.9910
630.854189 0.9920 0.9920 0.9940 0.9940 0.9940
635.552712 0.9950 0.9950 0.9970 0.9970 0.9970
640.251234 0.9980 0.9980 1.0000 1.0000 1.0000
644.949757 1.0010 1.0010 1.0000 1.0010 1.0010
649.648280 1.0010 1.0020 1.0020 1.0020 1.0040
654.346803 1.0040 1.0040 1.0050 1.0050 1.0050
659.045326 1.0050 1.0070 1.0070 1.0070 1.0080
663.743849 1.0080 1.0080 1.0100 1.0100 1.0100
668.442372 1.0110 1.0110 1.0110 1.0130 1.0130
673.140895 1.0130 1.0140 1.0140 1.0140 1.0140
677.839417 1.0160 1.0160 1.0160 1.0160 1.0170
682.537940 1.0170 1.0170 1.0170 1.0180 1.0180
687.236463 1.0180 1.0180 1.0180 1.0180 1.0180
691.934986 1.0180 1.0180 1.0170 1.0170 1.0170
696.633509 1.0170 1.0160 1.0160 1.0160 1.0160
701.332032 1.0140 1.0140 1.0140 1.0140 1.0140
706.030555 1.0160 1.0160 1.0160 1.0160 1.0170
710.729077 1.0170 1.0170 1.0170 1.0180 1.0180
715.427600 1.0180 1.0180 1.0180 1.0180 1.0180
720.126123 1.0180 1.0180 1.0170 1.0170 1.0170
724.824646 1.0140 1.0110 1.0110 1.0100 1.0080
729.523169 1.0070 1.0070 1.0070 1.0070 1.0070
734.221692 1.0070 1.0070 1.0070 1.0070 1.0080
738.920215 1.0080 1.0080 1.0070 1.0050 1.0050
743.618737 1.0050 1.0050 1.0050 1.0050 1.0050
748.317260 1.0050 1.0050 1.0050 1.0050 1.0050
753.015783 1.0050 1.0050 1.0050 1.0050 1.0050
757.714306 1.0050 1.0040 1.0040 1.0040 1.0040
762.412829 1.0040 1.0010 1.0010 1.0000 1.0000
767.111352 0.9980 0.9940 0.9920 0.9890 0.9830
771.809875 0.9820 0.9810 0.9780 0.9730 0.9700
776.508397 0.9670 0.9660 0.9630 0.9590 0.9530
781.206920 0.9500 0.9470 0.9440 0.9410 0.9370
785.905443 0.9370 0.9340 0.9300 0.9250 0.9210
790.603966 0.9170 0.9120 0.9060 0.9030 0.8990
795.302489 0.8960 0.8930 0.8920 0.8930 0.8920
800.001012 0.8900 0.8890 0.8890 0.8870 0.8850
804.699535 0.8830 0.8830 0.8800 0.8790 0.8790
809.398057 0.8770 0.8770 0.8760 0.8740 0.8710
814.096580 0.8680 0.8670 0.8640 0.8630 0.8600
818.795103 0.8550 0.8540 0.8500 0.8390 0.8340
823.493626 0.8260 0.8200 0.8150 0.8090 0.8030
828.192149 0.7970 0.7880 0.7810 0.7710 0.7590
832.890672 0.7460 0.7370 0.7240 0.7170 0.7070
837.589195 0.7030 0.6980 0.6940 0.6910 0.6870
842.287717 0.6840 0.6810 0.6790 0.6790 0.6810
846.986240 0.6850 0.6910 0.7010 0.7080 0.7030
851.684763 0.7000 0.6980 0.6970 0.6940 0.6940
856.383286 0.7010 0.7050 0.7070 0.7210 0.7330
861.081809 0.7450 0.7560 0.7680 0.7780 0.7900
865.780332 0.8000 0.8100 0.8190 0.8280 0.8350
870.478855 0.8420 0.8510 0.8580 0.8660 0.8710
875.177378 0.8790 0.8850 0.8900 0.8950 0.9020
879.875900 0.9050 0.9120 0.9140 0.9170 0.9180
884.574423 0.9210 0.9220 0.9240 0.9250 0.9270
889.272946 0.9310 0.9330 0.9330 0.9340 0.9340
893.971469 0.9340 0.9330 0.9310 0.9280 0.9220
898.669992 0.9180 0.9140 0.9110 0.9090 0.9010
903.368515 0.8920 0.8870 0.8770 0.8710 0.8610
908.067038 0.8520 0.8440 0.8310 0.8220 0.8180
912.765560 0.8150 0.8130 0.8100 0.8060 0.7970
917.464083 0.7810 0.7780 0.7750 0.7670 0.7521
922.162606 0.7360 0.7190 0.7030 0.6940 0.6850
926.861129 0.6710 0.6630 0.6600 0.6590 0.6600
931.559652 0.6680 0.6750 0.6820 0.6890 0.6920
936.258175 0.6950 0.6920 0.6920 0.6940 0.7070
940.956698 0.7010 0.6940 0.6920 0.7000 0.7050
945.655220 0.7210 0.7430 0.7709 0.7959 0.8149
950.353743 0.8380 0.8600 0.8770 0.8890 0.8930
955.052266 0.8960 0.9030 0.9090 0.9150 0.9180
959.750789 0.9210 0.9240 0.9250 0.9270 0.9280
964.449312 0.9300 0.9310 0.9310 0.9310 0.9310
969.147835 0.9300 0.9300 0.9300 0.9280 0.9270
973.846358 0.9250 0.9220 0.9210 0.9180 0.9170
978.544880 0.9140 0.9120 0.9110 0.9090 0.9080
983.243403 0.9030 0.9020 0.8990 0.8960 0.8930
987.941926 0.8900 0.8890 0.8860 0.8830 0.8790
992.640449 0.8740 0.8700 0.8660 0.8630 0.8570
997.338972 0.8520 0.8470 0.8410 0.8340 0.8230
1002.037495 0.8120 0.7990 0.7880 0.7770 0.7680
1006.736018 0.7580 0.7490 0.7390 0.7300 0.7200
1011.434540 0.7100 0.7040 0.6980 0.6890 0.6790
1016.133063 0.6690 0.6590 0.6490 0.6400 0.6300
1020.831586 0.6200 0.6090 0.5990 0.5900 0.5790
1025.530109 0.5690 0.5580 0.5470 0.5380 0.5310
1030.228632 0.5250 0.5210 0.5150 0.5100 0.5030
1034.927155 0.5000 0.4960 0.4940 0.4910 0.4900
1039.625678 0.4900 0.4910 0.4930 0.4930 0.4940
1044.324200 0.4940 0.4940 0.4930 0.4870 0.4830
1049.022723 0.4780 0.4570 0.4430 0.4360 0.4320
1053.721246 0.4300 0.4260 0.4170 0.4030 0.3980
1058.419769 0.3940 0.3740 0.3590 0.3421 0.3231
1063.118292 0.3050 0.2860 0.2690 0.2500 0.2310
1067.816815 0.2190 0.2080 0.1970 0.1860 0.1770
1072.515338 0.1650 0.1630 0.1670 0.1710 0.1730
1077.213861 0.1760 0.1770 0.1790 0.1810 0.1830
1081.912383 0.1840 0.1840 0.1860 0.1860 0.1870
1086.610906 0.1890 0.1930 0.2090 0.2279 0.2380
1091.309429 0.2760 0.2920 0.3040 0.3230 0.3240
1096.007952 0.3330 0.3400 0.3490 0.3550 0.3530
1100.706475 0.3300 0.3050 0.2850 0.2670 0.2530
1105.404998 0.2380 0.2240 0.2050 0.1711 0.1451
1110.103521 0.1220 0.1040 0.0970 0.0880 0.0740
1114.802043 0.0580 0.0390 0.0171 0.0130 0.0100
1119.500566 0.0100 0.0080 0.0080 0.0070 0.0070
1124.199089 0.0070 0.0070 0.0070 0.0070 0.0070
1128.897612 0.0080 0.0080 0.0080 0.0080 0.0080
1133.596135 0.0080 0.0080 0.0080 0.0080 0.0080
1138.294658 0.0080 0.0100 0.0100 0.0100 0.0110
1142.993181 0.0110 0.0110 0.0110 0.0130 0.0130
1147.691703 0.0130 0.0130 0.0140 0.0140 0.0140
1152.390226 0.0140 0.0170 0.0200 0.0210 0.0240
1157.088749 0.0290 0.0300 0.0300 0.0320 0.0340
1161.787272 0.0360 0.0400 0.0450 0.0480 0.0500
1166.485795 0.0530 0.0610 0.0660 0.0710 0.0770
1171.184318 0.0840 0.1090 0.1140 0.1260 0.1310
1175.882841 0.1390 0.1470 0.1510 0.1570 0.1610
1180.581363 0.1670 0.1710 0.1790 0.1860 0.1960
1185.279886 0.2050 0.2150 0.2220 0.2290 0.2320
1189.978409 0.2400 0.2470 0.2530 0.2600 0.2670
1194.676932 0.2750 0.2830 0.2910 0.2980 0.3170
1199.375455 0.3300 0.3470 0.3530 0.3690 0.4188
1204.073978 0.4410 0.4620 0.4840 0.5080 0.5310
1208.772501 0.5540 0.5760 0.5990 0.6239 0.6469
1213.471023 0.6690 0.6790 0.6880 0.7070 0.7160
1218.169546 0.7230 0.7320 0.7370 0.7420 0.7510
1222.868069 0.7580 0.7590 0.7620 0.7640 0.7650
1227.566592 0.7680 0.7700 0.7710 0.7720 0.7750
1232.265115 0.7770 0.7780 0.7800 0.7800 0.7800
1236.963638 0.7800 0.7800 0.7800 0.7800 0.7800
1241.662161 0.7780 0.7780 0.7770 0.7770 0.7750
1246.360684 0.7750 0.7740 0.7720 0.7720 0.7700
1251.059206 0.7670 0.7620 0.7560 0.7550 0.7490
1255.757729 0.7430 0.7390 0.7330 0.7290 0.7260
1260.456252 0.7170 0.7070 0.7040 0.7000 0.6950
1265.154775 0.6940 0.6840 0.6780 0.6750 0.6720
1269.853298 0.6680 0.6650 0.6590 0.6520 0.6490
1274.551821 0.6460 0.6430 0.6370 0.6330 0.6280
1279.250344 0.6200 0.6110 0.6040 0.5990 0.5950
1283.948866 0.5920 0.5900 0.5880 0.5790 0.5740
1288.647389 0.5640 0.5560 0.5450 0.5350 0.5290
1293.345912 0.5210 0.5090 0.5080 0.5080 0.5080
1298.044435 0.5090 0.5100 0.5150 0.5160 0.5180
1302.742958 0.5260 0.5310 0.5320 0.5380 0.5500
1307.441481 0.5600 0.5630 0.5640 0.5690 0.5760
1312.140004 0.5890 0.6020 0.6170 0.6300 0.6460
1316.838526 0.6621 0.7010 0.7230 0.7360 0.7490
1321.537049 0.7740 0.7880 0.7940 0.7940 0.7960
1326.235572 0.7960 0.7930 0.7880 0.7810 0.7740
1330.934095 0.7670 0.7460 0.7230 0.7000 0.6880
1335.632618 0.6758 0.6209 0.5879 0.5560 0.5240
1340.331141 0.4580 0.3910 0.3311 0.2601 0.1842
1345.029664 0.1740 0.1640 0.1630 0.1630 0.1670
1349.728186 0.1730 0.1630 0.1570 0.1640 0.1710
1354.426709 0.1840 0.1670 0.1550 0.1520 0.1410
1359.125232 0.1230 0.1060 0.1030 0.1040 0.1160
1363.823755 0.1320 0.1440 0.1630 0.1840 0.1900
1368.522278 0.1920 0.1930 0.1920 0.1760 0.1650
1373.220801 0.1549 0.1190 0.0820 0.0780 0.0740
1377.919324 0.0690 0.0660 0.0650 0.0650 0.0650
1382.617846 0.0650 0.0650 0.0650 0.0640 0.0640
1387.316369 0.0640 0.0640 0.0640 0.0620 0.0590
1392.014892 0.0560 0.0560 0.0560 0.0580 0.0640
1396.713415 0.0660 0.0780 0.1129 0.1310 0.1739
1401.411938 0.1970 0.2190 0.2440 0.2860 0.3100
1406.110461 0.3390 0.3590 0.4269 0.4649 0.4700
1410.808984 0.4740 0.4860 0.4910 0.4930 0.5130
1415.507506 0.5160 0.5220 0.5260 0.5280 0.5290
1420.206029 0.5290 0.5260 0.5220 0.5130 0.5020
1424.904552 0.4900 0.4810 0.4780 0.4770 0.4770
1429.603075 0.4730 0.4680 0.4590 0.4570 0.4550
1434.301598 0.4550 0.4480 0.4430 0.4360 0.4350
1439.000121 0.4350 0.4350 0.4380 0.4380 0.4380
1443.698644 0.4380 0.4360 0.4360 0.4350 0.4300
1448.397167 0.4220 0.4190 0.4030 0.3740 0.3440
1453.095689 0.4110 0.4040 0.4010 0.4000 0.4010
1457.794212 0.4030 0.4090 0.4170 0.4360 0.4550
1462.492735 0.4650 0.4700 0.4730 0.4780 0.4870
1467.191258 0.4870 0.4870 0.4800 0.4730 0.4610
1471.889781 0.4540 0.4510 0.4510 0.4550 0.4650
1476.588304 0.4780 0.4890 0.5080 0.5190 0.5290
1481.286827 0.5350 0.5400 0.5440 0.5510 0.5600
1485.985349 0.5630 0.5640 0.5690 0.5740 0.5760
1490.683872 0.5800 0.5850 0.5980 0.6150 0.6459
1495.382395 0.6630 0.6750 0.6760 0.6780 0.6880
1500.080918 0.6910 0.7040 0.7160 0.7240 0.7260
1504.779441 0.7270 0.7330 0.7390 0.7240 0.7510
1509.477964 0.7540 0.7710 0.7860 0.8020 0.8259
1514.176487 0.8280 0.8320 0.8350 0.8380 0.8420
1518.875009 0.8450 0.8480 0.8480 0.8310 0.8340
1523.573532 0.8610 0.8660 0.8700 0.8730 0.8790
1528.272055 0.8830 0.8860 0.8860 0.8870 0.8890
1532.970578 0.8900 0.8920 0.8930 0.8950 0.9030
1537.669101 0.9050 0.9050 0.8710 0.8630 0.8700
1542.367624 0.8770 0.8850 0.8960 0.8980 0.9060
1547.066147 0.9080 0.9090 0.9110 0.9110 0.9120
1551.764669 0.9120 0.9120 0.9120 0.9120 0.9120
1556.463192 0.9120 0.9110 0.8900 0.9140 0.9140
1561.161715 0.8612 0.9140 0.9150 0.9150 0.9150
1565.860238 0.9150 0.9170 0.9170 0.9170 0.9170
1570.558761 0.9169 0.8990 0.9180 0.9180 0.9190
1575.257284 0.9210 0.9210 0.9220 0.8831 0.9239
1579.955807 0.9250 0.9250 0.9270 0.9280 0.9300
1584.654329 0.9310 0.9310 0.9310 0.9310 0.9330
1589.352852 0.9330 0.9330 0.9330 0.9340 0.9340
1594.051375 0.9340 0.9340 0.9340 0.9340 0.9340
1598.749898 0.9340 0.9340 0.9340 0.9340 0.9340
1603.448421 0.9340 0.9340 0.9340 0.9340 0.9340
1608.146944 0.9340 0.9340 0.9340 0.9340 0.9340
1612.845467 0.9340 0.9340 0.9330 0.9330 0.9300
1617.543989 0.9209 0.9050 0.8920 0.9020 0.9080
1622.242512 0.9170 0.9330 0.9330 0.9190 0.9310
1626.941035 0.9310 0.9310 0.9210 0.9300 0.9300
1631.639558 0.9280 0.9280 0.9280 0.9270 0.8901
1636.338081 0.8800 0.8950 0.8980 0.9110 0.9240
1641.036604 0.9250 0.9250 0.9250 0.9250 0.9220
1645.735127 0.9220 0.9219 0.8931 0.9210 0.9210
1650.433650 0.9210 0.8830 0.8610 0.8340 0.8609
1655.132172 0.8641 0.8921 0.9210 0.9210 0.9220
1659.830695 0.9220 0.9240 0.9240 0.9210 0.9110
1664.529218 0.9080 0.9090 0.9180 0.9190 0.9190
1669.227741 0.9190 0.9190 0.8980 0.9190 0.9190
1673.926264 0.9180 0.9169 0.8980 0.8950 0.8960
1678.624787 0.9170 0.9170 0.9140 0.9110 0.9060
1683.323310 0.8820 0.8769 0.8511 0.8851 0.9150
1688.021832 0.9150 0.9140 0.9150 0.9170 0.9170
1692.720355 0.9170 0.9170 0.9170 0.9170 0.9120
1697.418878 0.8980 0.8830 0.8680 0.8540 0.8660
1702.117401 0.8761 0.9090 0.9110 0.9140 0.9140
1706.815924 0.9140 0.9150 0.9170 0.9180 0.9190
1711.514447 0.9190 0.9190 0.9190 0.9180 0.9180
1716.212970 0.9030 0.8890 0.8860 0.8870 0.9150
1720.911492 0.9180 0.9180 0.9190 0.9190 0.9190
1725.610015 0.9180 0.9180 0.9170 0.9150 0.9140
1730.308538 0.9110 0.9090 0.9080 0.8900 0.8710
1735.007061 0.8710 0.8800 0.8980 0.8980 0.8930
1739.705584 0.8860 0.8830 0.8820 0.8820 0.8820
1744.404107 0.8800 0.8800 0.8800 0.8800 0.8800
1749.102630 0.8770 0.8740 0.8680 0.8740 0.8800
1753.801152 0.8800 0.8820 0.8830 0.8830 0.8850
1758.499675 0.8860 0.8870 0.8900 0.8920 0.8950
1763.198198 0.8960 0.8980 0.8980 0.8950 0.9010
1767.896721 0.9020 0.9020 0.8930 0.8900 0.8920
1772.595244 0.8980 0.9020 0.9080 0.9110 0.9110
1777.293767 0.9120 0.9120 0.9120 0.9120 0.9120
1781.992290 0.9120 0.9120 0.9120 0.9120 0.9120
1786.690812 0.9110 0.9110 0.9090 0.9090 0.9030
1791.389335 0.9010 0.9020 0.9060 0.9090 0.9120
1796.087858 0.9140 0.9150 0.9170 0.9180 0.9190
1800.786381 0.9250 0.9270 0.9280 0.9300 0.9310
1805.484904 0.9310 0.9330 0.9330 0.9340 0.9340
1810.183427 0.9340 0.9340 0.9350 0.9350 0.9350
1814.881950 0.9350 0.9370 0.9370 0.9370 0.9370
1819.580473 0.9380 0.9370 0.9370 0.9370 0.9350
1824.278995 0.9340 0.9340 0.9330 0.9330 0.9330
1828.977518 0.9340 0.9340 0.9340 0.9350 0.9380
1833.676041 0.9380 0.9380 0.9370 0.9370 0.9350
1838.374564 0.9350 0.9350 0.9340 0.9310 0.9240
1843.073087 0.9210 0.9220 0.9310 0.9310 0.9330
1847.771610 0.9330 0.9310 0.9310 0.9310 0.9310
1852.470133 0.9300 0.9300 0.9300 0.9300 0.9300
1857.168655 0.9280 0.9280 0.9280 0.9270 0.9270
1861.867178 0.9270 0.9270 0.9270 0.9270 0.9270
1866.565701 0.9250 0.9250 0.9220 0.9220 0.9210
1871.264224 0.9220 0.9250 0.9280 0.9280 0.9300
1875.962747 0.9300 0.9300 0.9300 0.9300 0.9280
1880.661270 0.9280 0.9270 0.9270 0.9250 0.9270
1885.359793 0.9250 0.9250 0.9240 0.9240 0.9220
1890.058315 0.9220 0.9210 0.9210 0.9190 0.9190
1894.756838 0.9180 0.9180 0.9170 0.9170 0.9150
1899.455361 0.9140 0.9140 0.9120 0.9120 0.9110
1904.153884 0.9110 0.9090 0.9090 0.9080 0.9060
1908.852407 0.9060 0.9050 0.9030 0.9020 0.9010
1913.550930 0.8990 0.8980 0.8960 0.8950 0.8930
1918.249453 0.8920 0.8890 0.8870 0.8820 0.8800
1922.947975 0.8800 0.8800 0.8800 0.8800 0.8820
1927.646498 0.8820 0.8830 0.8830 0.8850 0.8850
1932.345021 0.8850 0.8830 0.8830 0.8820 0.8820
1937.043544 0.8800 0.8800 0.8820 0.8820 0.8830
1941.742067 0.8830 0.8850 0.8850 0.8850 0.8860
1946.440590 0.8860 0.8860 0.8850 0.8850 0.8830
1951.139113 0.8820 0.8790 0.8760 0.8730 0.8710
1955.837635 0.8700 0.8680 0.8640 0.8600 0.8550
1960.536158 0.8520 0.8480 0.8350 0.8280 0.8250
1965.234681 0.8180 0.8130 0.8120 0.8000 0.7910
1969.933204 0.7780 0.7720 0.7640 0.7550 0.7430
1974.631727 0.7400 0.7390 0.7390 0.7390 0.7400
1979.330250 0.7400 0.7430 0.7450 0.7480 0.7490
1984.028773 0.7540 0.7580 0.7620 0.7670 0.7740
1988.727295 0.7800 0.7860 0.7910 0.8030 0.8180
1993.425818 0.8250 0.8290 0.8310 0.8320 0.8350
1998.124341 0.8410 0.8580 0.8770 0.8815 0.8860
2002.822864 0.8905 0.8950 0.8980 0.9010 0.9075
2007.521387 0.9140 0.9145 0.9150 0.9150 0.9150
2012.219910 0.9165 0.9180 0.9195 0.9210 0.9230
2016.918433 0.9250 0.9260 0.9270 0.9275 0.9280
2021.616956 0.9280 0.9280 0.9290 0.9300 0.9305
2026.315478 0.9310 0.9310 0.9310 0.9325 0.9340
2031.014001 0.9345 0.9350 0.9360 0.9370 0.9375
2035.712524 0.9380 0.9390 0.9400 0.9405 0.9410
2040.411047 0.9420 0.9430 0.9430 0.9430 0.9430
2045.109570 0.9430 0.9430 0.9430 0.9430 0.9430
2049.808093 0.9435 0.9440 0.9440 0.9440 0.9440
2054.506616 0.9440 0.9440 0.9440 0.9440 0.9440
2059.205138 0.9440 0.9440 0.9440 0.9440 0.9440
2063.903661 0.9440 0.9435 0.9430 0.9430 0.9430
2068.602184 0.9420 0.9410 0.9410 0.9410 0.9410
2073.300707 0.9410 0.9410 0.9410 0.9405 0.9400
2077.999230 0.9400 0.9400 0.9390 0.9380 0.9380
2082.697753 0.9380 0.9375 0.9370 0.9370 0.9370
2087.396276 0.9360 0.9350 0.9345 0.9340 0.9340
2092.094798 0.9340 0.9340 0.9340 0.9340 0.9340
2096.793321 0.9340 0.9340 0.9340 0.9340 0.9345
2101.491844 0.9350 0.9350 0.9350 0.9350 0.9350
2106.190367 0.9350 0.9350 0.9350 0.9350 0.9360
2110.888890 0.9370 0.9390 0.9410 0.9410 0.9410
2115.587413 0.9420 0.9430 0.9430 0.9430 0.9430
2120.285936 0.9430 0.9430 0.9430 0.9430 0.9430
2124.984458 0.9420 0.9410 0.9410 0.9410 0.9405
2129.682981 0.9400 0.9390 0.9380 0.9380 0.9380
2134.381504 0.9375 0.9370 0.9360 0.9350 0.9350
2139.080027 0.9350 0.9345 0.9340 0.9335 0.9330
2143.778550 0.9330 0.9330 0.9330 0.9330 0.9320
2148.477073 0.9310 0.9305 0.9299 0.9274 0.9250
2153.175596 0.9230 0.9210 0.9190 0.9170 0.9160
2157.874118 0.9150 0.9150 0.9150 0.9145 0.9140
2162.572641 0.9125 0.9110 0.9110 0.9110 0.9100
2167.271164 0.9090 0.9090 0.9090 0.9090 0.9090
2171.969687 0.9090 0.9090 0.9090 0.9090 0.9090
2176.668210 0.9090 0.9090 0.9090 0.9100 0.9110
2181.366733 0.9115 0.9120 0.9120 0.9120 0.9120
2186.065256 0.9120 0.9130 0.9140 0.9140 0.9140
2190.763778 0.9145 0.9150 0.9150 0.9150 0.9150
2195.462301 0.9150 0.9150 0.9150 0.9150 0.9150
2200.160824 0.9145 0.9140 0.9140 0.9140 0.9140
2204.859347 0.9140 0.9140 0.9140 0.9140 0.9140
2209.557870 0.9140 0.9140 0.9140 0.9140 0.9140
2214.256393 0.9140 0.9140 0.9140 0.9140 0.9140
2218.954916 0.9140 0.9140 0.9140 0.9140 0.9140
2223.653439 0.9140 0.9140 0.9140 0.9140 0.9140
2228.351961 0.9140 0.9140 0.9140 0.9140 0.9140
2233.050484 0.9140 0.9140 0.9140 0.9140 0.9140
2237.749007 0.9140 0.9140 0.9145 0.9150 0.9150
2242.447530 0.9150 0.9160 0.9170 0.9170 0.9170
2247.146053 0.9175 0.9180 0.9180 0.9180 0.9180
2251.844576 0.9180 0.9175 0.9170 0.9170 0.9170
2256.543099 0.9170 0.9170 0.9160 0.9150 0.9150
2261.241621 0.9150 0.9135 0.9119 0.9104 0.9090
2265.940144 0.9085 0.9080 0.9080 0.9080 0.9070
2270.638667 0.9060 0.9045 0.9030 0.9025 0.9020
2275.337190 0.9005 0.8990 0.8985 0.8980 0.8970
2280.035713 0.8960 0.8955 0.8950 0.8940 0.8929
2284.734236 0.8914 0.8899 0.8884 0.8870 0.8870
2289.432759 0.8870 0.8865 0.8860 0.8860 0.8860
2294.131281 0.8855 0.8850 0.8850 0.8850 0.8850
2298.829804 0.8850 0.8855 0.8860 0.8865 0.8871
2303.528327 0.8886 0.8901 0.8926 0.8950 0.8955
2308.226850 0.8961 0.8986 0.9011 0.9036 0.9061
2312.925373 0.9086 0.9110 0.9115 0.9121 0.9156
2317.623896 0.9190 0.9206 0.9220 0.9230 0.9241
2322.322419 0.9276 0.9310 0.9320 0.9330 0.9335
2327.020941 0.9340 0.9345 0.9350 0.9350 0.9350
2331.719464 0.9360 0.9370 0.9375 0.9380 0.9380
2336.417987 0.9380 0.9396 0.9410 0.9420 0.9430
2341.116510 0.9435 0.9440 0.9440 0.9440 0.9450
2345.815033 0.9460 0.9465 0.9471 0.9486 0.9500
2350.513556 0.9505 0.9510 0.9510 0.9510 0.9520
2355.212079 0.9530 0.9535 0.9540 0.9540 0.9540
2359.910601 0.9540 0.9540 0.9540 0.9540 0.9540
2364.609124 0.9540 0.9540 0.9540 0.9540 0.9540
2369.307647 0.9540 0.9540 0.9535 0.9530 0.9530
2374.006170 0.9530 0.9520 0.9510 0.9505 0.9500
2378.704693 0.9500 0.9500 0.9495 0.9490 0.9480
2383.403216 0.9470 0.9465 0.9460 0.9450 0.9440
2388.101739 0.9440 0.9440 0.9435 0.9430 0.9420
2392.800262 0.9410 0.9405 0.9399 0.9384 0.9370
2397.498784 0.9370 0.9370 0.9360 0.9350 0.9345
2402.197307 0.9340 0.9335 0.9330 0.9330 0.9330
2406.895830 0.9320 0.9310 0.9305 0.9300 0.9290
2411.594353 0.9280 0.9275 0.9269 0.9259 0.9250
2416.292876 0.9245 0.9240 0.9230 0.9220 0.9215
2420.991399 0.9210 0.9200 0.9190 0.9185 0.9180
2425.689922 0.9175 0.9170 0.9170 0.9170 0.9160
2430.388444 0.9150 0.9150 0.9150 0.9150 0.9150
2435.086967 0.9150 0.9150 0.9150 0.9151 0.9160
2439.785490 0.9170 0.9170 0.9170 0.9180 0.9190
2444.484013 0.9200 0.9210 0.9215 0.9220 0.9230
2449.182536 0.9241 0.9256 0.9270 0.9275 0.9281
2453.881059 0.9296 0.9311 0.9321 0.9330 0.9330
2458.579582 0.9331 0.9340 0.9350 0.9360 0.9371
2463.278104 0.9386 0.9400 0.9405 0.9411 0.9426
2467.976627 0.9440 0.9451 0.9460 0.9465 0.9471
2472.675150 0.9481 0.9490 0.9495 0.9500 0.9500
2477.373673 0.9500 0.9505 0.9510 0.9510 0.9510
2482.072196 0.9510 0.9510 0.9510 0.9510 0.9510
2486.770719 0.9510 0.9510 0.9510 0.9510 0.9510
2491.469242 0.9510 0.9510 0.9510 0.9510 0.9510
2496.167764 0.9510 0.9510 0.9510 0.9510 0.9510
2500.866287 0.9510 0.9510 0.9510 0.9510 0.9510
2505.564810 0.9510 0.9505 0.9500 0.9500 0.9500
2510.263333 0.9500 0.9500 0.9500 0.9500 0.9500
2514.961856 0.9500 0.9500 0.9500 0.9500 0.9500
2519.660379 0.9500 0.9500 0.9500 0.9500 0.9500
2524.358902 0.9500 0.9500 0.9500 0.9500 0.9500
2529.057424 0.9500 0.9500 0.9500 0.9500 0.9495
2533.755947 0.9490 0.9490 0.9490 0.9490 0.9490
2538.454470 0.9490 0.9490 0.9490 0.9490 0.9490
2543.152993 0.9489 0.9479 0.9470 0.9470 0.9470
2547.851516 0.9465 0.9460 0.9460 0.9459 0.9449
2552.550039 0.9440 0.9435 0.9429 0.9419 0.9410
2557.248562 0.9405 0.9400 0.9400 0.9399 0.9389
2561.947084 0.9380 0.9380 0.9380 0.9375 0.9369
2566.645607 0.9359 0.9349 0.9339 0.9329 0.9319
2571.344130 0.9308 0.9278 0.9247 0.9208 0.9170
2576.042653 0.9170 0.9169 0.9144 0.9118 0.9083
2580.741176 0.9048 0.9018 0.8987 0.8952 0.8918
2585.439699 0.8893 0.8869 0.8859 0.8848 0.8823
2590.138222 0.8799 0.8779 0.8758 0.8733 0.8709
2594.836745 0.8689 0.8668 0.8633 0.8598 0.8558
2599.535267 0.8519 0.8493 0.8468 0.8438 0.8408
2604.233790 0.8378 0.8348 0.8318 0.8289 0.8274
2608.932313 0.8260 0.8255 0.8249 0.8239 0.8230
2613.630836 0.8230 0.8231 0.8241 0.8250 0.8255
2618.329359 0.8262 0.8287 0.8312 0.8332 0.8351
2623.027882 0.8366 0.8382 0.8401 0.8422 0.8447
2627.726405 0.8471 0.8486 0.8500 0.8505 0.8510
2632.424927 0.8515 0.8522 0.8547 0.8571 0.8586
2637.123450 0.8600 0.8600 0.8600 0.8605 0.8611
2641.821973 0.8626 0.8640 0.8640 0.8641 0.8651
2646.520496 0.8660 0.8660 0.8660 0.8660 0.8659
2651.219019 0.8649 0.8640 0.8635 0.8630 0.8630
2655.917542 0.8629 0.8619 0.8610 0.8605 0.8599
2660.616065 0.8589 0.8580 0.8575 0.8569 0.8554
2665.314587 0.8539 0.8524 0.8510 0.8505 0.8498
2670.013110 0.8473 0.8449 0.8429 0.8408 0.8373
2674.711633 0.8336 0.8281 0.8229 0.8214 0.8199
2679.410156 0.8189 0.8175 0.8115 0.8053 0.7963
2684.108679 0.7876 0.7826 0.7777 0.7737 0.7699
2688.807202 0.7684 0.7669 0.7659 0.7649 0.7629
2693.505725 0.7609 0.7594 0.7579 0.7569 0.7555
2698.204247 0.7500 0.7445 0.7385 0.7322 0.7222
2702.902770 0.7127 0.7087 0.7047 0.7007 0.6968
2707.601293 0.6943 0.6920 0.6920 0.6920 0.6920
2712.299816 0.6920 0.6920 0.6920 0.6915 0.6910
2716.998339 0.6910 0.6909 0.6899 0.6889 0.6879
2721.696862 0.6867 0.6827 0.6788 0.6768 0.6749
2726.395385 0.6739 0.6730 0.6730 0.6728 0.6709
2731.093907 0.6689 0.6668 0.6649 0.6634 0.6615
2735.792430 0.6565 0.6518 0.6493 0.6467 0.6427
2740.490953 0.6384 0.6314 0.6242 0.6142 0.6048
2745.189476 0.6028 0.6008 0.5983 0.5958 0.5938
2749.887999 0.5918 0.5898 0.5878 0.5853 0.5826
2754.586522 0.5781 0.5735 0.5680 0.5627 0.5592
2759.285045 0.5559 0.5544 0.5527 0.5487 0.5446
2763.983567 0.5396 0.5346 0.5301 0.5257 0.5217
2768.682090 0.5175 0.5115 0.5054 0.4994 0.4929
2773.380613 0.4814 0.4698 0.4568 0.4448 0.4428
2778.079136 0.4405 0.4350 0.4297 0.4262 0.4220
2782.777659 0.4105 0.3993 0.3913 0.3833 0.3753
2787.476182 0.3666 0.3495 0.3333 0.3263 0.3190
2792.174705 0.3085 0.2988 0.2963 0.2936 0.2896
2796.873228 0.2857 0.2822 0.2787 0.2757 0.2727
2801.571750 0.2697 0.2670 0.2670 0.2672 0.2697
2806.270273 0.2722 0.2742 0.2758 0.2743 0.2725
2810.968796 0.2670 0.2609 0.2499 0.2391 0.2296
2815.667319 0.2206 0.2166 0.2127 0.2092 0.2057
2820.365842 0.2027 0.1997 0.1962 0.1927 0.1897
2825.064365 0.1867 0.1837 0.1806 0.1766 0.1721
2829.762888 0.1631 0.1542 0.1462 0.1383 0.1313
2834.461410 0.1241 0.1146 0.1054 0.0994 0.0934
2839.159933 0.0869 0.0793 0.0603 0.0420 0.0305
2843.858456 0.0199 0.0184 0.0168 0.0153 0.0138
2848.556979 0.0123 0.0110 0.0110 0.0109 0.0105
2853.255502 0.0100 0.0100 0.0099 0.0089 0.0080
2857.954025 0.0080 0.0081 0.0091 0.0100 0.0100
2862.652548 0.0100 0.0100 0.0100 0.0100 0.0100
2867.351070 0.0100 0.0101 0.0106 0.0110 0.0110
2872.049593 0.0111 0.0121 0.0130 0.0130 0.0130
2876.748116 0.0130 0.0130 0.0135 0.0140 0.0140
2881.446639 0.0141 0.0151 0.0161 0.0166 0.0170
2886.145162 0.0170 0.0171 0.0176 0.0181 0.0191
2890.843685 0.0204 0.0239 0.0274 0.0309 0.0343
2895.542208 0.0373 0.0401 0.0416 0.0433 0.0468
2900.240730 0.0512 0.0633 0.0743 0.0773 0.0804
2904.939253 0.0844 0.0881 0.0891 0.0907 0.0972
2909.637776 0.1035 0.1085 0.1131 0.1136 0.1152
2914.336299 0.1272 0.1391 0.1501 0.1601 0.1616
2919.034822 0.1629 0.1613 0.1600 0.1600 0.1597
2923.733345 0.1572 0.1546 0.1506 0.1463 0.1403
2928.431868 0.1345 0.1295 0.1244 0.1184 0.1122
2933.130390 0.1042 0.0961 0.0876 0.0792 0.0717
2937.828913 0.0648 0.0628 0.0605 0.0565 0.0527
2942.527436 0.0502 0.0477 0.0452 0.0428 0.0413
2947.225959 0.0400 0.0400 0.0400 0.0400 0.0400
2951.924482 0.0400 0.0400 0.0400 0.0400 0.0400
2956.623005 0.0399 0.0394 0.0388 0.0373 0.0358
2961.321528 0.0338 0.0317 0.0292 0.0268 0.0248
2966.020051 0.0228 0.0213 0.0198 0.0178 0.0158
2970.718573 0.0143 0.0130 0.0130 0.0129 0.0119
2975.417096 0.0110 0.0110 0.0110 0.0110 0.0110
2980.115619 0.0110 0.0110 0.0110 0.0110 0.0110
2984.814142 0.0110 0.0110 0.0111 0.0121 0.0131
2989.512665 0.0136 0.0141 0.0151 0.0161 0.0166
2994.211188 0.0171 0.0176 0.0181 0.0191 0.0201
2998.909711 0.0206 0.0213 0.0238 0.0262 0.0282
3003.608233 0.0301 0.0311 0.0326 0.0376 0.0431
3008.306756 0.0531 0.0658 0.0992 0.1301 0.1401
3013.005279 0.1500 0.1596 0.1704 0.1894 0.2083
3017.703802 0.2268 0.2453 0.2638 0.2831 0.3086
3022.402325 0.3369 0.3858 0.4346 0.4821 0.5252
3027.100848 0.5357 0.5468 0.5628 0.5795 0.6020
3031.799371 0.6241 0.6433 0.6638 0.6933 0.7234
3036.497893 0.7579 0.7909 0.8139 0.8342 0.8362
3041.196416 0.8382 0.8397 0.8412 0.8427 0.8444
3045.894939 0.8479 0.8512 0.8527 0.8542 0.8562
3050.593462 0.8583 0.8608 0.8632 0.8647 0.8661
3055.291985 0.8666 0.8670 0.8670 0.8671 0.8676
3059.990508 0.8680 0.8680 0.8681 0.8691 0.8700
3064.689031 0.8700 0.8700 0.8700 0.8700 0.8700
3069.387553 0.8700 0.8700 0.8701 0.8706 0.8710
3074.086076 0.8710 0.8710 0.8710 0.8711 0.8721
3078.784599 0.8730 0.8730 0.8730 0.8730 0.8732
3083.483122 0.8747 0.8761 0.8766 0.8771 0.8781
3088.181645 0.8791 0.8796 0.8801 0.8811 0.8822
3092.880168 0.8837 0.8851 0.8861 0.8871 0.8881
3097.578691 0.8892 0.8907 0.8923 0.8943 0.8964
3102.277213 0.8999 0.9034 0.9064 0.9091 0.9101
3106.975736 0.9112 0.9127 0.9143 0.9163 0.9182
3111.674259 0.9197 0.9213 0.9233 0.9255 0.9295
3116.372782 0.9333 0.9358 0.9382 0.9397 0.9413
3121.071305 0.9438 0.9463 0.9482 0.9501 0.9506
3125.769828 0.9511 0.9521 0.9531 0.9536 0.9541
3130.468351 0.9551 0.9560 0.9560 0.9560 0.9560
3135.166873 0.9560 0.9560 0.9559 0.9549 0.9540
3139.865396 0.9540 0.9539 0.9534 0.9530 0.9530
3144.563919 0.9529 0.9519 0.9509 0.9504 0.9500
3149.262442 0.9500 0.9499 0.9494 0.9490 0.9490
3153.960965 0.9488 0.9473 0.9460 0.9460 0.9459
3158.659488 0.9449 0.9440 0.9440 0.9439 0.9434
3163.358011 0.9429 0.9419 0.9410 0.9410 0.9409
3168.056534 0.9404 0.9399 0.9389 0.9380 0.9380
3172.755056 0.9379 0.9374 0.9369 0.9359 0.9349
3177.453579 0.9344 0.9339 0.9334 0.9330 0.9330
3182.152102 0.9328 0.9313 0.9298 0.9283 0.9270
3186.850625 0.9270 0.9268 0.9253 0.9240 0.9240
3191.549148 0.9239 0.9229 0.9219 0.9214 0.9209
3196.247671 0.9199 0.9189 0.9184 0.9179 0.9174
3200.946194 0.9169 0.9159 0.9150 0.9150 0.9149
3205.644716 0.9144 0.9140 0.9140 0.9139 0.9129
3210.343239 0.9120 0.9120 0.9120 0.9120 0.9121
3215.041762 0.9131 0.9140 0.9140 0.9141 0.9146
3219.740285 0.9151 0.9161 0.9170 0.9170 0.9171
3224.438808 0.9176 0.9182 0.9197 0.9211 0.9216
3229.137331 0.9222 0.9237 0.9252 0.9267 0.9286
3233.835854 0.9331 0.9375 0.9410 0.9441 0.9451
3238.534376 0.9463 0.9489 0.9512 0.9527 0.9542
3243.232899 0.9552 0.9562 0.9577 0.9592 0.9607
3247.931422 0.9623 0.9643 0.9664 0.9694 0.9721
3252.629945 0.9726 0.9732 0.9747 0.9761 0.9771
3257.328468 0.9780 0.9780 0.9781 0.9786 0.9790
3262.026991 0.9790 0.9792 0.9802 0.9810 0.9810
3266.725514 0.9810 0.9810 0.9810 0.9810 0.9810
3271.424036 0.9810 0.9810 0.9810 0.9810 0.9810
3276.122559 0.9810 0.9810 0.9811 0.9816 0.9820
3280.821082 0.9820 0.9820 0.9820 0.9820 0.9820
3285.519605 0.9820 0.9820 0.9820 0.9820 0.9819
3290.218128 0.9814 0.9811 0.9816 0.9820 0.9820
3294.916651 0.9820 0.9820 0.9820 0.9820 0.9820
3299.615174 0.9820 0.9820 0.9820 0.9821 0.9826
3304.313696 0.9830 0.9830 0.9830 0.9830 0.9830
3309.012219 0.9830 0.9830 0.9830 0.9831 0.9841
3313.710742 0.9850 0.9850 0.9851 0.9856 0.9860
3318.409265 0.9860 0.9860 0.9860 0.9862 0.9872
3323.107788 0.9880 0.9880 0.9880 0.9880 0.9880
3327.806311 0.9880 0.9880 0.9880 0.9881 0.9886
3332.504834 0.9890 0.9890 0.9890 0.9890 0.9890
3337.203356 0.9890 0.9890 0.9890 0.9890 0.9890
3341.901879 0.9890 0.9890 0.9889 0.9884 0.9880
3346.600402 0.9880 0.9880 0.9880 0.9880 0.9880
3351.298925 0.9880 0.9880 0.9880 0.9880 0.9880
3355.997448 0.9880 0.9880 0.9880 0.9878 0.9868
3360.695971 0.9862 0.9872 0.9880 0.9880 0.9880
3365.394494 0.9880 0.9880 0.9880 0.9880 0.9880
3370.093017 0.9880 0.9880 0.9880 0.9880 0.9878
3374.791539 0.9868 0.9860 0.9860 0.9860 0.9860
3379.490062 0.9860 0.9860 0.9859 0.9854 0.9848
3384.188585 0.9838 0.9830 0.9830 0.9829 0.9824
3388.887108 0.9820 0.9820 0.9820 0.9820 0.9819
3393.585631 0.9814 0.9810 0.9810 0.9810 0.9810
3398.284154 0.9810 0.9810 0.9808 0.9798 0.9789
3402.982677 0.9784 0.9780 0.9780 0.9780 0.9780
3407.681199 0.9778 0.9768 0.9760 0.9760 0.9760
3412.379722 0.9760 0.9760 0.9760 0.9760 0.9760
3417.078245 0.9759 0.9754 0.9750 0.9750 0.9750
3421.776768 0.9750 0.9750 0.9750 0.9751 0.9756
3426.475291 0.9760 0.9760 0.9762 0.9772 0.9781
3431.173814 0.9786 0.9792 0.9802 0.9811 0.9816
3435.872337 0.9821 0.9826 0.9830 0.9830 0.9832
3440.570859 0.9842 0.9851 0.9856 0.9862 0.9872
3445.269382 0.9881 0.9886 0.9890 0.9890 0.9892
3449.967905 0.9902 0.9910 0.9910 0.9911 0.9916
3454.666428 0.9920 0.9920 0.9920 0.9920 0.9920
3459.364951 0.9920 0.9920 0.9920 0.9920 0.9920
3464.063474 0.9920 0.9920 0.9920 0.9920 0.9920
3468.761997 0.9920 0.9920 0.9920 0.9920 0.9920
3473.460519 0.9920 0.9920 0.9922 0.9932 0.9940
3478.159042 0.9940 0.9940 0.9940 0.9941 0.9946
3482.857565 0.9950 0.9950 0.9950 0.9950 0.9950
3487.556088 0.9950 0.9950 0.9950 0.9950 0.9950
3492.254611 0.9950 0.9950 0.9950 0.9950 0.9950
3496.953134 0.9950 0.9950 0.9950 0.9950 0.9950
3501.651657 0.9950 0.9950 0.9950 0.9950 0.9950
3506.350179 0.9950 0.9950 0.9950 0.9950 0.9950
3511.048702 0.9950 0.9950 0.9950 0.9950 0.9950
3515.747225 0.9950 0.9950 0.9950 0.9950 0.9950
3520.445748 0.9950 0.9950 0.9950 0.9950 0.9950
3525.144271 0.9950 0.9949 0.9944 0.9940 0.9940
3529.842794 0.9940 0.9940 0.9938 0.9928 0.9920
3534.541317 0.9920 0.9920 0.9920 0.9920 0.9920
3539.239840 0.9920 0.9920 0.9920 0.9920 0.9922
3543.938362 0.9932 0.9940 0.9940 0.9940 0.9940
3548.636885 0.9940 0.9940 0.9940 0.9940 0.9940
3553.335408 0.9940 0.9940 0.9940 0.9940 0.9940
3558.033931 0.9937 0.9922 0.9910 0.9910 0.9910
3562.732454 0.9910 0.9910 0.9910 0.9908 0.9898
3567.430977 0.9892 0.9902 0.9911 0.9916 0.9922
3572.129500 0.9932 0.9941 0.9946 0.9953 0.9968
3576.828022 0.9979 0.9974 0.9968 0.9958 0.9947
3581.526545 0.9932 0.9914 0.9884 0.9857 0.9842
3586.225068 0.9832 0.9842 0.9851 0.9856 0.9862
3590.923591 0.9872 0.9881 0.9886 0.9890 0.9890
3595.622114 0.9892 0.9902 0.9910 0.9910 0.9910
3600.320637 0.9910 0.9910 0.9910 0.9907 0.9892
3605.019160 0.9880 0.9880 0.9878 0.9868 0.9860
3609.717682 0.9860 0.9860 0.9860 0.9860 0.9860
3614.416205 0.9860 0.9860 0.9860 0.9860 0.9862
3619.114728 0.9872 0.9881 0.9886 0.9892 0.9902
3623.813251 0.9900 0.9850 0.9807 0.9792 0.9781
3628.511774 0.9786 0.9793 0.9808 0.9824 0.9844
3633.210297 0.9865 0.9890 0.9914 0.9934 0.9950
3637.908820 0.9950 0.9950 0.9950 0.9949 0.9944
3642.607342 0.9938 0.9928 0.9916 0.9896 0.9875
3647.305865 0.9850 0.9828 0.9818 0.9811 0.9816
3652.004388 0.9823 0.9838 0.9853 0.9868 0.9881
3656.702911 0.9886 0.9879 0.9824 0.9774 0.9744
3661.401434 0.9714 0.9684 0.9656 0.9636 0.9615
3666.099957 0.9590 0.9566 0.9546 0.9537 0.9572
3670.798480 0.9600 0.9600 0.9600 0.9600 0.9599
3675.497002 0.9594 0.9591 0.9596 0.9603 0.9618
3680.195525 0.9627 0.9612 0.9597 0.9582 0.9567
3684.894048 0.9552 0.9545 0.9570 0.9585 0.9560
3689.592571 0.9548 0.9588 0.9620 0.9620 0.9621
3694.291094 0.9626 0.9632 0.9642 0.9651 0.9656
3698.989617 0.9661 0.9666 0.9670 0.9670 0.9672
3703.688140 0.9682 0.9691 0.9696 0.9702 0.9712
3708.386662 0.9721 0.9726 0.9730 0.9730 0.9732
3713.085185 0.9742 0.9750 0.9750 0.9751 0.9756
3717.783708 0.9760 0.9760 0.9760 0.9760 0.9762
3722.482231 0.9772 0.9780 0.9780 0.9781 0.9786
3727.180754 0.9790 0.9790 0.9786 0.9766 0.9742
3731.879277 0.9702 0.9668 0.9658 0.9651 0.9656
3736.577800 0.9667 0.9702 0.9738 0.9778 0.9810
3741.276323 0.9810 0.9811 0.9816 0.9820 0.9820
3745.974845 0.9821 0.9826 0.9832 0.9842 0.9850
3750.673368 0.9850 0.9847 0.9832 0.9820 0.9820
3755.371891 0.9821 0.9826 0.9836 0.9866 0.9890
3760.070414 0.9890 0.9892 0.9902 0.9911 0.9916
3764.768937 0.9922 0.9932 0.9941 0.9946 0.9950
3769.467460 0.9950 0.9952 0.9962 0.9971 0.9976
3774.165983 0.9980 0.9980 0.9977 0.9962 0.9950
3778.864505 0.9950 0.9949 0.9944 0.9940 0.9940
3783.563028 0.9940 0.9940 0.9940 0.9940 0.9941
3788.261551 0.9946 0.9953 0.9968 0.9980 0.9980
3792.960074 0.9980 0.9980 0.9980 0.9980 0.9980
3797.658597 0.9980 0.9980 0.9980 0.9980 0.9980
##END=
