##TITLE=THIOUREA
##JCAMP-DX=4.24
##DATA TYPE=INFRARED SPECTRUM
##CLASS=COBLENTZ III
##ORIGIN=DOW CORNING CORP.
##OWNER=COBLENTZ SOCIETY
Collection (C) 2018 copyright by the U.S. Secretary of Commerce
on behalf of the United States of America. All rights reserved.
##DATE=1966
##CAS REGISTRY NO=62-56-6
##MOLFORM=C H4 N2 S
##SOURCE REFERENCE=COBLENTZ NO. 4841
##$NIST SOURCE=COBLENTZ
##$NIST IMAGE=cob4841
##SPECTROMETER/DATA SYSTEM=PERKIN-ELMER 521 (GRATING)
##INSTRUMENT PARAMETERS=FILTERS AT 3150, 2500, 2000, 1150, 700, 410; GRATING CHANGES AT 2000, 630 CM^-^1
##STATE=SOLID (MINERAL OIL MULL)
##PATH LENGTH=
$$SPECTRAL CONTAMINATIN DUE TO OIL AROUND 2900 CM^-^1
##SAMPLING PROCEDURE=TRANSMISSION
##RESOLUTION=4
##DATA PROCESSING=DIGITIZED BY NIST FROM HARD COPY (FROM TWO SEGMENTS)
##XUNITS=1/CM
##YUNITS=TRANSMITTANCE
##XFACTOR=1.000000
##YFACTOR=1
##DELTAX=0.984145
##FIRSTX=234.445
##LASTX=3792.13
##FIRSTY=0.868
##MAXX=3792.13
##MINX=234.445
##MAXY=0.967
##MINY=0.123
##NPOINTS=3616
##XYDATA=(X++(Y..Y))
234.445000 0.8680 0.8680 0.8680 0.8680 0.8680
239.365727 0.8670 0.8670 0.8650 0.8650 0.8640
244.286454 0.8640 0.8640 0.8640 0.8640 0.8640
249.207180 0.8640 0.8640 0.8640 0.8640 0.8640
254.127907 0.8630 0.8630 0.8630 0.8630 0.8630
259.048634 0.8630 0.8630 0.8630 0.8630 0.8630
263.969361 0.8630 0.8630 0.8630 0.8640 0.8640
268.890088 0.8650 0.8670 0.8710 0.8720 0.8730
273.810814 0.8730 0.8750 0.8750 0.8770 0.8790
278.731541 0.8800 0.8810 0.8830 0.8830 0.8840
283.652268 0.8870 0.8880 0.8890 0.8890 0.8890
288.572995 0.8910 0.8910 0.8920 0.8920 0.8930
293.493722 0.8930 0.8930 0.8930 0.8930 0.8920
298.414448 0.8920 0.8920 0.8920 0.8920 0.8920
303.335175 0.8920 0.8920 0.8910 0.8910 0.8910
308.255902 0.8910 0.8910 0.8890 0.8890 0.8880
313.176629 0.8880 0.8880 0.8870 0.8870 0.8850
318.097355 0.8850 0.8850 0.8840 0.8840 0.8830
323.018082 0.8810 0.8810 0.8800 0.8790 0.8770
327.938809 0.8770 0.8760 0.8760 0.8750 0.8750
332.859536 0.8730 0.8730 0.8730 0.8730 0.8720
337.780263 0.8720 0.8710 0.8710 0.8690 0.8690
342.700989 0.8680 0.8670 0.8640 0.8630 0.8600
347.621716 0.8590 0.8560 0.8550 0.8510 0.8510
352.542443 0.8480 0.8460 0.8440 0.8440 0.8420
357.463170 0.8400 0.8400 0.8360 0.8320 0.8290
362.383897 0.8260 0.8250 0.8240 0.8210 0.8180
367.304623 0.8160 0.8160 0.8140 0.8130 0.8100
372.225350 0.8080 0.8060 0.8050 0.8040 0.8010
377.146077 0.8010 0.8000 0.8000 0.7980 0.7970
382.066804 0.7970 0.7980 0.8020 0.7970 0.7930
386.987531 0.7860 0.7770 0.7730 0.7660 0.7610
391.908257 0.7550 0.7500 0.7440 0.7430 0.7380
396.828984 0.7240 0.7160 0.7140 0.7080 0.7000
401.749711 0.6930 0.6880 0.6840 0.6800 0.6760
406.670438 0.6690 0.6640 0.6550 0.6450 0.6261
411.591165 0.6020 0.5830 0.5710 0.5580 0.5540
416.511891 0.5540 0.5580 0.5670 0.5700 0.5700
421.432618 0.5650 0.5590 0.5540 0.5420 0.5380
426.353345 0.5350 0.5280 0.5190 0.5041 0.5020
431.274072 0.4920 0.4810 0.4760 0.4690 0.4630
436.194798 0.4570 0.4520 0.4480 0.4370 0.4290
441.115525 0.4250 0.4200 0.4160 0.4080 0.4010
446.036252 0.3970 0.3970 0.3950 0.3890 0.3810
450.956979 0.3740 0.3670 0.3630 0.3610 0.3580
455.877706 0.3570 0.3540 0.3530 0.3500 0.3470
460.798432 0.3460 0.3440 0.3430 0.3430 0.3430
465.719159 0.3430 0.3430 0.3440 0.3440 0.3460
470.639886 0.3460 0.3470 0.3470 0.3480 0.3500
475.560613 0.3510 0.3510 0.3530 0.3530 0.3530
480.481340 0.3530 0.3500 0.3460 0.3430 0.3400
485.402066 0.3360 0.3320 0.3280 0.3270 0.3270
490.322793 0.3270 0.3280 0.3300 0.3320 0.3340
495.243520 0.3360 0.3380 0.3390 0.3420 0.3430
500.164247 0.3440 0.3460 0.3480 0.3510 0.3540
505.084974 0.3540 0.3570 0.3590 0.3630 0.3670
510.005700 0.3710 0.3750 0.3770 0.3780 0.3790
514.926427 0.3820 0.3850 0.3890 0.3900 0.3970
519.847154 0.4020 0.4080 0.4120 0.4170 0.4200
524.767881 0.4250 0.4260 0.4340 0.4380 0.4440
529.688608 0.4480 0.4550 0.4590 0.4650 0.4710
534.609334 0.4770 0.4800 0.4850 0.4920 0.4960
539.530061 0.5030 0.5160 0.5180 0.5190 0.5260
544.450788 0.5300 0.5360 0.5400 0.5460 0.5480
549.371515 0.5500 0.5590 0.5660 0.5690 0.5730
554.292241 0.5770 0.5830 0.5900 0.5930 0.5950
559.212968 0.6010 0.6050 0.6090 0.6160 0.6180
564.133695 0.6250 0.6320 0.6340 0.6380 0.6420
569.054422 0.6460 0.6510 0.6530 0.6640 0.6670
573.975149 0.6680 0.6730 0.6760 0.6790 0.6850
578.895875 0.6890 0.6920 0.6960 0.7000 0.7030
583.816602 0.7080 0.7110 0.7160 0.7190 0.7220
588.737329 0.7300 0.7340 0.7350 0.7360 0.7380
593.658056 0.7390 0.7420 0.7460 0.7470 0.7480
598.578783 0.7480 0.7500 0.7500 0.7500 0.7480
603.499509 0.7470 0.7460 0.7430 0.7400 0.7350
608.420236 0.7270 0.7260 0.7190 0.7070 0.7000
613.340963 0.6950 0.6870 0.6800 0.6770 0.6760
618.261690 0.6760 0.6720 0.6680 0.6630 0.6600
623.182417 0.6570 0.6560 0.6550 0.6530 0.6520
628.103143 0.6490 0.6480 0.6460 0.6460 0.6450
633.023870 0.6450 0.6450 0.6450 0.6450 0.6460
637.944597 0.6490 0.6590 0.6610 0.6730 0.6920
642.865324 0.7020 0.7150 0.7280 0.7439 0.7550
647.786051 0.7650 0.7780 0.7900 0.8010 0.8180
652.706777 0.8220 0.8260 0.8330 0.8370 0.8380
657.627504 0.8410 0.8420 0.8450 0.8510 0.8520
662.548231 0.8530 0.8560 0.8570 0.8590 0.8590
667.468958 0.8600 0.8600 0.8640 0.8750 0.8760
672.389684 0.8770 0.8790 0.8790 0.8800 0.8840
677.310411 0.8930 0.9120 0.9200 0.9260 0.9270
682.231138 0.9280 0.9280 0.9300 0.9300 0.9310
687.151865 0.9310 0.9310 0.9310 0.9300 0.9280
692.072592 0.9280 0.9280 0.9270 0.9260 0.9240
696.993318 0.9230 0.9220 0.9200 0.9160 0.9140
701.914045 0.9110 0.9100 0.9030 0.8990 0.8950
706.834772 0.8930 0.8890 0.8810 0.8710 0.8680
711.755499 0.8610 0.8440 0.8400 0.8330 0.8171
716.676226 0.8040 0.7910 0.7770 0.7580 0.7350
721.596952 0.7041 0.6831 0.6641 0.6481 0.6331
726.517679 0.6250 0.6160 0.5790 0.5231 0.4930
731.438406 0.4641 0.4341 0.4340 0.4838 0.5079
736.359133 0.5320 0.5570 0.5580 0.6339 0.6889
741.279860 0.7738 0.7969 0.8179 0.8329 0.8489
746.200586 0.8600 0.8650 0.8730 0.8800 0.8890
751.121313 0.8920 0.8930 0.8960 0.8960 0.9030
756.042040 0.9060 0.9070 0.9080 0.9100 0.9110
760.962767 0.9110 0.9100 0.9100 0.9100 0.9080
765.883494 0.9080 0.9070 0.9070 0.9060 0.9040
770.804220 0.9040 0.9040 0.9040 0.9040 0.9060
775.724947 0.9060 0.9070 0.9080 0.9080 0.9100
780.645674 0.9110 0.9120 0.9140 0.9160 0.9180
785.566401 0.9200 0.9230 0.9240 0.9260 0.9280
790.487127 0.9300 0.9300 0.9310 0.9310 0.9300
795.407854 0.9280 0.9270 0.9260 0.9240 0.9230
800.328581 0.9230 0.9230 0.9240 0.9260 0.9270
805.249308 0.9300 0.9320 0.9340 0.9350 0.9360
810.170035 0.9380 0.9380 0.9380 0.9390 0.9390
815.090761 0.9400 0.9420 0.9420 0.9420 0.9420
820.011488 0.9400 0.9400 0.9390 0.9390 0.9380
824.932215 0.9380 0.9380 0.9380 0.9380 0.9380
829.852942 0.9380 0.9360 0.9360 0.9350 0.9350
834.773669 0.9340 0.9310 0.9240 0.9230 0.9190
839.694395 0.9160 0.9150 0.9140 0.9110 0.9100
844.615122 0.9080 0.9080 0.9080 0.9080 0.9080
849.535849 0.9070 0.9070 0.9060 0.9040 0.9040
854.456576 0.9030 0.9030 0.9030 0.9030 0.9030
859.377303 0.9020 0.9020 0.9000 0.8990 0.8990
864.298029 0.8970 0.8960 0.8950 0.8930 0.8930
869.218756 0.8920 0.8870 0.8840 0.8810 0.8800
874.139483 0.8770 0.8730 0.8730 0.8720 0.8720
879.060210 0.8710 0.8680 0.8670 0.8650 0.8640
883.980937 0.8600 0.8510 0.8480 0.8450 0.8410
888.901663 0.8380 0.8380 0.8370 0.8370 0.8360
893.822390 0.8340 0.8340 0.8330 0.8330 0.8330
898.743117 0.8330 0.8320 0.8290 0.8280 0.8260
903.663844 0.8250 0.8250 0.8220 0.8170 0.8160
908.584570 0.8140 0.8090 0.8090 0.8060 0.8010
913.505297 0.7980 0.7970 0.7950 0.7940 0.7940
918.426024 0.7900 0.7890 0.7870 0.7870 0.7860
923.346751 0.7850 0.7790 0.7780 0.7730 0.7700
928.267478 0.7700 0.7670 0.7660 0.7650 0.7630
933.188204 0.7620 0.7620 0.7610 0.7610 0.7590
938.108931 0.7590 0.7580 0.7570 0.7570 0.7570
943.029658 0.7550 0.7550 0.7540 0.7540 0.7530
947.950385 0.7510 0.7510 0.7480 0.7470 0.7440
952.871112 0.7420 0.7400 0.7400 0.7390 0.7380
957.791838 0.7380 0.7360 0.7350 0.7350 0.7350
962.712565 0.7340 0.7340 0.7340 0.7320 0.7310
967.633292 0.7310 0.7310 0.7300 0.7300 0.7280
972.554019 0.7280 0.7280 0.7300 0.7300 0.7310
977.474746 0.7320 0.7340 0.7350 0.7360 0.7360
982.395472 0.7380 0.7380 0.7380 0.7380 0.7380
987.316199 0.7380 0.7380 0.7380 0.7360 0.7360
992.236926 0.7350 0.7350 0.7350 0.7350 0.7340
997.157653 0.7340 0.7320 0.7300 0.7280 0.7270
1002.078380 0.7260 0.7260 0.7240 0.7220 0.7200
1006.999106 0.7190 0.7190 0.7160 0.7120 0.7120
1011.919833 0.7110 0.7100 0.7070 0.7070 0.7060
1016.840560 0.7030 0.7030 0.7020 0.7000 0.6990
1021.761287 0.6960 0.6950 0.6930 0.6930 0.6880
1026.682013 0.6810 0.6790 0.6790 0.6770 0.6750
1031.602740 0.6720 0.6710 0.6690 0.6690 0.6680
1036.523467 0.6670 0.6650 0.6640 0.6600 0.6530
1041.444194 0.6490 0.6460 0.6420 0.6400 0.6370
1046.364921 0.6370 0.6340 0.6300 0.6260 0.6220
1051.285647 0.6180 0.6120 0.6060 0.6040 0.6020
1056.206374 0.6010 0.6010 0.6000 0.5930 0.5820
1061.127101 0.5750 0.5730 0.5700 0.5650 0.5590
1066.047828 0.5420 0.5390 0.5280 0.5230 0.5071
1070.968555 0.5020 0.4930 0.4890 0.4810 0.4710
1075.889281 0.4570 0.4450 0.4380 0.4241 0.4041
1080.810008 0.4010 0.4010 0.4020 0.4040 0.4080
1085.730735 0.4100 0.4160 0.4240 0.4320 0.4360
1090.651462 0.4550 0.4710 0.4950 0.5070 0.5140
1095.572189 0.5240 0.5300 0.5420 0.5480 0.5540
1100.492915 0.5660 0.5750 0.5820 0.5870 0.5890
1105.413642 0.5900 0.5950 0.5980 0.6040 0.6100
1110.334369 0.6160 0.6180 0.6180 0.6200 0.6200
1115.255096 0.6200 0.6210 0.6210 0.6210 0.6220
1120.175823 0.6220 0.6240 0.6240 0.6240 0.6240
1125.096549 0.6220 0.6200 0.6180 0.6170 0.6140
1130.017276 0.6140 0.6130 0.6130 0.6130 0.6130
1134.938003 0.6130 0.6130 0.6120 0.6120 0.6120
1139.858730 0.6100 0.6100 0.6100 0.6090 0.6090
1144.779456 0.6090 0.6090 0.6090 0.6080 0.6080
1149.700183 0.6080 0.6060 0.6060 0.6060 0.6060
1154.620910 0.6080 0.6080 0.6090 0.6090 0.6090
1159.541637 0.6090 0.6090 0.6100 0.6120 0.6120
1164.462364 0.6120 0.6130 0.6130 0.6140 0.6160
1169.383090 0.6160 0.6180 0.6200 0.6210 0.6220
1174.303817 0.6240 0.6280 0.6300 0.6320 0.6320
1179.224544 0.6330 0.6330 0.6360 0.6360 0.6370
1184.145271 0.6370 0.6380 0.6380 0.6400 0.6400
1189.065998 0.6410 0.6410 0.6410 0.6410 0.6420
1193.986724 0.6420 0.6420 0.6420 0.6420 0.6420
1198.907451 0.6420 0.6420 0.6420 0.6420 0.6440
1203.828178 0.6440 0.6450 0.6450 0.6460 0.6460
1208.748905 0.6480 0.6480 0.6490 0.6490 0.6490
1213.669632 0.6510 0.6510 0.6510 0.6510 0.6510
1218.590358 0.6520 0.6520 0.6520 0.6520 0.6520
1223.511085 0.6520 0.6520 0.6520 0.6530 0.6530
1228.431812 0.6530 0.6530 0.6550 0.6550 0.6550
1233.352539 0.6550 0.6530 0.6530 0.6530 0.6530
1238.273266 0.6530 0.6530 0.6520 0.6520 0.6520
1243.193992 0.6520 0.6520 0.6520 0.6520 0.6520
1248.114719 0.6520 0.6520 0.6530 0.6530 0.6530
1253.035446 0.6530 0.6530 0.6530 0.6530 0.6550
1257.956173 0.6550 0.6550 0.6550 0.6560 0.6550
1262.876899 0.6550 0.6550 0.6560 0.6560 0.6560
1267.797626 0.6560 0.6560 0.6550 0.6550 0.6550
1272.718353 0.6550 0.6550 0.6530 0.6530 0.6520
1277.639080 0.6520 0.6520 0.6520 0.6510 0.6510
1282.559807 0.6490 0.6480 0.6460 0.6460 0.6450
1287.480533 0.6410 0.6410 0.6400 0.6370 0.6360
1292.401260 0.6340 0.6330 0.6320 0.6300 0.6290
1297.321987 0.6280 0.6280 0.6260 0.6250 0.6220
1302.242714 0.6210 0.6210 0.6210 0.6210 0.6210
1307.163441 0.6210 0.6210 0.6210 0.6210 0.6210
1312.084167 0.6210 0.6210 0.6210 0.6210 0.6210
1317.004894 0.6200 0.6200 0.6200 0.6170 0.6160
1321.925621 0.6130 0.6080 0.6050 0.6020 0.6020
1326.846348 0.6000 0.6000 0.5980 0.5970 0.5950
1331.767075 0.5890 0.5810 0.5700 0.5660 0.5630
1336.687801 0.5590 0.5460 0.5380 0.5310 0.5270
1341.608528 0.5240 0.5240 0.5190 0.5120 0.5080
1346.529255 0.5040 0.5030 0.5000 0.4930 0.4880
1351.449982 0.4800 0.4760 0.4710 0.4690 0.4670
1356.370709 0.4610 0.4550 0.4380 0.4290 0.4040
1361.291435 0.3950 0.3790 0.3631 0.3471 0.3360
1366.212162 0.3300 0.3270 0.3260 0.3200 0.2800
1371.132889 0.2670 0.2550 0.2440 0.2410 0.2400
1376.053616 0.2400 0.2410 0.2490 0.2520 0.2630
1380.974342 0.2810 0.2890 0.2960 0.3070 0.3309
1385.895069 0.3460 0.3570 0.3780 0.3860 0.3940
1390.815796 0.4000 0.4010 0.4000 0.3950 0.3900
1395.736523 0.3860 0.3770 0.3620 0.3470 0.3300
1400.657250 0.3140 0.3000 0.2890 0.2830 0.2710
1405.577976 0.2680 0.2610 0.2560 0.2510 0.2460
1410.498703 0.2450 0.2440 0.2440 0.2440 0.2450
1415.419430 0.2460 0.2510 0.2550 0.2630 0.2650
1420.340157 0.2760 0.2790 0.2840 0.2890 0.3000
1425.260884 0.3110 0.3240 0.3380 0.3440 0.3550
1430.181610 0.3620 0.3660 0.3660 0.3650 0.3630
1435.102337 0.3540 0.3260 0.3190 0.3110 0.2950
1440.023064 0.2790 0.2630 0.2560 0.2490 0.2380
1444.943791 0.2250 0.2160 0.2100 0.2080 0.1980
1449.864518 0.1910 0.1850 0.1770 0.1740 0.1710
1454.785244 0.1700 0.1690 0.1690 0.1670 0.1670
1459.705971 0.1670 0.1690 0.1690 0.1700 0.1700
1464.626698 0.1730 0.1740 0.1770 0.1810 0.1850
1469.547425 0.1870 0.1900 0.1930 0.2000 0.2100
1474.468152 0.2220 0.2400 0.2570 0.2800 0.3100
1479.388878 0.3739 0.4339 0.4869 0.5149 0.5479
1484.309605 0.5650 0.5810 0.6050 0.6340 0.6460
1489.230332 0.6770 0.6930 0.7120 0.7240 0.7310
1494.151059 0.7420 0.7530 0.7620 0.7670 0.7780
1499.071785 0.7830 0.7910 0.7950 0.8000 0.8040
1503.992512 0.8080 0.8100 0.8170 0.8260 0.8300
1508.913239 0.8320 0.8340 0.8360 0.8360 0.8360
1513.833966 0.8370 0.8380 0.8380 0.8400 0.8400
1518.754693 0.8400 0.8400 0.8400 0.8400 0.8400
1523.675419 0.8400 0.8380 0.8380 0.8370 0.8360
1528.596146 0.8360 0.8340 0.8330 0.8330 0.8330
1533.516873 0.8320 0.8320 0.8320 0.8300 0.8290
1538.437600 0.8280 0.8200 0.8170 0.8140 0.8120
1543.358327 0.8060 0.8050 0.8040 0.8020 0.8000
1548.279053 0.8000 0.7970 0.7940 0.7900 0.7810
1553.199780 0.7750 0.7690 0.7660 0.7650 0.7610
1558.120507 0.7580 0.7510 0.7460 0.7400 0.7380
1563.041234 0.7340 0.7280 0.7260 0.7190 0.7180
1567.961961 0.7180 0.7120 0.7070 0.6891 0.6830
1572.882687 0.6770 0.6710 0.6680 0.6640 0.6600
1577.803414 0.6510 0.6410 0.6280 0.6160 0.6010
1582.724141 0.5930 0.5860 0.5690 0.5620 0.5340
1587.644868 0.5300 0.5031 0.4890 0.4641 0.4520
1592.565595 0.4370 0.4180 0.4000 0.3890 0.3690
1597.486321 0.3610 0.3390 0.3081 0.2751 0.2690
1602.407048 0.2570 0.2520 0.2510 0.2510 0.2510
1607.327775 0.2510 0.2520 0.2530 0.2570 0.2590
1612.248502 0.2610 0.2630 0.2650 0.2690 0.2720
1617.169228 0.2750 0.2790 0.2830 0.2870 0.2910
1622.089955 0.2990 0.3020 0.3150 0.3310 0.3729
1627.010682 0.3950 0.4140 0.4718 0.5149 0.5459
1631.931409 0.5770 0.5980 0.6200 0.6370 0.6480
1636.852136 0.6770 0.7109 0.7479 0.7939 0.8249
1641.772862 0.8340 0.8450 0.8520 0.8570 0.8730
1646.693589 0.8830 0.8890 0.8990 0.9100 0.9150
1651.614316 0.9190 0.9190 0.9200 0.9200 0.9230
1656.535043 0.9260 0.9280 0.9310 0.9340 0.9360
1661.455770 0.9470 0.9480 0.9550 0.9570 0.9580
1666.376496 0.9580 0.9590 0.9590 0.9610 0.9610
1671.297223 0.9630 0.9630 0.9650 0.9650 0.9650
1676.217950 0.9650 0.9660 0.9660 0.9660 0.9670
1681.138677 0.9670 0.9670 0.9670 0.9670 0.9670
1686.059404 0.9670 0.9670 0.9670 0.9670 0.9670
1690.980130 0.9670 0.9670 0.9670 0.9670 0.9670
1695.900857 0.9670 0.9670 0.9670 0.9660 0.9660
1700.821584 0.9660 0.9660 0.9650 0.9650 0.9650
1705.742311 0.9650 0.9650 0.9650 0.9650 0.9650
1710.663038 0.9650 0.9630 0.9630 0.9630 0.9630
1715.583764 0.9630 0.9650 0.9650 0.9650 0.9650
1720.504491 0.9630 0.9630 0.9630 0.9630 0.9630
1725.425218 0.9630 0.9630 0.9620 0.9620 0.9620
1730.345945 0.9610 0.9610 0.9590 0.9590 0.9590
1735.266671 0.9580 0.9580 0.9580 0.9570 0.9570
1740.187398 0.9550 0.9550 0.9540 0.9530 0.9510
1745.108125 0.9510 0.9510 0.9510 0.9510 0.9500
1750.028852 0.9500 0.9510 0.9510 0.9510 0.9500
1754.949579 0.9500 0.9500 0.9500 0.9500 0.9500
1759.870305 0.9480 0.9500 0.9480 0.9480 0.9470
1764.791032 0.9470 0.9460 0.9440 0.9440 0.9440
1769.711759 0.9440 0.9430 0.9440 0.9430 0.9430
1774.632486 0.9430 0.9430 0.9430 0.9430 0.9430
1779.553213 0.9430 0.9420 0.9430 0.9430 0.9420
1784.473939 0.9420 0.9420 0.9400 0.9400 0.9400
1789.394666 0.9400 0.9400 0.9390 0.9390 0.9390
1794.315393 0.9380 0.9380 0.9360 0.9360 0.9360
1799.236120 0.9350 0.9350 0.9340 0.9340 0.9320
1804.156847 0.9320 0.9320 0.9320 0.9310 0.9310
1809.077573 0.9300 0.9300 0.9280 0.9280 0.9280
1813.998300 0.9270 0.9270 0.9270 0.9270 0.9280
1818.919027 0.9280 0.9300 0.9320 0.9340 0.9340
1823.839754 0.9360 0.9360 0.9360 0.9380 0.9380
1828.760481 0.9400 0.9400 0.9400 0.9420 0.9420
1833.681207 0.9420 0.9420 0.9420 0.9430 0.9420
1838.601934 0.9420 0.9420 0.9430 0.9420 0.9420
1843.522661 0.9420 0.9420 0.9420 0.9420 0.9420
1848.443388 0.9420 0.9400 0.9420 0.9420 0.9420
1853.364114 0.9400 0.9400 0.9400 0.9400 0.9400
1858.284841 0.9400 0.9400 0.9400 0.9390 0.9390
1863.205568 0.9390 0.9380 0.9380 0.9380 0.9380
1868.126295 0.9380 0.9360 0.9360 0.9350 0.9350
1873.047022 0.9340 0.9350 0.9340 0.9340 0.9340
1877.967748 0.9340 0.9340 0.9340 0.9340 0.9340
1882.888475 0.9340 0.9340 0.9340 0.9340 0.9340
1887.809202 0.9320 0.9320 0.9320 0.9340 0.9340
1892.729929 0.9340 0.9340 0.9340 0.9340 0.9320
1897.650656 0.9320 0.9320 0.9320 0.9320 0.9320
1902.571382 0.9310 0.9310 0.9310 0.9310 0.9310
1907.492109 0.9310 0.9300 0.9300 0.9280 0.9280
1912.412836 0.9280 0.9280 0.9280 0.9280 0.9280
1917.333563 0.9280 0.9300 0.9280 0.9280 0.9280
1922.254290 0.9280 0.9270 0.9270 0.9270 0.9260
1927.175016 0.9260 0.9260 0.9270 0.9260 0.9240
1932.095743 0.9240 0.9240 0.9240 0.9240 0.9240
1937.016470 0.9230 0.9230 0.9230 0.9230 0.9240
1941.937197 0.9240 0.9240 0.9240 0.9240 0.9240
1946.857924 0.9240 0.9240 0.9240 0.9230 0.9220
1951.778650 0.9220 0.9200 0.9200 0.9200 0.9220
1956.699377 0.9200 0.9200 0.9200 0.9200 0.9200
1961.620104 0.9200 0.9200 0.9190 0.9190 0.9180
1966.540831 0.9180 0.9190 0.9190 0.9190 0.9180
1971.461557 0.9180 0.9180 0.9180 0.9180 0.9160
1976.382284 0.9160 0.9160 0.9150 0.9150 0.9140
1981.303011 0.9140 0.9120 0.9120 0.9120 0.9110
1986.223738 0.9110 0.9100 0.9100 0.9080 0.9080
1991.144465 0.9070 0.9070 0.9060 0.9060 0.9060
1996.065191 0.9060 0.9060 0.9060 0.9040 0.9040
2000.985918 0.9035 0.9030 0.9030 0.9030 0.9015
2005.906645 0.9000 0.8995 0.8990 0.8980 0.8970
2010.827372 0.8965 0.8960 0.8955 0.8950 0.8950
2015.748099 0.8950 0.8940 0.8930 0.8920 0.8910
2020.668825 0.8910 0.8910 0.8900 0.8890 0.8885
2025.589552 0.8880 0.8880 0.8880 0.8875 0.8870
2030.510279 0.8870 0.8870 0.8870 0.8870 0.8870
2035.431006 0.8870 0.8875 0.8880 0.8895 0.8910
2040.351733 0.8920 0.8930 0.8930 0.8930 0.8940
2045.272459 0.8950 0.8950 0.8950 0.8955 0.8960
2050.193186 0.8960 0.8960 0.8960 0.8960 0.8960
2055.113913 0.8960 0.8960 0.8960 0.8960 0.8960
2060.034640 0.8955 0.8950 0.8950 0.8950 0.8950
2064.955367 0.8950 0.8940 0.8930 0.8930 0.8930
2069.876093 0.8925 0.8920 0.8915 0.8909 0.8889
2074.796820 0.8870 0.8855 0.8839 0.8819 0.8799
2079.717547 0.8784 0.8770 0.8765 0.8760 0.8760
2084.638274 0.8760 0.8755 0.8749 0.8734 0.8720
2089.559000 0.8720 0.8720 0.8715 0.8710 0.8710
2094.479727 0.8710 0.8700 0.8690 0.8690 0.8690
2099.400454 0.8690 0.8690 0.8685 0.8680 0.8680
2104.321181 0.8680 0.8680 0.8680 0.8680 0.8680
2109.241908 0.8685 0.8690 0.8690 0.8690 0.8700
2114.162634 0.8710 0.8710 0.8710 0.8721 0.8731
2119.083361 0.8741 0.8750 0.8750 0.8750 0.8750
2124.004088 0.8750 0.8750 0.8750 0.8750 0.8750
2128.924815 0.8750 0.8750 0.8750 0.8750 0.8750
2133.845542 0.8749 0.8739 0.8730 0.8730 0.8730
2138.766268 0.8730 0.8730 0.8730 0.8730 0.8730
2143.686995 0.8730 0.8725 0.8720 0.8715 0.8710
2148.607722 0.8710 0.8710 0.8710 0.8710 0.8710
2153.528449 0.8710 0.8710 0.8710 0.8710 0.8710
2158.449176 0.8710 0.8710 0.8710 0.8709 0.8699
2163.369902 0.8691 0.8701 0.8709 0.8699 0.8690
2168.290629 0.8690 0.8690 0.8685 0.8680 0.8680
2173.211356 0.8680 0.8680 0.8680 0.8680 0.8680
2178.132083 0.8680 0.8680 0.8680 0.8680 0.8680
2183.052810 0.8680 0.8680 0.8680 0.8675 0.8670
2187.973536 0.8670 0.8670 0.8670 0.8670 0.8670
2192.894263 0.8670 0.8670 0.8670 0.8670 0.8671
2197.814990 0.8676 0.8678 0.8663 0.8651 0.8661
2202.735717 0.8670 0.8670 0.8670 0.8670 0.8670
2207.656444 0.8670 0.8670 0.8670 0.8670 0.8670
2212.577170 0.8670 0.8670 0.8670 0.8670 0.8669
2217.497897 0.8659 0.8649 0.8644 0.8640 0.8640
2222.418624 0.8640 0.8640 0.8640 0.8640 0.8640
2227.339351 0.8640 0.8640 0.8640 0.8639 0.8634
2232.260077 0.8630 0.8630 0.8630 0.8630 0.8630
2237.180804 0.8630 0.8629 0.8619 0.8611 0.8621
2242.101531 0.8629 0.8619 0.8610 0.8610 0.8609
2247.022258 0.8604 0.8600 0.8600 0.8600 0.8600
2251.942985 0.8600 0.8600 0.8600 0.8600 0.8600
2256.863711 0.8600 0.8599 0.8594 0.8590 0.8590
2261.784438 0.8589 0.8579 0.8569 0.8564 0.8560
2266.705165 0.8560 0.8559 0.8554 0.8548 0.8533
2271.625892 0.8519 0.8514 0.8510 0.8510 0.8508
2276.546619 0.8498 0.8489 0.8484 0.8478 0.8463
2281.467345 0.8449 0.8444 0.8438 0.8428 0.8420
2286.388072 0.8420 0.8419 0.8414 0.8410 0.8410
2291.308799 0.8409 0.8404 0.8399 0.8388 0.8379
2296.229526 0.8374 0.8369 0.8364 0.8358 0.8348
2301.150253 0.8340 0.8340 0.8339 0.8334 0.8330
2306.070979 0.8330 0.8330 0.8330 0.8330 0.8330
2310.991706 0.8330 0.8330 0.8330 0.8330 0.8330
2315.912433 0.8330 0.8329 0.8324 0.8318 0.8308
2320.833160 0.8300 0.8300 0.8300 0.8300 0.8300
2325.753887 0.8300 0.8300 0.8300 0.8299 0.8294
2330.674613 0.8290 0.8290 0.8289 0.8284 0.8280
2335.595340 0.8280 0.8280 0.8280 0.8278 0.8268
2340.516067 0.8260 0.8260 0.8260 0.8260 0.8260
2345.436794 0.8260 0.8262 0.8272 0.8280 0.8280
2350.357520 0.8281 0.8286 0.8291 0.8296 0.8302
2355.278247 0.8312 0.8320 0.8320 0.8320 0.8320
2360.198974 0.8320 0.8320 0.8320 0.8320 0.8320
2365.119701 0.8320 0.8320 0.8320 0.8317 0.8302
2370.040428 0.8290 0.8290 0.8289 0.8284 0.8280
2374.961154 0.8280 0.8280 0.8280 0.8280 0.8280
2379.881881 0.8280 0.8280 0.8280 0.8280 0.8280
2384.802608 0.8280 0.8280 0.8280 0.8280 0.8280
2389.723335 0.8278 0.8268 0.8260 0.8260 0.8260
2394.644062 0.8260 0.8260 0.8260 0.8262 0.8272
2399.564788 0.8278 0.8268 0.8260 0.8260 0.8259
2404.485515 0.8254 0.8250 0.8250 0.8249 0.8244
2409.406242 0.8240 0.8240 0.8240 0.8240 0.8240
2414.326969 0.8240 0.8240 0.8240 0.8238 0.8228
2419.247696 0.8219 0.8214 0.8210 0.8210 0.8209
2424.168422 0.8204 0.8200 0.8200 0.8198 0.8188
2429.089149 0.8180 0.8180 0.8179 0.8174 0.8166
2434.009876 0.8151 0.8140 0.8140 0.8139 0.8134
2438.930603 0.8130 0.8130 0.8129 0.8124 0.8120
2443.851330 0.8120 0.8118 0.8108 0.8100 0.8100
2448.772056 0.8098 0.8088 0.8080 0.8080 0.8076
2453.692783 0.8061 0.8050 0.8050 0.8049 0.8044
2458.613510 0.8040 0.8040 0.8040 0.8040 0.8041
2463.534237 0.8046 0.8061 0.8106 0.8145 0.8165
2468.454963 0.8190 0.8230 0.8260 0.8260 0.8259
2473.375690 0.8254 0.8249 0.8244 0.8235 0.8215
2478.296417 0.8196 0.8181 0.8166 0.8151 0.8139
2483.217144 0.8134 0.8130 0.8130 0.8129 0.8124
2488.137871 0.8120 0.8120 0.8116 0.8101 0.8089
2493.058597 0.8084 0.8077 0.8067 0.8059 0.8054
2497.979324 0.8049 0.8044 0.8036 0.8021 0.8009
2502.900051 0.8004 0.7997 0.7987 0.7979 0.7974
2507.820778 0.7967 0.7957 0.7949 0.7944 0.7940
2512.741505 0.7940 0.7939 0.7934 0.7930 0.7930
2517.662231 0.7926 0.7911 0.7896 0.7881 0.7869
2522.582958 0.7864 0.7859 0.7854 0.7847 0.7837
2527.503685 0.7829 0.7824 0.7816 0.7801 0.7784
2532.424412 0.7764 0.7744 0.7724 0.7707 0.7697
2537.345139 0.7687 0.7677 0.7669 0.7664 0.7659
2542.265865 0.7654 0.7647 0.7637 0.7630 0.7630
2547.186592 0.7629 0.7624 0.7619 0.7613 0.7607
2552.107319 0.7597 0.7590 0.7590 0.7590 0.7590
2557.028046 0.7587 0.7577 0.7565 0.7550 0.7538
2561.948773 0.7533 0.7527 0.7517 0.7505 0.7491
2566.869499 0.7474 0.7454 0.7438 0.7433 0.7428
2571.790226 0.7423 0.7417 0.7407 0.7394 0.7374
2576.710953 0.7354 0.7334 0.7314 0.7294 0.7274
2581.631680 0.7254 0.7240 0.7240 0.7234 0.7214
2586.552406 0.7198 0.7193 0.7185 0.7170 0.7157
2591.473133 0.7147 0.7140 0.7140 0.7135 0.7120
2596.393860 0.7108 0.7103 0.7093 0.7074 0.7054
2601.314587 0.7034 0.7017 0.7007 0.6998 0.6993
2606.235314 0.6985 0.6970 0.6958 0.6953 0.6945
2611.156040 0.6930 0.6913 0.6893 0.6878 0.6873
2616.076767 0.6865 0.6850 0.6835 0.6820 0.6807
2620.997494 0.6797 0.6785 0.6770 0.6755 0.6740
2625.918221 0.6727 0.6717 0.6705 0.6690 0.6678
2630.838948 0.6673 0.6666 0.6656 0.6650 0.6650
2635.759674 0.6648 0.6643 0.6633 0.6613 0.6595
2640.680401 0.6580 0.6560 0.6530 0.6505 0.6490
2645.601128 0.6475 0.6460 0.6436 0.6396 0.6363
2650.521855 0.6343 0.6325 0.6310 0.6298 0.6293
2655.442582 0.6281 0.6256 0.6227 0.6192 0.6157
2660.363308 0.6122 0.6086 0.6046 0.6018 0.6013
2665.284035 0.6003 0.5983 0.5963 0.5943 0.5923
2670.204762 0.5903 0.5886 0.5876 0.5868 0.5863
2675.125489 0.5858 0.5853 0.5846 0.5836 0.5830
2680.046216 0.5830 0.5830 0.5830 0.5830 0.5830
2684.966942 0.5834 0.5844 0.5850 0.5850 0.5852
2689.887669 0.5857 0.5862 0.5867 0.5878 0.5898
2694.808396 0.5914 0.5924 0.5934 0.5944 0.5961
2699.729123 0.5991 0.6016 0.6031 0.6042 0.6047
2704.649849 0.6052 0.6057 0.6060 0.6060 0.6060
2709.570576 0.6060 0.6064 0.6074 0.6080 0.6080
2714.491303 0.6082 0.6087 0.6090 0.6090 0.6092
2719.412030 0.6097 0.6106 0.6121 0.6140 0.6165
2724.332757 0.6188 0.6208 0.6236 0.6276 0.6314
2729.253483 0.6349 0.6386 0.6426 0.6452 0.6457
2734.174210 0.6466 0.6481 0.6494 0.6504 0.6514
2739.094937 0.6524 0.6534 0.6544 0.6550 0.6550
2744.015664 0.6552 0.6557 0.6560 0.6560 0.6560
2748.936391 0.6560 0.6560 0.6560 0.6558 0.6553
2753.857117 0.6546 0.6536 0.6526 0.6516 0.6506
2758.777844 0.6496 0.6484 0.6469 0.6448 0.6418
2763.698571 0.6396 0.6386 0.6376 0.6366 0.6356
2768.619298 0.6346 0.6336 0.6326 0.6314 0.6299
2773.540025 0.6288 0.6283 0.6265 0.6230 0.6202
2778.460751 0.6182 0.6162 0.6142 0.6103 0.6038
2783.381478 0.5981 0.5936 0.5899 0.5874 0.5836
2788.302205 0.5781 0.5737 0.5707 0.5675 0.5640
2793.222932 0.5589 0.5519 0.5460 0.5415 0.5370
2798.143659 0.5325 0.5274 0.5214 0.5158 0.5108
2803.064385 0.5061 0.5016 0.4983 0.4968 0.4924
2807.985112 0.4844 0.4775 0.4720 0.4663 0.4603
2812.905839 0.4534 0.4454 0.4372 0.4287 0.4213
2817.826566 0.4153 0.4111 0.4091 0.4005 0.3835
2822.747292 0.3705 0.3625 0.3544 0.3463 0.3360
2827.668019 0.3230 0.3102 0.2977 0.2813 0.2604
2832.588746 0.2453 0.2373 0.2305 0.2250 0.2170
2837.509473 0.2060 0.1907 0.1702 0.1563 0.1503
2842.430200 0.1454 0.1419 0.1391 0.1371 0.1358
2847.350926 0.1353 0.1348 0.1343 0.1340 0.1340
2852.271653 0.1340 0.1340 0.1342 0.1347 0.1352
2857.192380 0.1357 0.1360 0.1360 0.1360 0.1360
2862.113107 0.1365 0.1375 0.1380 0.1380 0.1380
2867.033834 0.1380 0.1380 0.1380 0.1380 0.1380
2871.954560 0.1380 0.1380 0.1380 0.1380 0.1375
2876.875287 0.1365 0.1360 0.1360 0.1358 0.1353
2881.796014 0.1350 0.1350 0.1348 0.1343 0.1335
2886.716741 0.1325 0.1318 0.1313 0.1308 0.1303
2891.637468 0.1295 0.1285 0.1278 0.1273 0.1268
2896.558194 0.1263 0.1260 0.1260 0.1255 0.1245
2901.478921 0.1240 0.1240 0.1238 0.1233 0.1230
2906.399648 0.1230 0.1230 0.1230 0.1230 0.1230
2911.320375 0.1230 0.1230 0.1233 0.1238 0.1240
2916.241102 0.1240 0.1245 0.1255 0.1262 0.1267
2921.161828 0.1272 0.1277 0.1280 0.1280 0.1285
2926.082555 0.1295 0.1303 0.1308 0.1313 0.1318
2931.003282 0.1320 0.1320 0.1328 0.1343 0.1350
2935.924009 0.1350 0.1353 0.1358 0.1365 0.1375
2940.844735 0.1385 0.1395 0.1405 0.1415 0.1420
2945.765462 0.1420 0.1423 0.1428 0.1430 0.1430
2950.686189 0.1430 0.1430 0.1438 0.1453 0.1460
2955.606916 0.1460 0.1465 0.1475 0.1485 0.1495
2960.527643 0.1510 0.1530 0.1548 0.1563 0.1573
2965.448369 0.1578 0.1588 0.1603 0.1621 0.1641
2970.369096 0.1655 0.1665 0.1699 0.1754 0.1823
2975.289823 0.1903 0.1951 0.1971 0.2020 0.2095
2980.210550 0.2212 0.2367 0.2443 0.2448 0.2491
2985.131277 0.2566 0.2647 0.2731 0.2789 0.2824
2990.052003 0.2889 0.2979 0.3044 0.3089 0.3121
2994.972730 0.3141 0.3183 0.3242 0.3305 0.3370
2999.893457 0.3430 0.3485 0.3537 0.3588 0.3632
3004.814184 0.3672 0.3701 0.3721 0.3744 0.3769
3009.734911 0.3783 0.3788 0.3807 0.3837 0.3864
3014.655637 0.3889 0.3914 0.3939 0.3964 0.3989
3019.576364 0.4014 0.4039 0.4053 0.4058 0.4066
3024.497091 0.4076 0.4080 0.4080 0.4083 0.4088
3029.417818 0.4090 0.4090 0.4087 0.4082 0.4080
3034.338545 0.4080 0.4080 0.4080 0.4080 0.4080
3039.259271 0.4074 0.4064 0.4060 0.4060 0.4057
3044.179998 0.4052 0.4050 0.4050 0.4041 0.4026
3049.100725 0.4017 0.4012 0.4007 0.4002 0.3994
3054.021452 0.3984 0.3980 0.3980 0.3969 0.3949
3058.942178 0.3931 0.3916 0.3910 0.3910 0.3904
3063.862905 0.3894 0.3881 0.3866 0.3845 0.3820
3068.783632 0.3804 0.3794 0.3778 0.3758 0.3735
3073.704359 0.3710 0.3677 0.3637 0.3600 0.3565
3078.625086 0.3524 0.3479 0.3448 0.3428 0.3408
3083.545812 0.3388 0.3368 0.3348 0.3334 0.3324
3088.466539 0.3317 0.3312 0.3310 0.3310 0.3310
3093.387266 0.3310 0.3310 0.3310 0.3313 0.3318
3098.307993 0.3326 0.3336 0.3340 0.3340 0.3343
3103.228720 0.3348 0.3350 0.3350 0.3350 0.3350
3108.149446 0.3347 0.3342 0.3334 0.3324 0.3320
3113.070173 0.3320 0.3317 0.3312 0.3307 0.3302
3117.990900 0.3288 0.3268 0.3251 0.3236 0.3202
3122.911627 0.3157 0.3134 0.3124 0.3080 0.3015
3127.832354 0.2953 0.2893 0.2851 0.2821 0.2807
3132.753080 0.2802 0.2797 0.2792 0.2768 0.2733
3137.673807 0.2698 0.2663 0.2638 0.2617 0.2604
3142.594534 0.2594 0.2584 0.2574 0.2564 0.2554
3147.515261 0.2544 0.2534 0.2527 0.2522 0.2520
3152.435988 0.2520 0.2517 0.2512 0.2510 0.2510
3157.356714 0.2510 0.2510 0.2510 0.2510 0.2510
3162.277441 0.2510 0.2513 0.2518 0.2520 0.2520
3167.198168 0.2523 0.2528 0.2536 0.2546 0.2550
3172.118895 0.2550 0.2553 0.2558 0.2563 0.2568
3177.039621 0.2576 0.2586 0.2603 0.2623 0.2633
3181.960348 0.2638 0.2656 0.2681 0.2697 0.2707
3186.881075 0.2726 0.2751 0.2776 0.2801 0.2820
3191.801802 0.2835 0.2863 0.2898 0.2930 0.2959
3196.722529 0.3071 0.3226 0.3316 0.3372 0.3413
3201.643255 0.3448 0.3483 0.3518 0.3563 0.3613
3206.563982 0.3657 0.3697 0.3737 0.3777 0.3800
3211.484709 0.3815 0.3830 0.3845 0.3850 0.3850
3216.405436 0.3840 0.3825 0.3820 0.3820 0.3793
3221.326163 0.3753 0.3713 0.3673 0.3633 0.3593
3226.246889 0.3546 0.3496 0.3460 0.3430 0.3396
3231.167616 0.3361 0.3320 0.3275 0.3236 0.3201
3236.088343 0.3166 0.3132 0.3093 0.3052 0.3016
3241.009070 0.2981 0.2949 0.2919 0.2889 0.2859
3245.929797 0.2836 0.2816 0.2803 0.2793 0.2783
3250.850523 0.2773 0.2767 0.2762 0.2757 0.2752
3255.771250 0.2743 0.2733 0.2727 0.2722 0.2716
3260.691977 0.2711 0.2710 0.2710 0.2703 0.2693
3265.612704 0.2690 0.2690 0.2690 0.2690 0.2697
3270.533431 0.2707 0.2710 0.2710 0.2713 0.2718
3275.454157 0.2723 0.2728 0.2737 0.2747 0.2757
3280.374884 0.2767 0.2781 0.2796 0.2825 0.2860
3285.295611 0.2888 0.2913 0.2931 0.2946 0.2968
3290.216338 0.2993 0.3035 0.3085 0.3121 0.3151
3295.137064 0.3167 0.3177 0.3184 0.3189 0.3194
3300.057791 0.3199 0.3207 0.3217 0.3224 0.3229
3304.978518 0.3234 0.3239 0.3240 0.3240 0.3240
3309.899245 0.3240 0.3240 0.3240 0.3240 0.3240
3314.819972 0.3236 0.3231 0.3230 0.3230 0.3226
3319.740698 0.3221 0.3213 0.3203 0.3193 0.3183
3324.661425 0.3180 0.3180 0.3169 0.3154 0.3146
3329.582152 0.3141 0.3133 0.3123 0.3113 0.3103
3334.502879 0.3093 0.3083 0.3065 0.3045 0.3025
3339.423606 0.3005 0.2989 0.2974 0.2963 0.2953
3344.344332 0.2935 0.2915 0.2899 0.2884 0.2865
3349.265059 0.2845 0.2829 0.2814 0.2806 0.2801
3354.185786 0.2789 0.2774 0.2763 0.2752 0.2742
3359.106513 0.2732 0.2726 0.2721 0.2720 0.2720
3364.027240 0.2716 0.2711 0.2702 0.2692 0.2690
3368.947966 0.2690 0.2690 0.2690 0.2686 0.2681
3373.868693 0.2680 0.2680 0.2680 0.2680 0.2684
3378.789420 0.2689 0.2690 0.2690 0.2701 0.2716
3383.710147 0.2724 0.2729 0.2738 0.2748 0.2754
3388.630874 0.2759 0.2771 0.2786 0.2798 0.2808
3393.551600 0.2821 0.2836 0.2874 0.2920 0.2942
3398.472327 0.2957 0.3003 0.3058 0.3105 0.3150
3403.393054 0.3191 0.3231 0.3255 0.3275 0.3338
3408.313781 0.3413 0.3507 0.3607 0.3707 0.3807
3413.234507 0.3911 0.4016 0.4079 0.4129 0.4250
3418.155234 0.4390 0.4522 0.4652 0.4833 0.5028
3423.075961 0.5145 0.5240 0.5331 0.5421 0.5483
3427.996688 0.5538 0.5589 0.5639 0.5736 0.5846
3432.917415 0.5956 0.6066 0.6185 0.6306 0.6422
3437.838141 0.6537 0.6652 0.6767 0.6890 0.7015
3442.758868 0.7096 0.7166 0.7212 0.7252 0.7332
3447.679595 0.7421 0.7492 0.7557 0.7610 0.7660
3452.600322 0.7714 0.7769 0.7792 0.7807 0.7826
3457.521049 0.7846 0.7882 0.7922 0.7962 0.8002
3462.441775 0.8046 0.8091 0.8116 0.8136 0.8156
3467.362502 0.8176 0.8188 0.8198 0.8208 0.8218
3472.283229 0.8232 0.8247 0.8254 0.8259 0.8268
3477.203956 0.8278 0.8284 0.8289 0.8294 0.8299
3482.124683 0.8300 0.8300 0.8308 0.8318 0.8320
3487.045409 0.8320 0.8324 0.8329 0.8330 0.8330
3491.966136 0.8334 0.8339 0.8340 0.8340 0.8340
3496.886863 0.8340 0.8340 0.8340 0.8336 0.8331
3501.807590 0.8330 0.8330 0.8330 0.8330 0.8326
3506.728317 0.8321 0.8320 0.8320 0.8320 0.8320
3511.649043 0.8320 0.8320 0.8320 0.8320 0.8320
3516.569770 0.8320 0.8320 0.8320 0.8324 0.8329
3521.490497 0.8326 0.8321 0.8320 0.8320 0.8312
3526.411224 0.8302 0.8300 0.8300 0.8296 0.8291
3531.331950 0.8290 0.8290 0.8286 0.8281 0.8271
3536.252677 0.8261 0.8260 0.8260 0.8256 0.8251
3541.173404 0.8250 0.8250 0.8250 0.8250 0.8246
3546.094131 0.8241 0.8232 0.8222 0.8216 0.8211
3551.014858 0.8210 0.8210 0.8206 0.8201 0.8191
3555.935584 0.8181 0.8176 0.8171 0.8153 0.8133
3560.856311 0.8117 0.8102 0.8091 0.8081 0.8071
3565.777038 0.8061 0.8056 0.8051 0.8050 0.8050
3570.697765 0.8037 0.8022 0.8016 0.8011 0.8006
3575.618492 0.8001 0.7991 0.7981 0.7976 0.7971
3580.539218 0.7970 0.7970 0.7961 0.7951 0.7950
3585.459945 0.7950 0.7941 0.7931 0.7917 0.7902
3590.380672 0.7900 0.7900 0.7887 0.7872 0.7866
3595.301399 0.7861 0.7860 0.7860 0.7856 0.7851
3600.222126 0.7837 0.7822 0.7816 0.7811 0.7801
3605.142852 0.7791 0.7786 0.7781 0.7776 0.7771
3610.063579 0.7761 0.7751 0.7741 0.7731 0.7721
3614.984306 0.7711 0.7706 0.7701 0.7696 0.7691
3619.905033 0.7681 0.7671 0.7666 0.7661 0.7647
3624.825760 0.7632 0.7630 0.7630 0.7626 0.7621
3629.746486 0.7620 0.7620 0.7616 0.7610 0.7610
3634.667213 0.7610 0.7601 0.7591 0.7581 0.7571
3639.587940 0.7570 0.7570 0.7561 0.7551 0.7550
3644.508667 0.7550 0.7545 0.7540 0.7540 0.7540
3649.429393 0.7535 0.7531 0.7530 0.7530 0.7521
3654.350120 0.7511 0.7510 0.7510 0.7505 0.7500
3659.270847 0.7486 0.7471 0.7465 0.7460 0.7451
3664.191574 0.7441 0.7435 0.7430 0.7425 0.7420
3669.112301 0.7420 0.7420 0.7420 0.7420 0.7411
3674.033027 0.7401 0.7400 0.7400 0.7395 0.7390
3678.953754 0.7385 0.7380 0.7380 0.7380 0.7371
3683.874481 0.7361 0.7355 0.7350 0.7345 0.7340
3688.795208 0.7340 0.7340 0.7331 0.7321 0.7315
3693.715935 0.7310 0.7310 0.7310 0.7305 0.7300
3698.636661 0.7300 0.7300 0.7291 0.7281 0.7280
3703.557388 0.7280 0.7275 0.7270 0.7265 0.7260
3708.478115 0.7260 0.7260 0.7251 0.7240 0.7240
3713.398842 0.7240 0.7235 0.7230 0.7230 0.7230
3718.319569 0.7225 0.7220 0.7220 0.7220 0.7211
3723.240295 0.7201 0.7195 0.7190 0.7190 0.7190
3728.161022 0.7190 0.7190 0.7185 0.7180 0.7170
3733.081749 0.7160 0.7160 0.7160 0.7155 0.7150
3738.002476 0.7136 0.7121 0.7110 0.7100 0.7090
3742.923203 0.7080 0.7075 0.7070 0.7065 0.7060
3747.843929 0.7050 0.7040 0.7035 0.7030 0.7015
3752.764656 0.7000 0.6995 0.6990 0.6980 0.6970
3757.685383 0.6965 0.6960 0.6955 0.6950 0.6940
3762.606110 0.6930 0.6930 0.6930 0.6925 0.6920
3767.526836 0.6920 0.6920 0.6915 0.6910 0.6910
3772.447563 0.6910 0.6900 0.6890 0.6890 0.6890
3777.368290 0.6885 0.6880 0.6875 0.6870 0.6870
3782.289017 0.6870 0.6870 0.6870 0.6860 0.6850
3787.209744 0.6850 0.6850 0.6845 0.6840 0.6840
3792.130470 0.6840
##END=
