##TITLE=1-CHLORO-2-IODOETHANE
##JCAMP-DX=4.24
##DATA TYPE=INFRARED SPECTRUM
##CLASS=COBLENTZ
##ORIGIN=ANDERSON PHYSICAL LABORATORY
##OWNER=COBLENTZ SOCIETY
Collection (C) 2018 copyright by the U.S. Secretary of Commerce
on behalf of the United States of America. All rights reserved.
##DATE=Not specified, most likely prior to 1970
##CAS REGISTRY NO=624-70-4
##MOLFORM=C2 H4 Cl I
##SOURCE REFERENCE=COBLENTZ NO. 2585
##$NIST SOURCE=COBLENTZ
##$NIST IMAGE=cob2585
##SPECTROMETER/DATA SYSTEM=Not specified, most likely a prism, grating, or hybrid spectrometer.
##STATE=LIQUID
##PATH LENGTH=0.005 CM
##SAMPLING PROCEDURE=TRANSMISSION
##RESOLUTION=4
##DATA PROCESSING=DIGITIZED BY NIST FROM HARD COPY (FROM TWO SEGMENTS)
##XUNITS=1/CM
##YUNITS=TRANSMITTANCE
##XFACTOR=1.000000
##YFACTOR=1
##DELTAX=0.938677
##FIRSTX=668.961
##LASTX=3965.6
##FIRSTY=0.505
##MAXX=3965.6
##MINX=668.961
##MAXY=0.917
##MINY=0.022
##NPOINTS=3513
##XYDATA=(X++(Y..Y))
668.961000 0.5050 0.5060 0.5240 0.5270 0.5051
673.654387 0.5060 0.5239 0.5270 0.5449 0.5450
678.347775 0.5440 0.5440 0.5420 0.5390 0.5290
683.041162 0.5170 0.5090 0.5000 0.4901 0.4701
687.734550 0.4510 0.4160 0.3960 0.3770 0.3531
692.427937 0.3261 0.2663 0.2391 0.2122 0.1862
697.121325 0.1360 0.1150 0.0940 0.0760 0.0640
701.814712 0.0510 0.0510 0.0420 0.0390 0.0370
706.508100 0.0370 0.0370 0.0370 0.0370 0.0370
711.201487 0.0370 0.0390 0.0390 0.0390 0.0400
715.894875 0.0430 0.0510 0.0610 0.0780 0.0999
720.588262 0.1110 0.1329 0.1449 0.1559 0.1600
725.281650 0.1620 0.1900 0.2189 0.2479 0.2600
729.975037 0.2700 0.2839 0.2900 0.2960 0.3109
734.668425 0.3110 0.3080 0.3030 0.2990 0.2840
739.361812 0.2720 0.2600 0.2490 0.2391 0.2340
744.055200 0.2330 0.2310 0.2330 0.2370 0.2520
748.748587 0.2699 0.2790 0.2880 0.3089 0.3378
753.441974 0.3660 0.3930 0.4120 0.4280 0.4579
758.135362 0.4879 0.5139 0.5389 0.5629 0.5739
762.828749 0.5840 0.6040 0.6220 0.6400 0.6569
767.522137 0.6700 0.6839 0.6959 0.7049 0.7090
772.215524 0.7140 0.7210 0.7270 0.7320 0.7380
776.908912 0.7450 0.7510 0.7530 0.7560 0.7570
781.602299 0.7570 0.7570 0.7570 0.7560 0.7560
786.295687 0.7560 0.7560 0.7540 0.7540 0.7530
790.989074 0.7530 0.7510 0.7500 0.7440 0.7390
795.682462 0.7360 0.7350 0.7290 0.7240 0.7061
800.375849 0.6970 0.6900 0.6820 0.6730 0.6660
805.069237 0.6570 0.6460 0.6340 0.6211 0.6061
809.762624 0.5980 0.5890 0.5680 0.5560 0.5420
814.456012 0.5290 0.5141 0.4961 0.4781 0.4601
819.149399 0.4070 0.3750 0.3420 0.2641 0.2191
823.842786 0.1143 0.1120 0.1090 0.1090 0.1110
828.536174 0.1270 0.1390 0.1500 0.1799 0.2388
833.229561 0.2749 0.3109 0.3717 0.4118 0.4508
837.922949 0.5260 0.5530 0.5780 0.6220 0.6579
842.616336 0.6879 0.7020 0.7140 0.7329 0.7479
847.309724 0.7620 0.7710 0.7770 0.7810 0.7840
852.003111 0.7870 0.7920 0.7980 0.8030 0.8070
856.696499 0.8120 0.8130 0.8150 0.8160 0.8160
861.389886 0.8160 0.8160 0.8160 0.8150 0.8150
866.083274 0.8150 0.8130 0.8120 0.8120 0.8120
870.776661 0.8100 0.8090 0.8090 0.8070 0.8060
875.470049 0.8060 0.8040 0.8040 0.8030 0.8000
880.163436 0.7980 0.7960 0.7960 0.7930 0.7900
884.856824 0.7870 0.7860 0.7800 0.7770 0.7740
889.550211 0.7710 0.7680 0.7620 0.7530 0.7510
894.243599 0.7500 0.7470 0.7420 0.7380 0.7320
898.936986 0.7260 0.7120 0.7030 0.6930 0.6781
903.630373 0.6700 0.6550 0.6370 0.6180 0.5951
908.323761 0.5511 0.5321 0.5151 0.5001 0.4930
913.017148 0.4910 0.4960 0.5030 0.5240 0.5500
917.710536 0.5650 0.5800 0.6099 0.6389 0.6629
922.403923 0.6810 0.6960 0.7020 0.7110 0.7150
927.097311 0.7180 0.7290 0.7380 0.7450 0.7530
931.790698 0.7570 0.7590 0.7710 0.7780 0.7860
936.484086 0.7920 0.7980 0.8040 0.8100 0.8150
941.177473 0.8190 0.8240 0.8300 0.8340 0.8370
945.870861 0.8390 0.8400 0.8450 0.8460 0.8460
950.564248 0.8480 0.8480 0.8480 0.8490 0.8490
955.257636 0.8490 0.8490 0.8490 0.8490 0.8490
959.951023 0.8490 0.8480 0.8480 0.8480 0.8480
964.644411 0.8460 0.8460 0.8460 0.8460 0.8450
969.337798 0.8450 0.8450 0.8450 0.8450 0.8450
974.031186 0.8450 0.8450 0.8450 0.8450 0.8450
978.724573 0.8430 0.8430 0.8430 0.8420 0.8420
983.417960 0.8420 0.8400 0.8400 0.8390 0.8370
988.111348 0.8370 0.8360 0.8340 0.8330 0.8330
992.804735 0.8310 0.8300 0.8250 0.8210 0.8150
997.498123 0.8040 0.8010 0.7930 0.7900 0.7890
1002.191510 0.7830 0.7780 0.7710 0.7600 0.7510
1006.884898 0.7420 0.7350 0.7110 0.7000 0.6870
1011.578285 0.6700 0.6550 0.6401 0.6310 0.6300
1016.271673 0.6280 0.6280 0.6280 0.6300 0.6310
1020.965060 0.6310 0.6310 0.6310 0.6310 0.6300
1025.658448 0.6300 0.6210 0.6160 0.6150 0.6040
1030.351835 0.6030 0.5960 0.5900 0.5860 0.5810
1035.045223 0.5800 0.5770 0.5680 0.5660 0.5630
1039.738610 0.5600 0.5540 0.5500 0.5470 0.5380
1044.431998 0.5290 0.5170 0.5000 0.4870 0.4221
1049.125385 0.3961 0.3591 0.3321 0.3171 0.2613
1053.818772 0.2429 0.1930 0.1930 0.1960 0.2130
1058.512160 0.2719 0.2989 0.3259 0.3997 0.4329
1063.205547 0.4641 0.5270 0.5680 0.5830 0.5980
1067.898935 0.6120 0.6210 0.6300 0.6370 0.6390
1072.592322 0.6400 0.6400 0.6420 0.6430 0.6430
1077.285710 0.6490 0.6540 0.6570 0.6610 0.6640
1081.979097 0.6660 0.6660 0.6670 0.6690 0.6700
1086.672485 0.6700 0.6700 0.6700 0.6700 0.6700
1091.365872 0.6690 0.6670 0.6640 0.6600 0.6550
1096.059260 0.6520 0.6510 0.6460 0.6360 0.6250
1100.752647 0.6130 0.5980 0.5690 0.5540 0.5410
1105.446035 0.5260 0.5110 0.4911 0.4731 0.4630
1110.139422 0.4610 0.4580 0.4580 0.4570 0.4550
1114.832810 0.4550 0.4550 0.4550 0.4570 0.4580
1119.526197 0.4610 0.4670 0.4760 0.5000 0.5200
1124.219585 0.5380 0.5480 0.5590 0.5690 0.5770
1128.912972 0.5840 0.5930 0.6000 0.6060 0.6060
1133.606359 0.6040 0.6030 0.6010 0.5980 0.5950
1138.299747 0.5840 0.5780 0.5590 0.5480 0.5350
1142.993134 0.5180 0.4990 0.4791 0.4581 0.4072
1147.686522 0.3860 0.3710 0.3590 0.3500 0.3440
1152.379909 0.3390 0.3300 0.3141 0.2791 0.2611
1157.073297 0.2429 0.2210 0.1929 0.1330 0.1050
1161.766684 0.0790 0.0570 0.0420 0.0340 0.0250
1166.460072 0.0240 0.0220 0.0220 0.0240 0.0250
1171.153459 0.0250 0.0270 0.0270 0.0280 0.0330
1175.846847 0.0390 0.0540 0.0790 0.1080 0.1260
1180.540234 0.1420 0.1799 0.2299 0.2778 0.3029
1185.233622 0.3271 0.3660 0.4010 0.4180 0.4330
1189.927009 0.4629 0.4879 0.5089 0.5289 0.5449
1194.620397 0.5590 0.5660 0.5720 0.5830 0.5870
1199.313784 0.5930 0.5960 0.6000 0.6040 0.6100
1204.007172 0.6150 0.6190 0.6240 0.6250 0.6270
1208.700559 0.6280 0.6300 0.6300 0.6330 0.6360
1213.393946 0.6370 0.6370 0.6390 0.6390 0.6370
1218.087334 0.6370 0.6360 0.6330 0.6300 0.6250
1222.780721 0.6240 0.6220 0.6150 0.6040 0.5980
1227.474109 0.5890 0.5590 0.5410 0.5260 0.5111
1232.167496 0.4907 0.3858 0.2940 0.2790 0.2570
1236.860884 0.2160 0.1182 0.0731 0.0421 0.0360
1241.554271 0.0330 0.0331 0.0640 0.0720 0.1090
1246.247659 0.1350 0.1390 0.1440 0.1440 0.2207
1250.941046 0.2962 0.3710 0.3720 0.4030 0.4180
1255.634434 0.4330 0.4909 0.4930 0.5060 0.5150
1260.327821 0.5210 0.5210 0.5200 0.5170 0.5140
1265.021209 0.5110 0.5050 0.4990 0.4880 0.4780
1269.714596 0.4630 0.4509 0.4220 0.4040 0.3840
1274.407984 0.3620 0.3380 0.3141 0.2582 0.2301
1279.101371 0.1979 0.1750 0.1720 0.1710 0.1720
1283.794758 0.1750 0.1840 0.1960 0.2060 0.2209
1288.488146 0.2360 0.2490 0.2630 0.2820 0.2930
1293.181533 0.3020 0.3060 0.3060 0.2841 0.2780
1297.874921 0.2659 0.2460 0.2310 0.2160 0.2010
1302.568308 0.1980 0.2010 0.2309 0.2789 0.3259
1307.261696 0.4251 0.4480 0.4701 0.5050 0.5350
1311.955083 0.5540 0.5680 0.5720 0.5750 0.5860
1316.648471 0.5950 0.6060 0.6180 0.6280 0.6390
1321.341858 0.6490 0.6580 0.6660 0.6750 0.6810
1326.035246 0.6880 0.6990 0.7050 0.7090 0.7140
1330.728633 0.7180 0.7240 0.7320 0.7360 0.7390
1335.422021 0.7420 0.7500 0.7560 0.7570 0.7620
1340.115408 0.7630 0.7630 0.7650 0.7650 0.7650
1344.808796 0.7660 0.7660 0.7660 0.7650 0.7650
1349.502183 0.7650 0.7650 0.7630 0.7630 0.7630
1354.195571 0.7630 0.7630 0.7630 0.7630 0.7650
1358.888958 0.7660 0.7660 0.7680 0.7690 0.7690
1363.582345 0.7690 0.7690 0.7690 0.7690 0.7690
1368.275733 0.7690 0.7690 0.7690 0.7690 0.7690
1372.969120 0.7680 0.7660 0.7650 0.7630 0.7600
1377.662508 0.7570 0.7540 0.7510 0.7480 0.7440
1382.355895 0.7390 0.7320 0.7240 0.7210 0.7120
1387.049283 0.7060 0.7030 0.7000 0.6990 0.6990
1391.742670 0.6940 0.6940 0.6940 0.6940 0.6940
1396.436058 0.6940 0.6940 0.6940 0.6910 0.6880
1401.129445 0.6820 0.6810 0.6730 0.6630 0.6570
1405.822833 0.6550 0.6460 0.6340 0.6270 0.6190
1410.516220 0.6090 0.5980 0.5859 0.5560 0.5380
1415.209608 0.5180 0.4940 0.4660 0.4031 0.3631
1419.902995 0.3268 0.2579 0.2220 0.2180 0.2160
1424.596383 0.2180 0.2190 0.2340 0.2510 0.2749
1429.289770 0.2750 0.2700 0.2630 0.2550 0.2430
1433.983158 0.2300 0.2090 0.1920 0.1302 0.1021
1438.676545 0.0780 0.0750 0.0730 0.0750 0.0780
1443.369932 0.0840 0.0910 0.0960 0.1000 0.1090
1448.063320 0.1120 0.1140 0.1140 0.1140 0.1150
1452.756707 0.1200 0.1230 0.1330 0.1420 0.1679
1457.450095 0.2061 0.2451 0.2660 0.2870 0.3270
1462.143482 0.3680 0.4070 0.4250 0.4420 0.4719
1466.836870 0.4941 0.5181 0.5590 0.5690 0.5800
1471.530257 0.5960 0.6030 0.6060 0.6120 0.6190
1476.223645 0.6331 0.6480 0.6600 0.6720 0.6850
1480.917032 0.6960 0.7020 0.7110 0.7210 0.7300
1485.610420 0.7471 0.7650 0.7660 0.7690 0.7690
1490.303807 0.7720 0.7750 0.7770 0.7780 0.7810
1494.997195 0.7860 0.7900 0.7920 0.7960 0.8000
1499.690582 0.8030 0.8100 0.8130 0.8160 0.8180
1504.383970 0.8190 0.8210 0.8210 0.8190 0.8210
1509.077357 0.8240 0.8300 0.8310 0.8310 0.8330
1513.770745 0.8330 0.8340 0.8370 0.8400 0.8450
1518.464132 0.8510 0.8520 0.8520 0.8540 0.8540
1523.157519 0.8540 0.8540 0.8540 0.8550 0.8570
1527.850907 0.8570 0.8600 0.8630 0.8660 0.8690
1532.544294 0.8690 0.8700 0.8720 0.8720 0.8730
1537.237682 0.8730 0.8730 0.8750 0.8760 0.8760
1541.931069 0.8760 0.8780 0.8780 0.8790 0.8840
1546.624457 0.8870 0.8870 0.8900 0.8910 0.8910
1551.317844 0.8930 0.8930 0.8930 0.8930 0.8910
1556.011232 0.8880 0.8870 0.8850 0.8850 0.8850
1560.704619 0.8870 0.8870 0.8880 0.8880 0.8880
1565.398007 0.8900 0.8900 0.8900 0.8900 0.8900
1570.091394 0.8900 0.8880 0.8880 0.8870 0.8870
1574.784782 0.8870 0.8870 0.8870 0.8880 0.8900
1579.478169 0.8900 0.8880 0.8880 0.8870 0.8870
1584.171557 0.8850 0.8850 0.8850 0.8850 0.8840
1588.864944 0.8840 0.8840 0.8820 0.8820 0.8820
1593.558331 0.8820 0.8810 0.8780 0.8760 0.8760
1598.251719 0.8750 0.8730 0.8730 0.8720 0.8720
1602.945106 0.8720 0.8690 0.8670 0.8640 0.8630
1607.638494 0.8630 0.8610 0.8610 0.8610 0.8630
1612.331881 0.8630 0.8640 0.8640 0.8660 0.8660
1617.025269 0.8670 0.8700 0.8730 0.8750 0.8750
1621.718656 0.8750 0.8750 0.8750 0.8760 0.8780
1626.412044 0.8790 0.8790 0.8810 0.8810 0.8810
1631.105431 0.8820 0.8820 0.8840 0.8840 0.8840
1635.798819 0.8840 0.8840 0.8840 0.8840 0.8840
1640.492206 0.8840 0.8840 0.8840 0.8840 0.8840
1645.185594 0.8840 0.8840 0.8840 0.8840 0.8840
1649.878981 0.8850 0.8840 0.8850 0.8850 0.8850
1654.572369 0.8880 0.8880 0.8900 0.8900 0.8900
1659.265756 0.8900 0.8900 0.8900 0.8880 0.8880
1663.959144 0.8880 0.8880 0.8850 0.8850 0.8840
1668.652531 0.8840 0.8850 0.8850 0.8870 0.8870
1673.345918 0.8880 0.8880 0.8880 0.8900 0.8900
1678.039306 0.8900 0.8910 0.8910 0.8910 0.8910
1682.732693 0.8900 0.8900 0.8900 0.8900 0.8900
1687.426081 0.8910 0.8910 0.8910 0.8910 0.8900
1692.119468 0.8900 0.8900 0.8880 0.8880 0.8850
1696.812856 0.8850 0.8850 0.8840 0.8820 0.8810
1701.506243 0.8780 0.8780 0.8780 0.8760 0.8760
1706.199631 0.8760 0.8760 0.8750 0.8730 0.8730
1710.893018 0.8730 0.8730 0.8720 0.8720 0.8720
1715.586406 0.8720 0.8700 0.8690 0.8660 0.8640
1720.279793 0.8630 0.8580 0.8570 0.8570 0.8550
1724.973181 0.8550 0.8550 0.8540 0.8490 0.8450
1729.666568 0.8420 0.8400 0.8340 0.8310 0.8300
1734.359956 0.8250 0.8190 0.8160 0.8160 0.8160
1739.053343 0.8160 0.8160 0.8150 0.8150 0.8150
1743.746731 0.8150 0.8150 0.8150 0.8160 0.8190
1748.440118 0.8250 0.8300 0.8340 0.8420 0.8510
1753.133505 0.8550 0.8600 0.8700 0.8760 0.8810
1757.826893 0.8820 0.8850 0.8870 0.8870 0.8880
1762.520280 0.8900 0.8930 0.8940 0.9000 0.9020
1767.213668 0.9020 0.9030 0.9030 0.9030 0.9030
1771.907055 0.9030 0.9050 0.9050 0.9050 0.9050
1776.600443 0.9050 0.9060 0.9060 0.9060 0.9060
1781.293830 0.9060 0.9060 0.9060 0.9060 0.9060
1785.987218 0.9060 0.9060 0.9060 0.9080 0.9080
1790.680605 0.9080 0.9080 0.9080 0.9080 0.9080
1795.373993 0.9080 0.9090 0.9090 0.9090 0.9090
1800.067380 0.9090 0.9090 0.9090 0.9090 0.9090
1804.760768 0.9090 0.9090 0.9090 0.9090 0.9080
1809.454155 0.9080 0.9080 0.9080 0.9080 0.9060
1814.147543 0.9060 0.9060 0.9060 0.9060 0.9060
1818.840930 0.9060 0.9060 0.9060 0.9080 0.9080
1823.534317 0.9080 0.9080 0.9090 0.9090 0.9090
1828.227705 0.9090 0.9110 0.9110 0.9120 0.9120
1832.921092 0.9110 0.9110 0.9090 0.9080 0.9050
1837.614480 0.9020 0.9000 0.8990 0.8970 0.8960
1842.307867 0.8940 0.8940 0.8930 0.8930 0.8930
1847.001255 0.8910 0.8910 0.8910 0.8910 0.8910
1851.694642 0.8930 0.8940 0.8940 0.8960 0.8960
1856.388030 0.8970 0.8970 0.8970 0.8970 0.8970
1861.081417 0.8990 0.8990 0.9000 0.9020 0.9020
1865.774805 0.9050 0.9080 0.9110 0.9120 0.9120
1870.468192 0.9140 0.9150 0.9150 0.9150 0.9170
1875.161580 0.9170 0.9170 0.9170 0.9170 0.9170
1879.854967 0.9170 0.9170 0.9170 0.9170 0.9170
1884.548355 0.9170 0.9170 0.9170 0.9170 0.9170
1889.241742 0.9170 0.9170 0.9170 0.9170 0.9170
1893.935130 0.9170 0.9170 0.9170 0.9170 0.9170
1898.628517 0.9170 0.9150 0.9150 0.9150 0.9140
1903.321904 0.9120 0.9120 0.9120 0.9120 0.9120
1908.015292 0.9140 0.9140 0.9140 0.9140 0.9120
1912.708679 0.9120 0.9120 0.9120 0.9120 0.9120
1917.402067 0.9120 0.9120 0.9120 0.9120 0.9120
1922.095454 0.9120 0.9120 0.9120 0.9120 0.9120
1926.788842 0.9120 0.9120 0.9120 0.9120 0.9120
1931.482229 0.9140 0.9120 0.9120 0.9120 0.9110
1936.175617 0.9090 0.9090 0.9090 0.9090 0.9090
1940.869004 0.9090 0.9090 0.9090 0.9090 0.9090
1945.562392 0.9110 0.9110 0.9110 0.9120 0.9120
1950.255779 0.9140 0.9140 0.9140 0.9140 0.9140
1954.949167 0.9150 0.9150 0.9150 0.9140 0.9140
1959.642554 0.9140 0.9120 0.9090 0.9080 0.9080
1964.335942 0.9060 0.9060 0.9060 0.9060 0.9060
1969.029329 0.9060 0.9050 0.9050 0.9050 0.9050
1973.722717 0.9050 0.9050 0.9050 0.9050 0.9030
1978.416104 0.9030 0.9020 0.9020 0.9000 0.9000
1983.109491 0.8990 0.8990 0.8990 0.8970 0.8970
1987.802879 0.8960 0.8940 0.8940 0.8940 0.8930
1992.496266 0.8930 0.8930 0.8930 0.8930 0.8930
1997.189654 0.8930 0.8940 0.8940 0.8940 0.8940
2001.883041 0.8940 0.8940 0.8940 0.8945 0.8950
2006.576429 0.8955 0.8960 0.8963 0.8965 0.8968
2011.269816 0.8970 0.8975 0.8980 0.8985 0.8990
2015.963204 0.8993 0.8995 0.8998 0.9000 0.9000
2020.656591 0.9000 0.9000 0.9000 0.9000 0.9000
2025.349979 0.9000 0.9000 0.9000 0.9000 0.9000
2030.043366 0.9000 0.9000 0.9000 0.9000 0.9000
2034.736754 0.9005 0.9010 0.9015 0.9020 0.9020
2039.430141 0.9020 0.9020 0.9020 0.9023 0.9025
2044.123529 0.9028 0.9030 0.9030 0.9030 0.9030
2048.816916 0.9031 0.9044 0.9056 0.9069 0.9080
2053.510303 0.9080 0.9080 0.9080 0.9080 0.9080
2058.203691 0.9080 0.9080 0.9080 0.9080 0.9080
2062.897078 0.9080 0.9079 0.9074 0.9069 0.9064
2067.590466 0.9060 0.9060 0.9060 0.9060 0.9059
2072.283853 0.9049 0.9038 0.9028 0.9020 0.9020
2076.977241 0.9020 0.9020 0.9014 0.8987 0.8959
2081.670628 0.8932 0.8906 0.8889 0.8871 0.8854
2086.364016 0.8835 0.8813 0.8790 0.8768 0.8747
2091.057403 0.8732 0.8717 0.8702 0.8688 0.8681
2095.750791 0.8673 0.8666 0.8660 0.8660 0.8660
2100.444178 0.8660 0.8661 0.8663 0.8666 0.8668
2105.137566 0.8675 0.8698 0.8720 0.8743 0.8762
2109.830953 0.8769 0.8777 0.8785 0.8792 0.8800
2114.524341 0.8807 0.8815 0.8822 0.8830 0.8837
2119.217728 0.8845 0.8852 0.8860 0.8867 0.8875
2123.911116 0.8884 0.8896 0.8909 0.8921 0.8933
2128.604503 0.8943 0.8953 0.8963 0.8972 0.8977
2133.297890 0.8982 0.8987 0.8990 0.8990 0.8990
2137.991278 0.8990 0.8988 0.8983 0.8978 0.8973
2142.684665 0.8970 0.8970 0.8970 0.8970 0.8968
2147.378053 0.8960 0.8952 0.8945 0.8936 0.8926
2152.071440 0.8916 0.8906 0.8892 0.8872 0.8852
2156.764828 0.8832 0.8814 0.8799 0.8784 0.8769
2161.458215 0.8757 0.8749 0.8742 0.8734 0.8727
2166.151603 0.8719 0.8712 0.8704 0.8697 0.8689
2170.844990 0.8682 0.8674 0.8670 0.8670 0.8670
2175.538378 0.8670 0.8670 0.8670 0.8670 0.8670
2180.231765 0.8672 0.8677 0.8682 0.8687 0.8691
2184.925153 0.8694 0.8696 0.8699 0.8708 0.8723
2189.618540 0.8738 0.8753 0.8764 0.8771 0.8779
2194.311928 0.8786 0.8794 0.8801 0.8809 0.8816
2199.005315 0.8823 0.8828 0.8833 0.8838 0.8845
2203.698703 0.8855 0.8865 0.8875 0.8884 0.8891
2208.392090 0.8899 0.8906 0.8913 0.8918 0.8923
2213.085477 0.8928 0.8930 0.8930 0.8930 0.8930
2217.778865 0.8930 0.8930 0.8930 0.8930 0.8930
2222.472252 0.8930 0.8930 0.8930 0.8927 0.8922
2227.165640 0.8917 0.8912 0.8908 0.8906 0.8903
2231.859027 0.8901 0.8900 0.8900 0.8900 0.8900
2236.552415 0.8897 0.8892 0.8887 0.8882 0.8880
2241.245802 0.8880 0.8880 0.8880 0.8880 0.8880
2245.939190 0.8880 0.8880 0.8880 0.8880 0.8880
2250.632577 0.8880 0.8880 0.8880 0.8880 0.8880
2255.325965 0.8885 0.8892 0.8900 0.8907 0.8913
2260.019352 0.8918 0.8923 0.8929 0.8930 0.8930
2264.712740 0.8930 0.8930 0.8935 0.8943 0.8950
2269.406127 0.8958 0.8967 0.8977 0.8987 0.8997
2274.099515 0.9004 0.9009 0.9014 0.9019 0.9020
2278.792902 0.9020 0.9020 0.9020 0.9020 0.9020
2283.486289 0.9020 0.9020 0.9020 0.9020 0.9020
2288.179677 0.9020 0.9020 0.9020 0.9020 0.9020
2292.873064 0.9020 0.9020 0.9020 0.9020 0.9014
2297.566452 0.9007 0.8999 0.8991 0.8974 0.8954
2302.259839 0.8934 0.8914 0.8896 0.8878 0.8861
2306.953227 0.8843 0.8818 0.8790 0.8763 0.8735
2311.646614 0.8712 0.8689 0.8667 0.8644 0.8622
2316.340002 0.8599 0.8577 0.8554 0.8550 0.8550
2321.033389 0.8550 0.8550 0.8554 0.8559 0.8564
2325.726777 0.8569 0.8570 0.8570 0.8570 0.8570
2330.420164 0.8572 0.8575 0.8577 0.8580 0.8591
2335.113552 0.8603 0.8616 0.8629 0.8639 0.8649
2339.806939 0.8659 0.8669 0.8690 0.8713 0.8735
2344.500327 0.8758 0.8765 0.8770 0.8775 0.8780
2349.193714 0.8780 0.8780 0.8780 0.8780 0.8780
2353.887102 0.8780 0.8780 0.8780 0.8780 0.8780
2358.580489 0.8780 0.8780 0.8787 0.8794 0.8802
2363.273876 0.8809 0.8819 0.8829 0.8839 0.8849
2367.967264 0.8857 0.8864 0.8872 0.8879 0.8887
2372.660651 0.8895 0.8902 0.8910 0.8915 0.8920
2377.354039 0.8925 0.8930 0.8930 0.8930 0.8930
2382.047426 0.8930 0.8933 0.8935 0.8938 0.8940
2386.740814 0.8940 0.8940 0.8940 0.8940 0.8940
2391.434201 0.8940 0.8940 0.8940 0.8940 0.8940
2396.127589 0.8940 0.8940 0.8940 0.8940 0.8940
2400.820976 0.8940 0.8940 0.8940 0.8940 0.8940
2405.514364 0.8940 0.8940 0.8940 0.8940 0.8937
2410.207751 0.8935 0.8932 0.8930 0.8930 0.8930
2414.901139 0.8930 0.8929 0.8924 0.8919 0.8914
2419.594526 0.8909 0.8902 0.8894 0.8887 0.8880
2424.287914 0.8877 0.8875 0.8872 0.8870 0.8870
2428.981301 0.8870 0.8870 0.8869 0.8864 0.8859
2433.674689 0.8854 0.8850 0.8850 0.8850 0.8850
2438.368076 0.8850 0.8850 0.8850 0.8850 0.8850
2443.061463 0.8850 0.8850 0.8850 0.8851 0.8856
2447.754851 0.8861 0.8866 0.8872 0.8879 0.8887
2452.448238 0.8894 0.8903 0.8918 0.8933 0.8948
2457.141626 0.8964 0.8981 0.8999 0.9016 0.9031
2461.835013 0.9036 0.9041 0.9046 0.9051 0.9053
2466.528401 0.9056 0.9058 0.9061 0.9066 0.9071
2471.221788 0.9076 0.9080 0.9080 0.9080 0.9080
2475.915176 0.9081 0.9083 0.9086 0.9088 0.9091
2480.608563 0.9096 0.9101 0.9106 0.9110 0.9110
2485.301951 0.9110 0.9110 0.9110 0.9110 0.9110
2489.995338 0.9110 0.9110 0.9110 0.9110 0.9110
2494.688726 0.9110 0.9110 0.9110 0.9110 0.9110
2499.382113 0.9110 0.9110 0.9110 0.9108 0.9103
2504.075501 0.9098 0.9093 0.9090 0.9090 0.9090
2508.768888 0.9090 0.9090 0.9090 0.9090 0.9090
2513.462275 0.9090 0.9090 0.9090 0.9090 0.9090
2518.155663 0.9090 0.9090 0.9090 0.9090 0.9090
2522.849050 0.9090 0.9090 0.9090 0.9090 0.9090
2527.542438 0.9090 0.9089 0.9086 0.9084 0.9081
2532.235825 0.9080 0.9080 0.9080 0.9080 0.9080
2536.929213 0.9080 0.9080 0.9080 0.9080 0.9080
2541.622600 0.9080 0.9080 0.9080 0.9080 0.9080
2546.315988 0.9080 0.9080 0.9080 0.9080 0.9080
2551.009375 0.9080 0.9080 0.9080 0.9080 0.9080
2555.702763 0.9080 0.9080 0.9080 0.9078 0.9073
2560.396150 0.9068 0.9063 0.9060 0.9060 0.9060
2565.089538 0.9060 0.9060 0.9060 0.9060 0.9060
2569.782925 0.9060 0.9060 0.9060 0.9060 0.9060
2574.476313 0.9060 0.9060 0.9060 0.9063 0.9068
2579.169700 0.9073 0.9078 0.9080 0.9080 0.9080
2583.863088 0.9080 0.9080 0.9080 0.9080 0.9080
2588.556475 0.9081 0.9084 0.9086 0.9089 0.9090
2593.249862 0.9090 0.9090 0.9090 0.9093 0.9098
2597.943250 0.9103 0.9108 0.9110 0.9110 0.9110
2602.636637 0.9110 0.9112 0.9114 0.9117 0.9119
2607.330025 0.9120 0.9120 0.9120 0.9120 0.9120
2612.023412 0.9120 0.9120 0.9120 0.9120 0.9120
2616.716800 0.9120 0.9120 0.9120 0.9120 0.9120
2621.410187 0.9120 0.9120 0.9120 0.9120 0.9120
2626.103575 0.9120 0.9120 0.9120 0.9120 0.9120
2630.796962 0.9120 0.9120 0.9120 0.9118 0.9116
2635.490350 0.9113 0.9111 0.9110 0.9110 0.9110
2640.183737 0.9110 0.9110 0.9110 0.9110 0.9110
2644.877125 0.9106 0.9101 0.9096 0.9091 0.9088
2649.570512 0.9086 0.9083 0.9081 0.9076 0.9071
2654.263900 0.9066 0.9061 0.9060 0.9060 0.9060
2658.957287 0.9060 0.9058 0.9056 0.9053 0.9051
2663.650675 0.9050 0.9050 0.9050 0.9050 0.9050
2668.344062 0.9050 0.9050 0.9050 0.9050 0.9050
2673.037449 0.9050 0.9050 0.9046 0.9041 0.9036
2677.730837 0.9031 0.9024 0.9016 0.9009 0.9001
2682.424224 0.8998 0.8995 0.8993 0.8990 0.8990
2687.117612 0.8990 0.8990 0.8990 0.8986 0.8981
2691.810999 0.8976 0.8971 0.8968 0.8965 0.8963
2696.504387 0.8960 0.8956 0.8951 0.8946 0.8941
2701.197774 0.8938 0.8935 0.8933 0.8930 0.8930
2705.891162 0.8930 0.8930 0.8930 0.8930 0.8930
2710.584549 0.8930 0.8930 0.8930 0.8930 0.8930
2715.277937 0.8930 0.8930 0.8930 0.8930 0.8930
2719.971324 0.8932 0.8935 0.8937 0.8940 0.8947
2724.664712 0.8954 0.8962 0.8969 0.8970 0.8970
2729.358099 0.8970 0.8970 0.8977 0.8984 0.8992
2734.051487 0.8999 0.9007 0.9014 0.9022 0.9029
2738.744874 0.9030 0.9030 0.9030 0.9030 0.9035
2743.438262 0.9040 0.9045 0.9050 0.9050 0.9050
2748.131649 0.9050 0.9050 0.9045 0.9040 0.9035
2752.825036 0.9030 0.9030 0.9030 0.9030 0.9030
2757.518424 0.9027 0.9025 0.9022 0.9020 0.9020
2762.211811 0.9020 0.9020 0.9020 0.9015 0.9010
2766.905199 0.9005 0.9000 0.8990 0.8980 0.8970
2771.598586 0.8960 0.8952 0.8945 0.8937 0.8930
2776.291974 0.8915 0.8900 0.8885 0.8870 0.8862
2780.985361 0.8855 0.8847 0.8840 0.8827 0.8814
2785.678749 0.8801 0.8788 0.8765 0.8743 0.8720
2790.372136 0.8700 0.8697 0.8695 0.8692 0.8688
2795.065524 0.8673 0.8658 0.8643 0.8627 0.8599
2799.758911 0.8572 0.8544 0.8518 0.8503 0.8488
2804.452299 0.8473 0.8458 0.8443 0.8428 0.8413
2809.145686 0.8399 0.8389 0.8379 0.8369 0.8359
2813.839074 0.8354 0.8349 0.8344 0.8333 0.8281
2818.532461 0.8228 0.8176 0.8125 0.8087 0.8049
2823.225848 0.8010 0.7974 0.7944 0.7914 0.7884
2827.919236 0.7853 0.7818 0.7783 0.7748 0.7715
2832.612623 0.7693 0.7670 0.7648 0.7629 0.7627
2837.306011 0.7624 0.7622 0.7613 0.7583 0.7553
2841.999398 0.7523 0.7495 0.7473 0.7450 0.7428
2846.692786 0.7402 0.7367 0.7332 0.7297 0.7269
2851.386173 0.7267 0.7264 0.7262 0.7260 0.7260
2856.079561 0.7260 0.7260 0.7260 0.7260 0.7260
2860.772948 0.7260 0.7262 0.7270 0.7277 0.7285
2865.466336 0.7292 0.7300 0.7307 0.7315 0.7325
2870.159723 0.7340 0.7355 0.7370 0.7385 0.7400
2874.853111 0.7415 0.7430 0.7440 0.7440 0.7440
2879.546498 0.7440 0.7440 0.7440 0.7440 0.7440
2884.239886 0.7440 0.7440 0.7440 0.7440 0.7440
2888.933273 0.7440 0.7440 0.7440 0.7438 0.7430
2893.626661 0.7423 0.7415 0.7407 0.7400 0.7392
2898.320048 0.7385 0.7377 0.7369 0.7362 0.7354
2903.013435 0.7341 0.7318 0.7296 0.7273 0.7227
2907.706823 0.7147 0.7067 0.6987 0.6918 0.6866
2912.400210 0.6813 0.6761 0.6713 0.6673 0.6633
2917.093598 0.6593 0.6565 0.6552 0.6540 0.6527
2921.786985 0.6487 0.6410 0.6332 0.6255 0.6147
2926.480373 0.6000 0.5852 0.5705 0.5592 0.5527
2931.173760 0.5462 0.5397 0.5336 0.5280 0.5224
2935.867148 0.5168 0.5113 0.5061 0.5008 0.4956
2940.560535 0.4911 0.4873 0.4836 0.4798 0.4765
2945.253923 0.4735 0.4705 0.4675 0.4648 0.4626
2949.947310 0.4603 0.4581 0.4564 0.4551 0.4539
2954.640698 0.4526 0.4516 0.4509 0.4501 0.4494
2959.334085 0.4489 0.4486 0.4484 0.4481 0.4480
2964.027473 0.4480 0.4480 0.4480 0.4481 0.4484
2968.720860 0.4486 0.4489 0.4497 0.4509 0.4522
2973.414248 0.4535 0.4551 0.4568 0.4586 0.4603
2978.107635 0.4642 0.4695 0.4747 0.4800 0.4898
2982.801022 0.5026 0.5153 0.5281 0.5361 0.5411
2987.494410 0.5461 0.5511 0.5559 0.5607 0.5654
2992.187797 0.5702 0.5770 0.5850 0.5930 0.6010
2996.881185 0.6076 0.6133 0.6191 0.6248 0.6298
3001.574572 0.6343 0.6388 0.6433 0.6470 0.6503
3006.267960 0.6535 0.6568 0.6588 0.6601 0.6614
3010.961347 0.6626 0.6635 0.6643 0.6650 0.6658
3015.654735 0.6660 0.6660 0.6660 0.6660 0.6655
3020.348122 0.6647 0.6640 0.6632 0.6630 0.6630
3025.041510 0.6630 0.6630 0.6630 0.6630 0.6630
3029.734897 0.6630 0.6630 0.6630 0.6630 0.6630
3034.428285 0.6632 0.6634 0.6637 0.6639 0.6645
3039.121672 0.6653 0.6660 0.6668 0.6686 0.6709
3043.815060 0.6731 0.6754 0.6780 0.6809 0.6837
3048.508447 0.6865 0.6900 0.6938 0.6975 0.7013
3053.201834 0.7034 0.7052 0.7069 0.7087 0.7106
3057.895222 0.7126 0.7146 0.7166 0.7203 0.7243
3062.588609 0.7283 0.7323 0.7365 0.7407 0.7450
3067.281997 0.7492 0.7537 0.7582 0.7627 0.7672
3071.975384 0.7713 0.7753 0.7793 0.7833 0.7869
3076.668772 0.7904 0.7939 0.7974 0.8003 0.8030
3081.362159 0.8058 0.8085 0.8115 0.8146 0.8177
3086.055547 0.8207 0.8217 0.8224 0.8232 0.8239
3090.748934 0.8249 0.8259 0.8269 0.8279 0.8294
3095.442322 0.8309 0.8324 0.8339 0.8354 0.8369
3100.135709 0.8384 0.8399 0.8407 0.8414 0.8422
3104.829097 0.8429 0.8437 0.8444 0.8452 0.8459
3109.522484 0.8472 0.8484 0.8497 0.8509 0.8512
3114.215872 0.8515 0.8517 0.8520 0.8527 0.8534
3118.909259 0.8542 0.8549 0.8550 0.8550 0.8550
3123.602647 0.8550 0.8555 0.8560 0.8565 0.8570
3128.296034 0.8573 0.8575 0.8578 0.8580 0.8580
3132.989421 0.8580 0.8580 0.8580 0.8588 0.8595
3137.682809 0.8603 0.8610 0.8615 0.8620 0.8625
3142.376196 0.8630 0.8633 0.8635 0.8638 0.8640
3147.069584 0.8640 0.8640 0.8640 0.8640 0.8645
3151.762971 0.8650 0.8655 0.8660 0.8660 0.8660
3156.456359 0.8660 0.8660 0.8663 0.8665 0.8668
3161.149746 0.8671 0.8676 0.8681 0.8686 0.8690
3165.843134 0.8690 0.8690 0.8690 0.8691 0.8698
3170.536521 0.8706 0.8713 0.8720 0.8720 0.8720
3175.229909 0.8720 0.8720 0.8720 0.8720 0.8720
3179.923296 0.8720 0.8720 0.8720 0.8720 0.8720
3184.616684 0.8720 0.8720 0.8720 0.8720 0.8720
3189.310071 0.8720 0.8720 0.8720 0.8720 0.8720
3194.003459 0.8720 0.8720 0.8723 0.8725 0.8728
3198.696846 0.8730 0.8730 0.8730 0.8730 0.8731
3203.390234 0.8736 0.8741 0.8746 0.8750 0.8750
3208.083621 0.8750 0.8750 0.8749 0.8744 0.8739
3212.777008 0.8734 0.8730 0.8730 0.8730 0.8730
3217.470396 0.8730 0.8730 0.8730 0.8730 0.8730
3222.163783 0.8730 0.8730 0.8730 0.8730 0.8730
3226.857171 0.8730 0.8730 0.8731 0.8736 0.8741
3231.550558 0.8746 0.8751 0.8753 0.8756 0.8758
3236.243946 0.8762 0.8767 0.8772 0.8777 0.8780
3240.937333 0.8780 0.8780 0.8780 0.8781 0.8783
3245.630721 0.8786 0.8788 0.8792 0.8797 0.8802
3250.324108 0.8807 0.8811 0.8813 0.8816 0.8818
3255.017496 0.8820 0.8820 0.8820 0.8820 0.8820
3259.710883 0.8820 0.8820 0.8820 0.8820 0.8820
3264.404271 0.8820 0.8820 0.8820 0.8820 0.8820
3269.097658 0.8820 0.8820 0.8820 0.8820 0.8820
3273.791046 0.8820 0.8820 0.8820 0.8820 0.8820
3278.484433 0.8820 0.8820 0.8820 0.8820 0.8820
3283.177820 0.8820 0.8820 0.8820 0.8820 0.8820
3287.871208 0.8820 0.8819 0.8816 0.8814 0.8811
3292.564595 0.8808 0.8803 0.8798 0.8793 0.8790
3297.257983 0.8790 0.8790 0.8790 0.8790 0.8790
3301.951370 0.8790 0.8790 0.8790 0.8790 0.8790
3306.644758 0.8790 0.8789 0.8786 0.8784 0.8781
3311.338145 0.8777 0.8772 0.8767 0.8762 0.8760
3316.031533 0.8760 0.8760 0.8760 0.8759 0.8756
3320.724920 0.8754 0.8751 0.8750 0.8750 0.8750
3325.418308 0.8750 0.8747 0.8742 0.8737 0.8732
3330.111695 0.8730 0.8730 0.8730 0.8730 0.8730
3334.805083 0.8730 0.8730 0.8730 0.8730 0.8730
3339.498470 0.8730 0.8730 0.8730 0.8730 0.8730
3344.191858 0.8730 0.8729 0.8726 0.8724 0.8721
3348.885245 0.8720 0.8720 0.8720 0.8720 0.8720
3353.578633 0.8720 0.8720 0.8720 0.8720 0.8720
3358.272020 0.8720 0.8720 0.8717 0.8712 0.8707
3362.965407 0.8702 0.8700 0.8700 0.8700 0.8700
3367.658795 0.8698 0.8696 0.8693 0.8691 0.8690
3372.352182 0.8690 0.8690 0.8690 0.8690 0.8690
3377.045570 0.8690 0.8690 0.8690 0.8690 0.8690
3381.738957 0.8690 0.8690 0.8690 0.8690 0.8690
3386.432345 0.8690 0.8690 0.8690 0.8690 0.8690
3391.125732 0.8690 0.8690 0.8690 0.8690 0.8690
3395.819120 0.8690 0.8690 0.8690 0.8690 0.8690
3400.512507 0.8690 0.8690 0.8690 0.8690 0.8690
3405.205895 0.8690 0.8690 0.8690 0.8690 0.8690
3409.899282 0.8690 0.8690 0.8690 0.8690 0.8690
3414.592670 0.8690 0.8690 0.8690 0.8690 0.8690
3419.286057 0.8690 0.8686 0.8681 0.8676 0.8671
3423.979445 0.8668 0.8665 0.8663 0.8660 0.8660
3428.672832 0.8660 0.8660 0.8660 0.8654 0.8646
3433.366220 0.8639 0.8631 0.8630 0.8630 0.8630
3438.059607 0.8630 0.8626 0.8621 0.8616 0.8611
3442.752994 0.8610 0.8610 0.8610 0.8610 0.8610
3447.446382 0.8610 0.8610 0.8610 0.8610 0.8610
3452.139769 0.8610 0.8610 0.8608 0.8605 0.8603
3456.833157 0.8600 0.8600 0.8600 0.8600 0.8600
3461.526544 0.8600 0.8600 0.8600 0.8600 0.8600
3466.219932 0.8600 0.8600 0.8600 0.8600 0.8600
3470.913319 0.8600 0.8600 0.8600 0.8600 0.8600
3475.606707 0.8600 0.8600 0.8600 0.8600 0.8600
3480.300094 0.8600 0.8600 0.8600 0.8600 0.8600
3484.993482 0.8600 0.8600 0.8600 0.8600 0.8600
3489.686869 0.8600 0.8600 0.8600 0.8600 0.8600
3494.380257 0.8600 0.8600 0.8600 0.8600 0.8600
3499.073644 0.8595 0.8590 0.8585 0.8580 0.8580
3503.767032 0.8580 0.8580 0.8580 0.8572 0.8565
3508.460419 0.8557 0.8550 0.8542 0.8535 0.8527
3513.153806 0.8520 0.8512 0.8505 0.8497 0.8490
3517.847194 0.8487 0.8485 0.8482 0.8480 0.8465
3522.540581 0.8450 0.8435 0.8420 0.8407 0.8395
3527.233969 0.8382 0.8370 0.8352 0.8335 0.8317
3531.927356 0.8300 0.8295 0.8290 0.8285 0.8280
3536.620744 0.8277 0.8275 0.8272 0.8270 0.8270
3541.314131 0.8270 0.8270 0.8269 0.8264 0.8259
3546.007519 0.8254 0.8250 0.8247 0.8245 0.8242
3550.700906 0.8239 0.8234 0.8229 0.8224 0.8220
3555.394294 0.8220 0.8220 0.8220 0.8220 0.8217
3560.087681 0.8215 0.8212 0.8210 0.8210 0.8210
3564.781069 0.8210 0.8209 0.8204 0.8199 0.8194
3569.474456 0.8190 0.8190 0.8190 0.8190 0.8191
3574.167844 0.8196 0.8201 0.8206 0.8211 0.8213
3578.861231 0.8216 0.8218 0.8223 0.8235 0.8248
3583.554619 0.8260 0.8273 0.8288 0.8303 0.8318
3588.248006 0.8334 0.8351 0.8369 0.8386 0.8403
3592.941393 0.8418 0.8433 0.8448 0.8463 0.8478
3597.634781 0.8493 0.8508 0.8522 0.8529 0.8537
3602.328168 0.8544 0.8553 0.8565 0.8578 0.8590
3607.021556 0.8602 0.8609 0.8617 0.8625 0.8632
3611.714943 0.8640 0.8647 0.8655 0.8661 0.8663
3616.408331 0.8666 0.8668 0.8672 0.8680 0.8687
3621.101718 0.8695 0.8700 0.8700 0.8700 0.8700
3625.795106 0.8700 0.8700 0.8700 0.8700 0.8702
3630.488493 0.8707 0.8712 0.8717 0.8720 0.8720
3635.181881 0.8720 0.8720 0.8720 0.8720 0.8720
3639.875268 0.8720 0.8720 0.8720 0.8720 0.8720
3644.568656 0.8718 0.8713 0.8708 0.8703 0.8700
3649.262043 0.8700 0.8700 0.8700 0.8700 0.8700
3653.955431 0.8700 0.8700 0.8699 0.8696 0.8694
3658.648818 0.8691 0.8690 0.8690 0.8690 0.8690
3663.342206 0.8688 0.8683 0.8678 0.8673 0.8670
3668.035593 0.8670 0.8670 0.8670 0.8672 0.8677
3672.728980 0.8682 0.8687 0.8691 0.8694 0.8696
3677.422368 0.8699 0.8702 0.8707 0.8712 0.8717
3682.115755 0.8721 0.8724 0.8726 0.8729 0.8733
3686.809143 0.8738 0.8743 0.8748 0.8751 0.8754
3691.502530 0.8756 0.8759 0.8763 0.8768 0.8773
3696.195918 0.8778 0.8781 0.8784 0.8786 0.8789
3700.889305 0.8790 0.8790 0.8790 0.8790 0.8790
3705.582693 0.8790 0.8790 0.8790 0.8793 0.8798
3710.276080 0.8803 0.8808 0.8810 0.8810 0.8810
3714.969468 0.8810 0.8811 0.8814 0.8816 0.8819
3719.662855 0.8823 0.8828 0.8833 0.8838 0.8840
3724.356243 0.8840 0.8840 0.8840 0.8842 0.8844
3729.049630 0.8847 0.8849 0.8850 0.8850 0.8850
3733.743018 0.8850 0.8853 0.8858 0.8863 0.8868
3738.436405 0.8875 0.8882 0.8890 0.8897 0.8902
3743.129792 0.8904 0.8907 0.8909 0.8910 0.8910
3747.823180 0.8910 0.8910 0.8913 0.8918 0.8923
3752.516567 0.8928 0.8930 0.8930 0.8930 0.8930
3757.209955 0.8930 0.8930 0.8930 0.8930 0.8930
3761.903342 0.8930 0.8930 0.8930 0.8930 0.8930
3766.596730 0.8930 0.8930 0.8930 0.8930 0.8930
3771.290117 0.8930 0.8930 0.8930 0.8930 0.8930
3775.983505 0.8930 0.8930 0.8930 0.8930 0.8930
3780.676892 0.8930 0.8930 0.8930 0.8930 0.8930
3785.370280 0.8930 0.8930 0.8932 0.8934 0.8937
3790.063667 0.8939 0.8940 0.8940 0.8940 0.8940
3794.757055 0.8944 0.8949 0.8954 0.8959 0.8960
3799.450442 0.8960 0.8960 0.8960 0.8962 0.8965
3804.143830 0.8967 0.8970 0.8970 0.8970 0.8970
3808.837217 0.8970 0.8974 0.8979 0.8984 0.8989
3813.530605 0.8990 0.8990 0.8990 0.8990 0.8992
3818.223992 0.8995 0.8997 0.9000 0.9004 0.9009
3822.917379 0.9014 0.9019 0.9020 0.9020 0.9020
3827.610767 0.9020 0.9020 0.9020 0.9020 0.9020
3832.304154 0.9020 0.9020 0.9020 0.9020 0.9020
3836.997542 0.9020 0.9020 0.9020 0.9015 0.9010
3841.690929 0.9005 0.9000 0.9000 0.9000 0.9000
3846.384317 0.9000 0.9000 0.9000 0.9000 0.9000
3851.077704 0.8998 0.8995 0.8993 0.8990 0.8985
3855.771092 0.8980 0.8975 0.8970 0.8970 0.8970
3860.464479 0.8970 0.8970 0.8970 0.8970 0.8970
3865.157867 0.8970 0.8968 0.8965 0.8963 0.8960
3869.851254 0.8960 0.8960 0.8960 0.8960 0.8960
3874.544642 0.8960 0.8960 0.8960 0.8960 0.8960
3879.238029 0.8960 0.8960 0.8960 0.8960 0.8960
3883.931417 0.8960 0.8960 0.8960 0.8960 0.8960
3888.624804 0.8955 0.8950 0.8945 0.8940 0.8940
3893.318192 0.8940 0.8940 0.8940 0.8937 0.8935
3898.011579 0.8932 0.8930 0.8922 0.8915 0.8907
3902.704966 0.8900 0.8895 0.8890 0.8885 0.8880
3907.398354 0.8877 0.8875 0.8872 0.8869 0.8862
3912.091741 0.8854 0.8847 0.8839 0.8834 0.8829
3916.785129 0.8824 0.8820 0.8820 0.8820 0.8820
3921.478516 0.8820 0.8817 0.8815 0.8812 0.8810
3926.171904 0.8810 0.8810 0.8810 0.8809 0.8804
3930.865291 0.8799 0.8794 0.8790 0.8790 0.8790
3935.558679 0.8790 0.8791 0.8796 0.8801 0.8806
3940.252066 0.8810 0.8810 0.8810 0.8810 0.8810
3944.945454 0.8813 0.8815 0.8818 0.8821 0.8826
3949.638841 0.8831 0.8836 0.8840 0.8840 0.8840
3954.332229 0.8840 0.8841 0.8843 0.8846 0.8848
3959.025616 0.8851 0.8856 0.8861 0.8866 0.8872
3963.719004 0.8882 0.8892 0.8902
##END=
