##TITLE=Methylisobutylamine
##JCAMP-DX=4.24
##DATA TYPE=INFRARED SPECTRUM
##ORIGIN=EPA-IR VAPOR PHASE LIBRARY
##OWNER=SRD/NIST
Collection (C) 2018 copyright by the U.S. Secretary of Commerce
on behalf of the United States of America. All rights reserved.
##CAS REGISTRY NO=625-43-4
##MOLFORM=C 5 H 13 N
##$NIST SOURCE=MSDC-IR
##STATE=gas
##XUNITS=1/CM
##YUNITS=ABSORBANCE
##XFACTOR=1.
##YFACTOR=0.001
##DELTAX=1.92898
##FIRSTX=549.8
##LASTX=4000.7
##FIRSTY=4.71
##MAXX=4000.7
##MINX=549.759
##MAXY=0.29381
##MINY=0.0001323
##NPOINTS=1790
##XYDATA=(X++(Y..Y))
549.759 4.71 4.76 5.05 5.28 5.33 4.98 5.26 5.8 5.87 5.75
569.049 5.8 5.87 5.83 6.14 6.51 6.35 6.38 6.61 6.77 6.76
588.339 6.98 7.22 7.23 7.66 8.05 8.21 8.64 9.03 9.27 9.58
607.628 9.97 10.38 10.66 11.06 11.45 11.96 12.43 12.83 13.25 13.78
626.918 14.38 14.94 15.51 15.8 16.4 17.13 17.6 18.13 18.57 19.04
646.208 19.7 20.42 21.15 21.79 22.33 22.83 23.09 23.45 24.02 24.56
665.498 24.94 25.17 25.48 26.04 26.38 26.56 26.98 27.49 28.03 28.52
684.787 28.92 29.51 30.28 30.74 31.24 31.85 32.53 33.21 33.9 34.45
704.077 34.87 35.48 35.92 36.21 36.65 37.05 37.21 37.39 37.47 37.17
723.367 36.93 36.78 36.1 35.22 34.52 33.69 32.56 31.34 30.14 28.7
742.657 27.24 26.04 24.74 23.33 21.89 20.36 19.22 18.03 16.69 15.62
761.947 14.6 13.73 13.1 12.17 11.2 10.59 10.2 9.71 9.2 8.81
781.236 8.56 8.48 8.35 8.24 8.2 8.32 8.37 8.43 8.63 8.69
800.526 8.66 8.73 8.75 8.83 9.08 9.24 9.23 9.33 9.32 9.03
819.816 8.97 8.95 8.81 8.63 8.35 8.13 7.81 7.49 7.3 7.07
839.106 6.75 6.66 6.78 6.58 6.12 5.89 5.91 5.75 5.65 5.68
858.395 5.78 5.85 5.82 5.88 5.99 6.08 6.15 6.33 6.35 6.18
877.685 6.42 6.59 6.46 6.61 6.74 6.81 6.82 6.78 6.95 7.07
896.975 7.03 7.19 7.39 7.55 7.62 7.57 7.7 7.86 7.96 8.09
916.265 8.35 8.51 8.68 8.84 9.06 9.34 9.44 9.73 10.04 10.26
935.555 10.33 10.43 10.64 10.74 10.98 11.16 11.31 11.47 11.43 11.5
954.844 11.55 11.68 11.62 11.41 11.25 10.99 10.81 10.74 10.79 10.57
974.134 10.08 9.78 9.4 8.84 8.31 7.76 7.35 6.98 6.61 6.16
993.424 5.76 5.52 5.08 4.63 4.35 4.13 4.16 4.03 3.76 3.65
1012.714 3.62 3.61 3.52 3.56 3.72 3.9 3.96 3.96 3.9 3.81
1032.003 4.03 4.3 4.44 4.77 4.94 5.01 5.47 6.03 6.28 6.7
1051.293 7.63 8.34 9.23 10.17 10.76 11.86 13.33 14.56 16.03 17.56
1070.583 18.53 19.69 21.09 22.26 23.47 24.57 25.63 26.54 27.56 28.84
1089.873 29.66 30.2 30.61 31.15 31.75 32.14 32.63 33.14 34.23 36.04
1109.163 37.64 39.21 40.84 42.47 44.1 45.64 47.12 48.62 49.97 51.32
1128.452 52.61 53.58 54.77 56.04 56.75 56.89 56.5 55.82 54.6 52.95
1147.742 51.27 49.42 47.11 44.98 43.16 40.99 38.9 36.98 34.62 32.19
1167.032 29.66 27.01 24.63 22.27 20.06 18.07 16.19 14.93 13.8 12.64
1186.322 11.81 10.96 10.02 9.27 8.78 8.02 7.46 7.08 6.34 5.64
1205.611 5.26 5.21 4.85 4.36 3.98 3.84 3.83 3.79 3.8 3.78
1224.901 3.71 3.56 3.63 3.82 4.04 4.17 4.26 4.47 4.74 5.01
1244.191 5.44 5.7 5.78 6.06 6.24 6.43 6.5 6.54 6.8 6.66
1263.481 6.47 6.42 6.21 6.1 6.1 5.9 5.72 5.7 5.68 5.59
1282.771 5.63 5.87 5.99 6.15 6.38 6.59 6.67 6.79 6.94 7.04
1302.060 7.13 7.14 7.19 7.24 7.25 7.18 7.11 7.03 7.02 7.17
1321.350 7.39 7.62 7.89 8.22 8.57 8.93 9.31 9.74 10.29 10.89
1340.640 11.61 12.55 13.41 14.27 15.24 16.05 16.85 17.78 18.85 19.93
1359.930 20.97 22.07 23.27 24.35 25.05 25.58 26.57 28.46 30.94 32.86
1379.219 33.91 34.3 34.03 33.5 33.15 32.74 31.2 28.9 27.46 26.73
1398.509 25.4 23.22 20.63 17.97 15.68 13.95 12.77 12.05 11.77 11.79
1417.799 12.03 12.48 13.22 14.25 15.51 17.09 19.12 21.44 24.02 26.75
1437.089 29.66 32.37 34.99 37.83 40.75 43.49 46.23 49.12 52.16 55.09
1456.378 57.81 60.35 62.24 63.71 64.74 65.14 64.68 63.66 62.38 60.6
1475.668 58.11 55.44 52.92 49.71 45.71 41.47 37.27 33.14 29.21 25.63
1494.958 22.45 19.62 17.17 15.13 13.41 11.93 10.66 9.56 8.57 7.75
1514.248 7.17 6.59 6.05 5.6 5.26 4.97 4.72 4.6 4.45 4.18
1533.538 3.97 3.88 3.78 3.7 3.66 3.53 3.42 3.38 3.27 3.19
1552.827 3.1 2.97 2.92 2.86 2.85 2.78 2.67 2.72 2.81 2.72
1572.117 2.72 2.82 2.75 2.64 2.54 2.44 2.47 2.54 2.58 2.51
1591.407 2.45 2.48 2.5 2.48 2.4 2.44 2.47 2.35 2.34 2.4
1610.697 2.45 2.41 2.36 2.39 2.4 2.45 2.43 2.38 2.44 2.44
1629.986 2.43 2.41 2.32 2.27 2.3 2.23 2.26 2.31 2.24 2.19
1649.276 2.2 2.24 2.14 2.08 2.08 2.02 2.03 1.98 1.89 1.92
1668.566 1.91 1.94 1.92 1.8 1.74 1.72 1.73 1.73 1.72 1.71
1687.856 1.64 1.55 1.57 1.53 1.45 1.44 1.39 1.42 1.39 1.29
1707.146 1.22 1.21 1.24 1.21 1.17 1.11 1.13 1.08 0.9901 0.9632
1726.435 0.9603 0.965 0.9724 0.8866 0.936 0.9351 0.8821 0.9439 0.9539 0.9478
1745.725 0.8845 0.8595 0.8262 0.8751 0.9194 0.874 0.8842 0.9054 0.9298 0.961
1765.015 0.9258 0.9037 0.9474 0.8865 0.871 0.9447 0.9517 0.9484 0.9421 0.9413
1784.305 0.9601 0.9551 1 1.04 1.05 1.06 1.05 1.06 1.06 1.12
1803.594 1.13 1.13 1.16 1.14 1.16 1.24 1.27 1.23 1.21 1.25
1822.884 1.23 1.27 1.32 1.23 1.22 1.27 1.24 1.22 1.19 1.23
1842.174 1.27 1.26 1.26 1.26 1.22 1.21 1.19 1.11 1.08 1.12
1861.464 1.12 1.1 1.07 1.02 0.9756 0.9983 1.01 1 0.9572 0.9271
1880.754 0.8744 0.8111 0.7801 0.7947 0.8312 0.7832 0.755 0.7636 0.7213 0.6804
1900.043 0.7381 0.7129 0.6662 0.7025 0.7137 0.6674 0.6116 0.6356 0.6456 0.638
1919.333 0.6395 0.6311 0.6212 0.5802 0.566 0.5429 0.5416 0.5445 0.4778 0.4641
1938.623 0.4968 0.4872 0.4879 0.469 0.4257 0.3801 0.3794 0.4434 0.4697 0.4275
1957.913 0.4074 0.4268 0.4473 0.499 0.4929 0.4226 0.412 0.3652 0.3533 0.4658
1977.202 0.456 0.4445 0.5041 0.4837 0.4847 0.4709 0.4983 0.5343 0.5201 0.5396
1996.492 0.57 0.5769 0.5344 0.5944 0.6235 0.6032 0.6566 0.6541 0.6337 0.6621
2015.782 0.715 0.7112 0.6453 0.6891 0.7733 0.7498 0.7291 0.7277 0.7633 0.7922
2035.072 0.8099 0.8406 0.8224 0.8236 0.8014 0.7905 0.8228 0.8641 0.853 0.8917
2054.362 0.9714 0.964 0.914 0.927 0.9656 0.9824 1.09 1.15 1.15 1.12
2073.651 1.06 1.05 1.07 1.09 1.11 1.1 1.11 1.13 1.09 1.12
2092.941 1.1 1.03 0.9932 0.9745 0.9818 0.9623 0.942 0.9849 0.951 0.8671
2112.231 0.8354 0.8428 0.8262 0.7734 0.7424 0.7366 0.7325 0.7069 0.6883 0.6801
2131.521 0.685 0.6709 0.6174 0.5499 0.5917 0.6336 0.5865 0.6188 0.6114 0.5595
2150.810 0.5612 0.5511 0.6179 0.6826 0.6888 0.6241 0.5321 0.5377 0.5686 0.6315
2170.100 0.622 0.5837 0.6344 0.6408 0.6114 0.6629 0.7127 0.7558 0.8054 0.6827
2189.390 0.6075 0.6864 0.7911 0.8345 0.8119 0.8083 0.7468 0.7337 0.7684 0.7409
2208.680 0.7137 0.7192 0.7543 0.8024 0.7655 0.7686 0.7599 0.7133 0.7387 0.7728
2227.970 0.7299 0.6862 0.6882 0.722 0.757 0.7304 0.7603 0.7936 0.7309 0.7518
2247.259 0.7697 0.6774 0.6925 0.7565 0.7335 0.7048 0.7115 0.7899 0.83 0.7393
2266.549 0.689 0.6383 0.6403 0.7171 0.7587 0.7721 0.7976 0.7655 0.7669 0.7997
2285.839 0.8136 0.7901 0.7678 0.8277 0.8062 0.8215 0.8464 0.8108 0.8418 0.8428
2305.129 0.7916 0.7874 0.7707 0.7313 0.7712 0.792 0.8007 0.8731 0.7785 0.6974
2324.418 0.6631 0.6908 0.826 0.809 0.7363 0.7037 0.6765 0.7425 0.8644 0.8618
2343.708 0.9317 0.9394 0.913 0.8951 0.8235 0.9224 1.05 1.03 0.9316 0.9517
2362.998 1.03 0.9956 0.9238 0.9216 0.929 0.9117 0.9255 0.97 1 1.12
2382.288 1.19 1.14 1.14 1.09 1.1 1.22 1.27 1.3 1.33 1.26
2401.578 1.23 1.21 1.16 1.18 1.28 1.29 1.23 1.23 1.26 1.28
2420.867 1.23 1.23 1.27 1.34 1.36 1.33 1.28 1.22 1.26 1.26
2440.157 1.29 1.29 1.26 1.23 1.21 1.31 1.38 1.37 1.4 1.39
2459.447 1.35 1.38 1.37 1.36 1.43 1.39 1.39 1.48 1.5 1.53
2478.737 1.51 1.52 1.53 1.53 1.51 1.55 1.71 1.76 1.69 1.67
2498.026 1.67 1.7 1.75 1.81 1.89 1.93 1.96 2.03 2.16 2.15
2517.316 2.11 2.17 2.26 2.32 2.4 2.38 2.32 2.36 2.33 2.4
2536.606 2.48 2.47 2.5 2.62 2.68 2.7 2.68 2.68 2.79 2.92
2555.896 2.95 2.96 3.11 3.22 3.22 3.22 3.28 3.36 3.53 3.72
2575.186 3.72 3.8 3.93 4.07 4.23 4.35 4.49 4.46 4.48 4.6
2594.475 4.69 4.78 4.83 4.86 4.96 5.11 5.19 5.31 5.4 5.38
2613.765 5.32 5.5 5.67 5.74 5.83 5.94 6.12 6.22 6.29 6.31
2633.055 6.34 6.5 6.63 6.68 6.75 6.84 6.92 7.02 7.1 7.2
2652.345 7.41 7.53 7.57 7.63 7.8 8.02 8.1 8.24 8.48 8.64
2671.634 8.88 9.3 9.6 9.84 10.19 10.57 10.91 11.36 11.91 12.36
2690.924 12.8 13.27 13.71 14.14 14.57 15.01 15.37 15.74 16.14 16.38
2710.214 16.69 16.99 17.14 17.31 17.57 17.92 18.3 18.59 18.78 19.06
2729.504 19.32 19.55 19.89 20.3 20.73 21.2 21.84 22.56 23.11 23.9
2748.794 24.95 25.98 27.19 28.74 30.53 32.48 34.86 37.5 40.43 43.64
2768.083 47.19 51.28 55.65 60.34 65.55 71.26 77.32 83.7 90.2 96.64
2787.373 102.78 108.37 113.31 117.18 120.03 122.19 123.75 124.76 125.2 124.77
2806.663 123.53 121.16 117.72 113.68 109.27 104.79 100.44 96.64 93.37 90.51
2825.953 88.14 86.13 84.59 83.55 82.96 82.89 83.14 83.78 84.85 86.23
2845.242 87.94 89.7 91.73 94.14 96.73 99.39 102.49 106.19 110.05 114.16
2864.532 118.65 123.35 128.1 132.73 136.85 140.26 143.22 146.07 149.15 152.7
2883.822 156.43 160 163.1 165.2 166.55 166.99 166.87 166.75 166.27 165.89
2903.112 165.71 165.42 165.25 165.15 164.97 164.76 164.78 164.85 165.07 165.76
2922.401 166.66 168.14 170.24 172.66 175.53 178.89 182.75 187.41 192.95 199.1
2941.691 205.78 213.07 220.77 228.82 237.56 247.27 257.6 268.22 279.2 289.38
2960.981 293.81 288.87 279.45 271.12 263.65 253.81 242.41 230.44 215.62 197.28
2980.271 176.66 155.93 136.47 118.27 101.64 87.3 74.76 63.98 54.69 46.52
2999.561 40.14 34.88 30.66 27.39 24.49 22.27 20.58 19.12 17.87 16.74
3018.850 15.77 15.02 14.49 14.02 13.49 12.93 12.5 12.25 11.98 11.71
3038.140 11.39 11.11 11 10.84 10.73 10.67 10.45 10.25 10.12 9.99
3057.430 9.88 9.82 9.78 9.65 9.47 9.38 9.23 9.01 8.93 8.86
3076.720 8.67 8.59 8.53 8.29 7.98 7.84 7.76 7.45 7.29 7.24
3096.009 7.05 6.94 6.82 6.66 6.56 6.41 6.25 6.17 6.15 6.05
3115.299 5.91 5.82 5.69 5.65 5.59 5.64 5.56 5.42 5.44 5.45
3134.589 5.5 5.43 5.36 5.28 5.14 5.21 5.28 5.23 5.23 5.3
3153.879 5.26 5.07 5.13 5.13 4.93 4.91 5.06 5.05 4.92 4.97
3173.169 4.8 4.57 4.63 4.64 4.6 4.53 4.45 4.3 4.14 4.04
3192.458 3.95 3.86 3.67 3.57 3.56 3.47 3.34 3.31 2.96 2.59
3211.748 2.49 2.42 2.39 2.32 2.3 2.13 1.93 1.93 1.91 1.77
3231.038 1.66 1.71 1.72 1.7 1.66 1.46 1.32 1.27 1.38 1.45
3250.328 1.31 1.2 1.31 1.38 1.17 1.08 1.11 1.16 1.13 1.05
3269.617 1.17 1.13 1.01 1.18 1.28 1.22 1.31 1.39 1.36 1.3
3288.907 1.35 1.36 1.34 1.24 1.19 1.3 1.4 1.27 1.14 1.3
3308.197 1.39 1.19 0.9606 0.9886 1.17 1.32 1.16 1.09 1.1 0.9536
3327.487 0.9342 0.9178 1.05 1.16 1.12 1.08 1.14 1.31 1.28 1.3
3346.777 1.29 1.26 1.35 1.38 1.37 1.36 1.25 1.2 1.35 1.27
3366.066 1.1 1.2 1.21 1 0.9695 1.1 1.14 1.1 1.14 1.08
3385.356 0.981 1.07 1.05 0.8386 0.7514 0.9439 1.13 1.23 1.32 1.1
3404.646 0.771 0.9135 1.05 1.03 0.8356 0.7834 0.9111 0.8062 0.7363 0.7207
3423.936 0.8039 0.911 0.7936 0.6759 0.7315 0.693 0.5563 0.5444 0.5812 0.5955
3443.225 0.5428 0.5091 0.6854 0.7457 0.7937 0.7226 0.5438 0.5434 0.6635 0.5968
3462.515 0.4455 0.5512 0.5087 0.3688 0.4755 0.5563 0.4917 0.4588 0.4768 0.4499
3481.805 0.2929 0.3021 0.3386 0.2905 0.3929 0.3011 0.2414 0.3868 0.3477 0.2127
3501.095 0.291 0.2994 0.229 0.4579 0.3939 0.2883 0.4776 0.4643 0.3882 0.4313
3520.385 0.3582 0.3924 0.3648 0.2691 0.3461 0.3831 0.4757 0.4575 0.3112 0.3187
3539.674 0.2968 0.346 0.3639 0.3673 0.3264 0.2032 0.372 0.538 0.3648 0.2964
3558.964 0.315 0.3293 0.3317 0.3153 0.2655 0.2627 0.3974 0.4102 0.4302 0.3612
3578.254 0.3242 0.3737 0.3766 0.3432 0.441 0.6047 0.5644 0.3905 0.307 0.327
3597.544 0.3366 0.3198 0.3192 0.1681 0.1323 0.2933 0.3724 0.3599 0.3544 0.3601
3616.833 0.344 0.2585 0.4459 0.5823 0.5924 0.6308 0.5848 0.6318 0.3661 0.2295
3636.123 0.2238 0.2209 0.4046 0.456 0.501 0.6268 0.654 0.5696 0.5534 0.4934
3655.413 0.3838 0.3362 0.4036 0.4441 0.4736 0.3966 0.3062 0.3406 0.4321 0.4084
3674.703 0.2705 0.308 0.3202 0.3357 0.3877 0.5599 0.6658 0.4828 0.4125 0.5039
3693.993 0.3937 0.4019 0.5461 0.6214 0.599 0.6039 0.6895 0.7453 0.6581 0.4945
3713.282 0.6087 0.6332 0.4824 0.4681 0.5716 0.6596 0.5183 0.5183 0.6479 0.4219
3732.572 0.4264 0.5787 0.5584 0.7985 0.7792 0.6127 0.5939 0.6732 0.7343 0.6436
3751.862 0.7311 0.7055 0.6851 0.822 0.736 0.8197 0.9791 0.7467 0.6861 0.9623
3771.152 0.9996 0.8711 0.937 0.9917 1.11 0.9817 0.8784 0.9171 0.8906 0.8743
3790.441 0.793 0.8074 0.9756 0.9259 0.7912 0.8638 1.12 1.29 1.13 1.03
3809.731 0.9029 0.8838 0.9318 0.8493 1.01 1.21 1.23 1.32 1.23 1.13
3829.021 1.08 0.9281 0.774 0.8525 0.9647 0.9502 1.02 1.08 1.09 1.18
3848.311 1.16 1.09 1.15 1.03 1.01 0.9881 0.8475 0.8043 0.9485 1.08
3867.601 1.03 0.9472 0.919 1 1.07 0.9738 0.8976 1.07 1.07 1.01
3886.890 1.39 1.35 1.1 1.39 1.41 1.19 1.19 1.12 1.15 1.3
3906.180 1.15 1.08 1.17 1.35 1.42 1.09 1.08 1.31 1.45 1.52
3925.470 1.43 1.19 1.17 1.24 1.27 1.32 1.43 1.54 1.39 1.38
3944.760 1.52 1.66 1.63 1.63 1.66 1.69 1.55 1.18 1.18 1.41
3964.049 1.43 1.32 1.35 1.29 1.28 1.34 1.18 1.35 1.71 1.66
3983.339 1.52 1.48 1.34 1.29 1.44 1.33 1.09 1.1 1.27 1.48
##END=
