##TITLE=ETHYL NITRATE
##JCAMP-DX=4.24
##DATA TYPE=INFRARED SPECTRUM
##CLASS=COBLENTZ
##ORIGIN=DOW CHEMICAL COMPANY
##OWNER=COBLENTZ SOCIETY
Collection (C) 2018 copyright by the U.S. Secretary of Commerce
on behalf of the United States of America. All rights reserved.
##DATE=1964/12/29
##CAS REGISTRY NO=625-58-1
##MOLFORM=C2 H5 N O3
##SOURCE REFERENCE=COBLENTZ NO. 6990
##$NIST SOURCE=COBLENTZ
##$NIST IMAGE=cob6990
##SPECTROMETER/DATA SYSTEM=DOW KBr FOREPRISM
##INSTRUMENT PARAMETERS=GRATING BLAZED AT 3.5, 12.0, 20.0 MICRONS AND CHANGED AT 5.0, 7.5, 14.9 MICRONS
##STATE=GAS (30 mmHg DILUTED TO A TOTAL PRESSURE OF 600 mmHg WITH N2)
##PATH LENGTH=5 CM
##SAMPLING PROCEDURE=TRANSMISSION
##RESOLUTION=4
##DATA PROCESSING=DIGITIZED BY NIST FROM HARD COPY (FROM TWO SEGMENTS)
##XUNITS=1/CM
##YUNITS=TRANSMITTANCE
##XFACTOR=1.000000
##YFACTOR=1
##DELTAX=0.879767
##FIRSTX=456.012
##LASTX=3805.28
##FIRSTY=0.958
##MAXX=3805.28
##MINX=456.012
##MAXY=0.994
##MINY=0
##NPOINTS=3808
##XYDATA=(X++(Y..Y))
456.012000 0.9580 0.9580 0.9580 0.9600 0.9600
460.410833 0.9610 0.9610 0.9620 0.9620 0.9640
464.809666 0.9640 0.9640 0.9640 0.9640 0.9650
469.208499 0.9650 0.9650 0.9650 0.9650 0.9650
473.607331 0.9660 0.9660 0.9660 0.9660 0.9660
478.006164 0.9660 0.9680 0.9690 0.9680 0.9680
482.404997 0.9680 0.9680 0.9660 0.9660 0.9660
486.803830 0.9660 0.9660 0.9660 0.9660 0.9650
491.202663 0.9660 0.9660 0.9660 0.9650 0.9650
495.601496 0.9650 0.9650 0.9640 0.9640 0.9650
500.000329 0.9650 0.9650 0.9680 0.9680 0.9680
504.399161 0.9680 0.9680 0.9680 0.9680 0.9680
508.797994 0.9680 0.9690 0.9680 0.9680 0.9660
513.196827 0.9660 0.9660 0.9660 0.9650 0.9640
517.595660 0.9640 0.9640 0.9640 0.9640 0.9640
521.994493 0.9640 0.9640 0.9640 0.9650 0.9650
526.393326 0.9640 0.9640 0.9640 0.9640 0.9640
530.792159 0.9640 0.9640 0.9640 0.9640 0.9620
535.190992 0.9620 0.9620 0.9610 0.9610 0.9610
539.589824 0.9610 0.9610 0.9600 0.9580 0.9580
543.988657 0.9580 0.9580 0.9570 0.9570 0.9550
548.387490 0.9530 0.9510 0.9500 0.9470 0.9440
552.786323 0.9430 0.9390 0.9360 0.9350 0.9310
557.185156 0.9280 0.9260 0.9250 0.9240 0.9220
561.583989 0.9220 0.9250 0.9260 0.9260 0.9260
565.982822 0.9250 0.9250 0.9240 0.9240 0.9220
570.381654 0.9210 0.9210 0.9220 0.9240 0.9250
574.780487 0.9260 0.9280 0.9310 0.9330 0.9350
579.179320 0.9370 0.9430 0.9460 0.9460 0.9470
583.578153 0.9480 0.9480 0.9510 0.9530 0.9570
587.976986 0.9580 0.9600 0.9610 0.9650 0.9660
592.375819 0.9680 0.9680 0.9690 0.9710 0.9710
596.774652 0.9720 0.9710 0.9720 0.9730 0.9730
601.173484 0.9750 0.9750 0.9750 0.9750 0.9750
605.572317 0.9750 0.9730 0.9730 0.9710 0.9690
609.971150 0.9680 0.9660 0.9660 0.9650 0.9610
614.369983 0.9610 0.9600 0.9580 0.9550 0.9540
618.768816 0.9510 0.9440 0.9390 0.9350 0.9310
623.167649 0.9250 0.9180 0.9130 0.9060 0.8930
627.566482 0.8840 0.8750 0.8451 0.8231 0.8041
631.965315 0.7900 0.7760 0.7610 0.7440 0.7220
636.364147 0.6921 0.6751 0.6700 0.6571 0.6510
640.762980 0.6480 0.6460 0.6450 0.6410 0.6380
645.161813 0.6380 0.6460 0.6460 0.6490 0.6460
649.560646 0.6460 0.6450 0.6450 0.6480 0.6600
653.959479 0.6800 0.7029 0.7289 0.7549 0.7819
658.358312 0.8020 0.8170 0.8440 0.8620 0.8680
662.757145 0.8740 0.8780 0.8840 0.8860 0.8880
667.155977 0.8890 0.8890 0.8890 0.8890 0.8880
671.554810 0.8880 0.8860 0.8850 0.8850 0.8850
675.953643 0.8840 0.8820 0.8780 0.8770 0.8740
680.352476 0.8680 0.8630 0.8560 0.8510 0.8450
684.751309 0.8380 0.8330 0.8230 0.8160 0.8110
689.150142 0.8000 0.7870 0.7711 0.7541 0.7371
693.548975 0.7140 0.6910 0.6860 0.6800 0.6780
697.947807 0.6750 0.6750 0.6770 0.6770 0.6780
702.346640 0.6780 0.6800 0.6800 0.6800 0.6810
706.745473 0.6810 0.6840 0.6860 0.6930 0.7040
711.144306 0.7100 0.7110 0.7140 0.7310 0.7480
715.543139 0.7689 0.7939 0.8259 0.8599 0.8998
719.941972 0.9400 0.9460 0.9550 0.9600 0.9610
724.340805 0.9640 0.9650 0.9660 0.9660 0.9650
728.739638 0.9650 0.9640 0.9640 0.9620 0.9620
733.138470 0.9600 0.9580 0.9570 0.9570 0.9570
737.537303 0.9550 0.9530 0.9470 0.9420 0.9360
741.936136 0.9350 0.9330 0.9250 0.9180 0.9140
746.334969 0.9080 0.8990 0.8960 0.8850 0.8770
750.733802 0.8740 0.8660 0.8560 0.8520 0.8450
755.132635 0.8380 0.8340 0.8260 0.8220 0.8190
759.531468 0.8150 0.7831 0.7332 0.7071 0.7060
763.930300 0.7100 0.7200 0.7320 0.7550 0.7650
768.329133 0.7660 0.7710 0.7760 0.7770 0.7770
772.727966 0.7790 0.7800 0.7820 0.7870 0.7940
777.126799 0.7970 0.7980 0.8050 0.8130 0.8240
781.525632 0.8310 0.8380 0.8450 0.8550 0.8660
785.924465 0.8740 0.8780 0.8910 0.8920 0.9020
790.323298 0.9080 0.9100 0.9140 0.9140 0.9150
794.722130 0.9150 0.9150 0.9150 0.9170 0.9180
799.120963 0.9210 0.9220 0.9240 0.9250 0.9250
803.519796 0.9250 0.9240 0.9240 0.9240 0.9240
807.918629 0.9240 0.9210 0.9170 0.9150 0.9140
812.317462 0.9140 0.9130 0.9070 0.9040 0.9020
816.716295 0.9000 0.8960 0.8950 0.8920 0.8850
821.115128 0.8780 0.8770 0.8710 0.8571 0.8480
825.513960 0.8330 0.8170 0.8060 0.7970 0.7720
829.912793 0.7361 0.7111 0.6781 0.6421 0.5932
834.311626 0.5660 0.5390 0.4820 0.4221 0.3651
838.710459 0.3101 0.2492 0.1822 0.1003 0.0920
843.109292 0.0820 0.0660 0.0520 0.0460 0.0370
847.508125 0.0340 0.0310 0.0280 0.0260 0.0220
851.906958 0.0170 0.0160 0.0130 0.0130 0.0120
856.305791 0.0120 0.0120 0.0120 0.0130 0.0150
860.704623 0.0160 0.0160 0.0170 0.0200 0.0220
865.103456 0.0300 0.0330 0.0370 0.0440 0.0510
869.502289 0.0591 0.1020 0.1180 0.1420 0.1730
873.901122 0.2060 0.2409 0.2709 0.3218 0.3868
878.299955 0.4150 0.4420 0.4780 0.5649 0.5840
882.698788 0.6040 0.6200 0.6350 0.6460 0.6530
887.097621 0.6620 0.6630 0.6620 0.6570 0.6420
891.496453 0.6270 0.6170 0.5981 0.5721 0.5581
895.895286 0.5440 0.5200 0.4960 0.4780 0.4660
900.294119 0.4460 0.4340 0.4270 0.4220 0.4170
904.692952 0.4080 0.3720 0.3130 0.2880 0.2860
909.091785 0.3149 0.3150 0.3000 0.2711 0.2491
913.490618 0.2490 0.2530 0.2600 0.2710 0.2840
917.889451 0.2910 0.3000 0.3110 0.3319 0.3569
922.288283 0.3860 0.4000 0.4010 0.4080 0.4170
926.687116 0.4300 0.4450 0.4659 0.4820 0.6016
931.085949 0.6630 0.6970 0.7140 0.7260 0.7440
935.484782 0.7580 0.7620 0.7760 0.7820 0.7930
939.883615 0.7980 0.8080 0.8130 0.8170 0.8240
944.282448 0.8280 0.8340 0.8340 0.8380 0.8460
948.681281 0.8550 0.8620 0.8710 0.8810 0.8930
953.080114 0.9000 0.9140 0.9220 0.9320 0.9370
957.478946 0.9390 0.9460 0.9500 0.9510 0.9530
961.877779 0.9540 0.9540 0.9570 0.9570 0.9570
966.276612 0.9570 0.9570 0.9550 0.9540 0.9530
970.675445 0.9510 0.9500 0.9480 0.9470 0.9460
975.074278 0.9440 0.9420 0.9390 0.9370 0.9360
979.473111 0.9310 0.9250 0.9220 0.9200 0.9180
983.871944 0.9150 0.9130 0.9070 0.9040 0.9020
988.270776 0.8970 0.8960 0.8890 0.8840 0.8810
992.669609 0.8750 0.8700 0.8620 0.8530 0.8440
997.068442 0.8380 0.8340 0.8260 0.8081 0.7841
1001.467275 0.7690 0.7510 0.7350 0.7140 0.6950
1005.866108 0.6750 0.6421 0.6340 0.6051 0.5642
1010.264941 0.5400 0.5170 0.4740 0.4400 0.4040
1014.663774 0.3611 0.3291 0.2931 0.2681 0.2282
1019.062606 0.1770 0.1370 0.1350 0.1310 0.1250
1023.461439 0.1220 0.1210 0.1200 0.1200 0.1180
1027.860272 0.1180 0.1180 0.1200 0.1220 0.1330
1032.259105 0.1420 0.1430 0.1440 0.1500 0.1570
1036.657938 0.1620 0.1760 0.1970 0.2220 0.2520
1041.056771 0.2859 0.3249 0.3639 0.4039 0.4568
1045.455604 0.5710 0.6260 0.6780 0.7250 0.7649
1049.854436 0.7939 0.8090 0.8190 0.8310 0.8350
1054.253269 0.8420 0.8460 0.8520 0.8530 0.8550
1058.652102 0.8560 0.8590 0.8620 0.8620 0.8630
1063.050935 0.8620 0.8630 0.8630 0.8640 0.8660
1067.449768 0.8660 0.8670 0.8670 0.8670 0.8640
1071.848601 0.8630 0.8630 0.8620 0.8570 0.8550
1076.247434 0.8520 0.8450 0.8400 0.8350 0.8300
1080.646267 0.8240 0.8170 0.8120 0.8080 0.8040
1085.045099 0.8020 0.8010 0.8000 0.8000 0.7980
1089.443932 0.7980 0.7970 0.7930 0.7870 0.7840
1093.842765 0.7830 0.7840 0.7940 0.8020 0.8130
1098.241598 0.8170 0.8200 0.8200 0.8220 0.8240
1102.640431 0.8260 0.8280 0.8330 0.8350 0.8380
1107.039264 0.8410 0.8420 0.8440 0.8440 0.8410
1111.438097 0.8280 0.8220 0.8170 0.8120 0.8020
1115.836929 0.7950 0.7940 0.7930 0.7910 0.7930
1120.235762 0.7940 0.7970 0.8010 0.8060 0.8120
1124.634595 0.8150 0.8170 0.8170 0.8110 0.8050
1129.033428 0.7980 0.7970 0.7980 0.8060 0.8160
1133.432261 0.8310 0.8400 0.8560 0.8700 0.8780
1137.831094 0.8920 0.9020 0.9140 0.9150 0.9150
1142.229927 0.9150 0.9150 0.9150 0.9150 0.9140
1146.628759 0.9140 0.9140 0.9130 0.9100 0.9080
1151.027592 0.9060 0.9040 0.9040 0.9040 0.9040
1155.426425 0.9040 0.9060 0.9060 0.9070 0.9070
1159.825258 0.9080 0.9070 0.9080 0.9080 0.9100
1164.224091 0.9100 0.9100 0.9100 0.9130 0.9140
1168.622924 0.9140 0.9170 0.9220 0.9280 0.9330
1173.021757 0.9330 0.9350 0.9350 0.9360 0.9370
1177.420590 0.9370 0.9370 0.9370 0.9370 0.9390
1181.819422 0.9400 0.9430 0.9430 0.9430 0.9420
1186.218255 0.9400 0.9400 0.9390 0.9370 0.9360
1190.617088 0.9350 0.9350 0.9330 0.9330 0.9330
1195.015921 0.9330 0.9330 0.9330 0.9330 0.9350
1199.414754 0.9360 0.9370 0.9370 0.9390 0.9400
1203.813587 0.9400 0.9420 0.9430 0.9440 0.9440
1208.212420 0.9460 0.9480 0.9500 0.9500 0.9470
1212.611252 0.9470 0.9470 0.9460 0.9440 0.9430
1217.010085 0.9420 0.9420 0.9420 0.9370 0.9360
1221.408918 0.9360 0.9360 0.9350 0.9350 0.9360
1225.807751 0.9360 0.9360 0.9360 0.9360 0.9360
1230.206584 0.9350 0.9350 0.9350 0.9330 0.9310
1234.605417 0.9260 0.9240 0.9210 0.9180 0.9170
1239.004250 0.9150 0.9150 0.9140 0.9140 0.9130
1243.403082 0.9100 0.9080 0.9060 0.9030 0.9020
1247.801915 0.9000 0.8950 0.8920 0.8860 0.8800
1252.200748 0.8730 0.8700 0.8630 0.8530 0.8440
1256.599581 0.8310 0.8190 0.8050 0.7910 0.7770
1260.998414 0.7570 0.7370 0.7170 0.6841 0.6750
1265.397247 0.6530 0.6200 0.5720 0.5430 0.5130
1269.796080 0.4551 0.3971 0.3372 0.2802 0.2202
1274.194913 0.1609 0.1000 0.0680 0.0370 0.0270
1278.593745 0.0150 0.0130 0.0120 0.0080 0.0060
1282.992578 0.0060 0.0060 0.0060 0.0060 0.0060
1287.391411 0.0060 0.0060 0.0060 0.0080 0.0080
1291.790244 0.0080 0.0080 0.0080 0.0080 0.0080
1296.189077 0.0080 0.0090 0.0110 0.0120 0.0160
1300.587910 0.1130 0.1170 0.1350 0.1690 0.2129
1304.986743 0.2679 0.3309 0.3968 0.4668 0.5835
1309.385575 0.6371 0.6850 0.7200 0.7500 0.7760
1313.784408 0.7980 0.8160 0.8330 0.8440 0.8530
1318.183241 0.8590 0.8680 0.8750 0.8910 0.8990
1322.582074 0.9040 0.9080 0.9140 0.9170 0.9210
1326.980907 0.9240 0.9260 0.9280 0.9290 0.9310
1331.379740 0.9310 0.9320 0.9320 0.9350 0.9350
1335.778573 0.9350 0.9360 0.9360 0.9360 0.9360
1340.177405 0.9350 0.9350 0.9330 0.9330 0.9320
1344.576238 0.9320 0.9310 0.9290 0.9280 0.9260
1348.975071 0.9240 0.9200 0.9150 0.9100 0.9060
1353.373904 0.8990 0.8930 0.8850 0.8750 0.8700
1357.772737 0.8620 0.8490 0.8350 0.8190 0.8020
1362.171570 0.7860 0.7610 0.7430 0.7310 0.7250
1366.570403 0.7200 0.7170 0.7150 0.7150 0.7130
1370.969235 0.7070 0.7040 0.6960 0.6930 0.6930
1375.368068 0.6820 0.6700 0.6570 0.6520 0.6520
1379.766901 0.6550 0.6600 0.6710 0.6820 0.6960
1384.165734 0.7070 0.7130 0.7250 0.7280 0.7310
1388.564567 0.7330 0.7350 0.7350 0.7350 0.7330
1392.963400 0.7350 0.7440 0.7500 0.7530 0.7530
1397.362233 0.7530 0.7540 0.7550 0.7600 0.7650
1401.761066 0.7720 0.7800 0.7880 0.7950 0.8000
1406.159898 0.8050 0.8120 0.8160 0.8170 0.8230
1410.558731 0.8300 0.8310 0.8350 0.8370 0.8420
1414.957564 0.8460 0.8510 0.8520 0.8520 0.8520
1419.356397 0.8530 0.8550 0.8590 0.8590 0.8590
1423.755230 0.8570 0.8550 0.8550 0.8530 0.8530
1428.154063 0.8530 0.8520 0.8480 0.8450 0.8420
1432.552896 0.8410 0.8400 0.8350 0.8330 0.8230
1436.951728 0.8110 0.7970 0.7910 0.7840 0.7790
1441.350561 0.7690 0.7580 0.7420 0.7250 0.7100
1445.749394 0.7060 0.6920 0.6800 0.6700 0.6531
1450.148227 0.6380 0.6330 0.6190 0.6090 0.6090
1454.547060 0.6230 0.6240 0.6240 0.6200 0.6110
1458.945893 0.6050 0.6090 0.6200 0.6230 0.6270
1463.344726 0.6300 0.6340 0.6380 0.6450 0.6480
1467.743558 0.6590 0.6640 0.6700 0.6770 0.6820
1472.142391 0.6890 0.6920 0.6950 0.6970 0.7020
1476.541224 0.7070 0.7100 0.7140 0.7180 0.7260
1480.940057 0.7390 0.7400 0.7430 0.7500 0.7600
1485.338890 0.7650 0.7770 0.7820 0.7880 0.7930
1489.737723 0.7950 0.8010 0.8090 0.8130 0.8160
1494.136556 0.8190 0.8230 0.8270 0.8340 0.8380
1498.535389 0.8520 0.8560 0.8620 0.8670 0.8740
1502.934221 0.8910 0.8930 0.8950 0.8950 0.8960
1507.333054 0.8950 0.8930 0.8960 0.9030 0.9130
1511.731887 0.9150 0.9150 0.9170 0.9180 0.9200
1516.130720 0.9200 0.9150 0.9150 0.9140 0.9130
1520.529553 0.9110 0.9100 0.9080 0.9100 0.9100
1524.928386 0.9110 0.9110 0.9110 0.9130 0.9140
1529.327219 0.9150 0.9170 0.9170 0.9170 0.9180
1533.726051 0.9180 0.9200 0.9200 0.9200 0.9200
1538.124884 0.9180 0.9170 0.9080 0.9060 0.9070
1542.523717 0.9080 0.9100 0.9110 0.9130 0.9140
1546.922550 0.9140 0.9140 0.9140 0.9140 0.9130
1551.321383 0.9130 0.9130 0.9110 0.9100 0.9080
1555.720216 0.9040 0.9040 0.9020 0.9000 0.8990
1560.119049 0.9000 0.9000 0.9030 0.9040 0.9070
1564.517881 0.9080 0.9100 0.9100 0.9100 0.9100
1568.916714 0.9110 0.9130 0.9140 0.9140 0.9150
1573.315547 0.9140 0.9130 0.9110 0.9100 0.9110
1577.714380 0.9150 0.9170 0.9180 0.9210 0.9240
1582.113213 0.9240 0.9240 0.9250 0.9260 0.9260
1586.512046 0.9280 0.9290 0.9320 0.9330 0.9350
1590.910879 0.9350 0.9350 0.9350 0.9330 0.9330
1595.309712 0.9330 0.9330 0.9320 0.9310 0.9290
1599.708544 0.9260 0.9220 0.9180 0.9150 0.9110
1604.107377 0.9070 0.9040 0.8990 0.8930 0.8910
1608.506210 0.8860 0.8820 0.8740 0.8550 0.8440
1612.905043 0.8380 0.8340 0.8280 0.8190 0.8000
1617.303876 0.7800 0.7620 0.7470 0.7330 0.7180
1621.702709 0.7000 0.6800 0.6531 0.6191 0.5841
1626.101542 0.5650 0.5510 0.5370 0.5080 0.4770
1630.500374 0.4600 0.3432 0.3210 0.3001 0.2731
1634.899207 0.2328 0.1689 0.1370 0.1250 0.1150
1639.298040 0.0990 0.0780 0.0570 0.0340 0.0220
1643.696873 0.0130 0.0060 0.0020 0.0000 0.0000
1648.095706 0.0000 0.0000 0.0000 0.0000 0.0000
1652.494539 0.0000 0.0000 0.0000 0.0000 0.0000
1656.893372 0.0000 0.0000 0.0000 0.0000 0.0000
1661.292204 0.0000 0.0000 0.0000 0.0000 0.0000
1665.691037 0.0000 0.0000 0.0000 0.0000 0.0000
1670.089870 0.0000 0.0000 0.0010 0.0010 0.0020
1674.488703 0.0020 0.0060 0.0150 0.0280 0.0370
1678.887536 0.0420 0.0491 0.1240 0.1440 0.1710
1683.286369 0.2000 0.2349 0.2729 0.3149 0.3579
1687.685202 0.4051 0.4521 0.4822 0.6040 0.6420
1692.084034 0.6910 0.7290 0.7610 0.7859 0.8059
1696.482867 0.8230 0.8350 0.8450 0.8550 0.8630
1700.881700 0.8710 0.8810 0.8910 0.8930 0.8930
1705.280533 0.8950 0.8960 0.8990 0.9000 0.9030
1709.679366 0.9060 0.9070 0.9100 0.9110 0.9130
1714.078199 0.9140 0.9140 0.9140 0.9150 0.9150
1718.477032 0.9150 0.9150 0.9150 0.9170 0.9170
1722.875865 0.9170 0.9170 0.9170 0.9150 0.9140
1727.274697 0.9140 0.9110 0.9080 0.9060 0.9040
1731.673530 0.9020 0.9000 0.8970 0.8960 0.8930
1736.072363 0.8920 0.8910 0.8880 0.8850 0.8840
1740.471196 0.8820 0.8810 0.8770 0.8750 0.8740
1744.870029 0.8730 0.8710 0.8710 0.8710 0.8730
1749.268862 0.8750 0.8800 0.8810 0.8850 0.8910
1753.667695 0.8920 0.8930 0.8930 0.8950 0.8960
1758.066527 0.8990 0.9000 0.9030 0.9070 0.9100
1762.465360 0.9140 0.9170 0.9200 0.9220 0.9240
1766.864193 0.9250 0.9250 0.9260 0.9290 0.9320
1771.263026 0.9350 0.9360 0.9360 0.9390 0.9430
1775.661859 0.9440 0.9460 0.9470 0.9480 0.9500
1780.060692 0.9510 0.9530 0.9550 0.9550 0.9570
1784.459525 0.9600 0.9600 0.9620 0.9620 0.9640
1788.858357 0.9650 0.9650 0.9660 0.9660 0.9680
1793.257190 0.9680 0.9690 0.9690 0.9710 0.9710
1797.656023 0.9710 0.9730 0.9720 0.9730 0.9730
1802.054856 0.9750 0.9750 0.9760 0.9760 0.9770
1806.453689 0.9770 0.9770 0.9790 0.9790 0.9790
1810.852522 0.9800 0.9800 0.9800 0.9800 0.9800
1815.251355 0.9800 0.9800 0.9800 0.9800 0.9800
1819.650188 0.9790 0.9790 0.9770 0.9770 0.9770
1824.049020 0.9760 0.9760 0.9750 0.9750 0.9750
1828.447853 0.9730 0.9730 0.9730 0.9720 0.9720
1832.846686 0.9710 0.9710 0.9710 0.9690 0.9680
1837.245519 0.9660 0.9660 0.9640 0.9640 0.9620
1841.644352 0.9610 0.9580 0.9580 0.9600 0.9600
1846.043185 0.9600 0.9610 0.9620 0.9620 0.9620
1850.442018 0.9620 0.9610 0.9600 0.9600 0.9580
1854.840850 0.9570 0.9550 0.9550 0.9550 0.9550
1859.239683 0.9550 0.9570 0.9600 0.9600 0.9610
1863.638516 0.9600 0.9600 0.9600 0.9610 0.9610
1868.037349 0.9620 0.9620 0.9640 0.9660 0.9680
1872.436182 0.9680 0.9690 0.9690 0.9710 0.9710
1876.835015 0.9710 0.9720 0.9720 0.9720 0.9720
1881.233848 0.9720 0.9720 0.9720 0.9720 0.9720
1885.632680 0.9720 0.9720 0.9720 0.9720 0.9730
1890.031513 0.9730 0.9750 0.9760 0.9770 0.9770
1894.430346 0.9770 0.9790 0.9790 0.9790 0.9790
1898.829179 0.9790 0.9790 0.9790 0.9790 0.9790
1903.228012 0.9790 0.9790 0.9770 0.9770 0.9770
1907.626845 0.9760 0.9760 0.9760 0.9750 0.9730
1912.025678 0.9720 0.9720 0.9720 0.9710 0.9690
1916.424510 0.9680 0.9680 0.9680 0.9680 0.9680
1920.823343 0.9660 0.9660 0.9650 0.9660 0.9660
1925.222176 0.9660 0.9660 0.9660 0.9660 0.9660
1929.621009 0.9660 0.9660 0.9660 0.9660 0.9660
1934.019842 0.9660 0.9660 0.9680 0.9690 0.9710
1938.418675 0.9710 0.9720 0.9720 0.9730 0.9750
1942.817508 0.9770 0.9770 0.9790 0.9790 0.9790
1947.216341 0.9800 0.9800 0.9820 0.9820 0.9830
1951.615173 0.9830 0.9830 0.9840 0.9840 0.9840
1956.014006 0.9840 0.9840 0.9840 0.9840 0.9840
1960.412839 0.9830 0.9830 0.9830 0.9830 0.9840
1964.811672 0.9840 0.9840 0.9840 0.9840 0.9840
1969.210505 0.9840 0.9840 0.9860 0.9860 0.9860
1973.609338 0.9860 0.9860 0.9860 0.9840 0.9840
1978.008171 0.9840 0.9840 0.9840 0.9860 0.9860
1982.407003 0.9860 0.9860 0.9860 0.9860 0.9860
1986.805836 0.9840 0.9840 0.9840 0.9840 0.9840
1991.204669 0.9840 0.9840 0.9840 0.9840 0.9840
1995.603502 0.9840 0.9860 0.9870 0.9870 0.9880
2000.002335 0.9880 0.9880 0.9880 0.9880 0.9880
2004.401168 0.9880 0.9880 0.9875 0.9870 0.9870
2008.800001 0.9870 0.9870 0.9870 0.9865 0.9860
2013.198833 0.9860 0.9860 0.9860 0.9860 0.9860
2017.597666 0.9860 0.9860 0.9860 0.9860 0.9860
2021.996499 0.9865 0.9870 0.9870 0.9870 0.9870
2026.395332 0.9870 0.9870 0.9870 0.9870 0.9870
2030.794165 0.9870 0.9870 0.9870 0.9870 0.9870
2035.192998 0.9870 0.9865 0.9860 0.9860 0.9860
2039.591831 0.9850 0.9840 0.9835 0.9830 0.9830
2043.990664 0.9830 0.9830 0.9830 0.9830 0.9830
2048.389496 0.9830 0.9830 0.9830 0.9830 0.9830
2052.788329 0.9830 0.9830 0.9830 0.9835 0.9840
2057.187162 0.9840 0.9840 0.9840 0.9840 0.9840
2061.585995 0.9840 0.9850 0.9860 0.9860 0.9860
2065.984828 0.9860 0.9860 0.9860 0.9860 0.9865
2070.383661 0.9870 0.9870 0.9870 0.9870 0.9870
2074.782494 0.9870 0.9870 0.9870 0.9870 0.9870
2079.181326 0.9870 0.9870 0.9870 0.9870 0.9870
2083.580159 0.9865 0.9860 0.9865 0.9870 0.9870
2087.978992 0.9870 0.9870 0.9870 0.9875 0.9880
2092.377825 0.9890 0.9900 0.9905 0.9910 0.9910
2096.776658 0.9910 0.9910 0.9910 0.9905 0.9900
2101.175491 0.9900 0.9900 0.9900 0.9900 0.9890
2105.574324 0.9880 0.9880 0.9880 0.9880 0.9880
2109.973156 0.9890 0.9900 0.9900 0.9900 0.9900
2114.371989 0.9900 0.9900 0.9900 0.9900 0.9900
2118.770822 0.9900 0.9900 0.9900 0.9900 0.9891
2123.169655 0.9880 0.9880 0.9880 0.9880 0.9880
2127.568488 0.9880 0.9880 0.9875 0.9870 0.9875
2131.967321 0.9880 0.9875 0.9870 0.9870 0.9870
2136.366154 0.9870 0.9870 0.9870 0.9870 0.9865
2140.764987 0.9860 0.9860 0.9860 0.9851 0.9841
2145.163819 0.9840 0.9840 0.9840 0.9840 0.9840
2149.562652 0.9840 0.9849 0.9859 0.9860 0.9860
2153.961485 0.9860 0.9860 0.9860 0.9860 0.9860
2158.360318 0.9860 0.9865 0.9870 0.9875 0.9880
2162.759151 0.9880 0.9880 0.9880 0.9880 0.9880
2167.157984 0.9880 0.9889 0.9899 0.9900 0.9900
2171.556817 0.9891 0.9881 0.9875 0.9870 0.9870
2175.955649 0.9870 0.9870 0.9870 0.9870 0.9870
2180.354482 0.9865 0.9860 0.9865 0.9870 0.9865
2184.753315 0.9860 0.9860 0.9860 0.9860 0.9860
2189.152148 0.9851 0.9841 0.9835 0.9830 0.9825
2193.550981 0.9820 0.9811 0.9801 0.9800 0.9800
2197.949814 0.9800 0.9800 0.9800 0.9800 0.9800
2202.348647 0.9800 0.9800 0.9800 0.9809 0.9819
2206.747479 0.9820 0.9820 0.9829 0.9839 0.9849
2211.146312 0.9859 0.9860 0.9860 0.9865 0.9870
2215.545145 0.9870 0.9870 0.9870 0.9870 0.9875
2219.943978 0.9880 0.9889 0.9899 0.9900 0.9900
2224.342811 0.9900 0.9900 0.9900 0.9900 0.9900
2228.741644 0.9900 0.9900 0.9900 0.9900 0.9900
2233.140477 0.9891 0.9881 0.9880 0.9880 0.9880
2237.539309 0.9880 0.9880 0.9880 0.9880 0.9880
2241.938142 0.9880 0.9880 0.9880 0.9880 0.9876
2246.336975 0.9870 0.9870 0.9870 0.9870 0.9870
2250.735808 0.9870 0.9870 0.9870 0.9870 0.9870
2255.134641 0.9870 0.9874 0.9879 0.9876 0.9871
2259.533474 0.9870 0.9870 0.9870 0.9870 0.9870
2263.932307 0.9870 0.9870 0.9870 0.9870 0.9870
2268.331140 0.9866 0.9861 0.9860 0.9860 0.9860
2272.729972 0.9860 0.9851 0.9841 0.9840 0.9840
2277.128805 0.9840 0.9840 0.9836 0.9831 0.9830
2281.527638 0.9830 0.9826 0.9821 0.9820 0.9820
2285.926471 0.9820 0.9820 0.9820 0.9820 0.9820
2290.325304 0.9820 0.9820 0.9820 0.9820 0.9820
2294.724137 0.9820 0.9820 0.9820 0.9820 0.9820
2299.122970 0.9820 0.9820 0.9820 0.9820 0.9820
2303.521802 0.9824 0.9829 0.9830 0.9830 0.9830
2307.920635 0.9830 0.9830 0.9830 0.9830 0.9830
2312.319468 0.9834 0.9839 0.9840 0.9840 0.9840
2316.718301 0.9840 0.9840 0.9840 0.9840 0.9840
2321.117134 0.9840 0.9840 0.9840 0.9840 0.9849
2325.515967 0.9859 0.9860 0.9860 0.9864 0.9869
2329.914800 0.9870 0.9870 0.9874 0.9879 0.9880
2334.313632 0.9880 0.9880 0.9880 0.9880 0.9880
2338.712465 0.9889 0.9899 0.9900 0.9900 0.9900
2343.111298 0.9900 0.9900 0.9900 0.9904 0.9909
2347.510131 0.9910 0.9910 0.9918 0.9928 0.9922
2351.908964 0.9911 0.9910 0.9910 0.9919 0.9929
2356.307797 0.9921 0.9912 0.9910 0.9910 0.9906
2360.706630 0.9901 0.9892 0.9882 0.9876 0.9871
2365.105463 0.9870 0.9870 0.9870 0.9870 0.9870
2369.504295 0.9870 0.9874 0.9879 0.9888 0.9898
2373.903128 0.9900 0.9900 0.9900 0.9900 0.9904
2378.301961 0.9909 0.9910 0.9910 0.9918 0.9928
2382.700794 0.9922 0.9912 0.9906 0.9901 0.9900
2387.099627 0.9900 0.9900 0.9900 0.9900 0.9900
2391.498460 0.9892 0.9882 0.9888 0.9898 0.9892
2395.897293 0.9882 0.9880 0.9880 0.9876 0.9871
2400.296125 0.9870 0.9870 0.9870 0.9870 0.9866
2404.694958 0.9861 0.9852 0.9842 0.9836 0.9831
2409.093791 0.9826 0.9821 0.9820 0.9820 0.9820
2413.492624 0.9820 0.9820 0.9820 0.9824 0.9829
2417.891457 0.9830 0.9830 0.9834 0.9839 0.9840
2422.290290 0.9840 0.9848 0.9858 0.9860 0.9860
2426.689123 0.9860 0.9860 0.9860 0.9860 0.9868
2431.087955 0.9878 0.9888 0.9898 0.9904 0.9909
2435.486788 0.9910 0.9910 0.9910 0.9910 0.9910
2439.885621 0.9910 0.9918 0.9928 0.9930 0.9930
2444.284454 0.9930 0.9930 0.9922 0.9912 0.9910
2448.683287 0.9910 0.9910 0.9910 0.9910 0.9910
2453.082120 0.9910 0.9910 0.9910 0.9910 0.9910
2457.480953 0.9910 0.9910 0.9910 0.9910 0.9910
2461.879786 0.9910 0.9910 0.9906 0.9901 0.9900
2466.278618 0.9900 0.9900 0.9900 0.9900 0.9900
2470.677451 0.9892 0.9882 0.9876 0.9871 0.9870
2475.076284 0.9870 0.9870 0.9870 0.9870 0.9870
2479.475117 0.9870 0.9870 0.9858 0.9843 0.9836
2483.873950 0.9831 0.9826 0.9821 0.9812 0.9802
2488.272783 0.9800 0.9800 0.9800 0.9800 0.9808
2492.671616 0.9818 0.9820 0.9820 0.9820 0.9820
2497.070448 0.9820 0.9820 0.9812 0.9802 0.9800
2501.469281 0.9800 0.9796 0.9791 0.9790 0.9790
2505.868114 0.9782 0.9772 0.9770 0.9770 0.9770
2510.266947 0.9770 0.9770 0.9770 0.9770 0.9770
2514.665780 0.9778 0.9788 0.9790 0.9790 0.9790
2519.064613 0.9790 0.9794 0.9799 0.9796 0.9791
2523.463446 0.9794 0.9799 0.9808 0.9818 0.9820
2527.862278 0.9820 0.9828 0.9838 0.9848 0.9858
2532.261111 0.9860 0.9860 0.9860 0.9860 0.9860
2536.659944 0.9860 0.9860 0.9860 0.9860 0.9860
2541.058777 0.9860 0.9860 0.9860 0.9860 0.9852
2545.457610 0.9842 0.9840 0.9840 0.9832 0.9822
2549.856443 0.9812 0.9802 0.9789 0.9774 0.9755
2554.255276 0.9735 0.9715 0.9695 0.9671 0.9646
2558.654108 0.9625 0.9605 0.9581 0.9556 0.9542
2563.052941 0.9532 0.9522 0.9512 0.9506 0.9501
2567.451774 0.9504 0.9509 0.9518 0.9528 0.9534
2571.850607 0.9539 0.9540 0.9540 0.9544 0.9549
2576.249440 0.9557 0.9567 0.9581 0.9596 0.9623
2580.648273 0.9653 0.9683 0.9713 0.9747 0.9781
2585.047106 0.9801 0.9816 0.9824 0.9829 0.9841
2589.445939 0.9856 0.9867 0.9877 0.9880 0.9880
2593.844771 0.9887 0.9897 0.9900 0.9900 0.9904
2598.243604 0.9909 0.9910 0.9910 0.9910 0.9910
2602.642437 0.9910 0.9910 0.9910 0.9910 0.9910
2607.041270 0.9910 0.9910 0.9910 0.9910 0.9910
2611.440103 0.9910 0.9910 0.9910 0.9910 0.9910
2615.838936 0.9910 0.9910 0.9910 0.9910 0.9910
2620.237769 0.9910 0.9910 0.9910 0.9910 0.9906
2624.636601 0.9901 0.9900 0.9900 0.9893 0.9883
2629.035434 0.9880 0.9880 0.9880 0.9880 0.9876
2633.434267 0.9871 0.9870 0.9870 0.9870 0.9870
2637.833100 0.9870 0.9870 0.9870 0.9870 0.9866
2642.231933 0.9861 0.9853 0.9843 0.9840 0.9840
2646.630766 0.9836 0.9831 0.9830 0.9830 0.9819
2651.029599 0.9804 0.9800 0.9800 0.9800 0.9800
2655.428431 0.9796 0.9791 0.9790 0.9790 0.9790
2659.827264 0.9790 0.9794 0.9799 0.9807 0.9817
2664.226097 0.9820 0.9820 0.9820 0.9820 0.9820
2668.624930 0.9820 0.9820 0.9820 0.9820 0.9820
2673.023763 0.9813 0.9803 0.9800 0.9800 0.9800
2677.422596 0.9800 0.9800 0.9800 0.9800 0.9800
2681.821429 0.9800 0.9800 0.9800 0.9800 0.9800
2686.220262 0.9800 0.9800 0.9800 0.9800 0.9800
2690.619094 0.9800 0.9800 0.9800 0.9800 0.9800
2695.017927 0.9800 0.9807 0.9817 0.9820 0.9820
2699.416760 0.9823 0.9828 0.9830 0.9830 0.9834
2703.815593 0.9839 0.9840 0.9840 0.9851 0.9866
2708.214426 0.9870 0.9870 0.9874 0.9879 0.9880
2712.613259 0.9880 0.9880 0.9880 0.9880 0.9880
2717.012092 0.9877 0.9872 0.9870 0.9870 0.9870
2721.410924 0.9870 0.9866 0.9861 0.9853 0.9843
2725.809757 0.9840 0.9840 0.9837 0.9832 0.9830
2730.208590 0.9830 0.9830 0.9830 0.9827 0.9822
2734.607423 0.9820 0.9820 0.9820 0.9820 0.9820
2739.006256 0.9820 0.9820 0.9820 0.9813 0.9803
2743.405089 0.9800 0.9800 0.9800 0.9800 0.9800
2747.803922 0.9800 0.9800 0.9800 0.9800 0.9800
2752.202754 0.9800 0.9800 0.9797 0.9792 0.9790
2756.601587 0.9790 0.9790 0.9790 0.9790 0.9790
2761.000420 0.9783 0.9773 0.9770 0.9770 0.9770
2765.399253 0.9770 0.9770 0.9770 0.9777 0.9787
2769.798086 0.9790 0.9790 0.9790 0.9790 0.9790
2774.196919 0.9790 0.9790 0.9790 0.9790 0.9790
2778.595752 0.9783 0.9773 0.9770 0.9770 0.9770
2782.994584 0.9770 0.9770 0.9770 0.9767 0.9762
2787.393417 0.9760 0.9760 0.9760 0.9760 0.9760
2791.792250 0.9760 0.9760 0.9760 0.9757 0.9752
2796.191083 0.9750 0.9750 0.9750 0.9750 0.9750
2800.589916 0.9750 0.9743 0.9733 0.9727 0.9722
2804.988749 0.9720 0.9720 0.9717 0.9712 0.9710
2809.387582 0.9710 0.9703 0.9693 0.9690 0.9690
2813.786415 0.9687 0.9682 0.9680 0.9680 0.9673
2818.185247 0.9663 0.9660 0.9660 0.9660 0.9660
2822.584080 0.9657 0.9652 0.9650 0.9650 0.9650
2826.982913 0.9650 0.9647 0.9642 0.9640 0.9640
2831.381746 0.9640 0.9640 0.9634 0.9624 0.9620
2835.780579 0.9620 0.9620 0.9620 0.9617 0.9612
2840.179412 0.9610 0.9610 0.9610 0.9610 0.9607
2844.578245 0.9602 0.9600 0.9600 0.9594 0.9584
2848.977077 0.9580 0.9580 0.9577 0.9572 0.9570
2853.375910 0.9570 0.9564 0.9554 0.9547 0.9542
2857.774743 0.9537 0.9532 0.9524 0.9514 0.9494
2862.173576 0.9469 0.9450 0.9435 0.9417 0.9397
2866.572409 0.9368 0.9333 0.9310 0.9295 0.9268
2870.971242 0.9233 0.9198 0.9163 0.9128 0.9093
2875.370075 0.9064 0.9039 0.9018 0.8998 0.8968
2879.768907 0.8933 0.8866 0.8781 0.8712 0.8652
2884.167740 0.8608 0.8573 0.8538 0.8503 0.8477
2888.566573 0.8458 0.8434 0.8409 0.8381 0.8351
2892.965406 0.8331 0.8316 0.8307 0.8302 0.8294
2897.364239 0.8284 0.8274 0.8264 0.8251 0.8236
2901.763072 0.8218 0.8198 0.8181 0.8166 0.8145
2906.161905 0.8120 0.8095 0.8070 0.8042 0.8012
2910.560738 0.7982 0.7952 0.7919 0.7884 0.7849
2914.959570 0.7813 0.7775 0.7735 0.7646 0.7526
2919.358403 0.7394 0.7254 0.7126 0.7007 0.6917
2923.757236 0.6847 0.6765 0.6675 0.6619 0.6584
2928.156069 0.6555 0.6530 0.6499 0.6464 0.6420
2932.554902 0.6369 0.6335 0.6310 0.6269 0.6219
2936.953735 0.6176 0.6136 0.6096 0.6056 0.6040
2941.352568 0.6040 0.6046 0.6056 0.6099 0.6164
2945.751400 0.6214 0.6254 0.6320 0.6405 0.6473
2950.150233 0.6528 0.6571 0.6606 0.6626 0.6636
2954.549066 0.6646 0.6656 0.6660 0.6660 0.6663
2958.947899 0.6668 0.6679 0.6694 0.6712 0.6732
2963.346732 0.6752 0.6772 0.6780 0.6780 0.6786
2967.745565 0.6796 0.6794 0.6784 0.6771 0.6756
2972.144398 0.6738 0.6718 0.6689 0.6654 0.6625
2976.543230 0.6600 0.6569 0.6535 0.6470 0.6385
2980.942063 0.6295 0.6200 0.6073 0.5923 0.5758
2985.340896 0.5582 0.5474 0.5414 0.5352 0.5287
2989.739729 0.5148 0.4959 0.4778 0.4603 0.4504
2994.138562 0.4459 0.4411 0.4361 0.4328 0.4308
2998.537395 0.4291 0.4276 0.4267 0.4262 0.4228
3002.936228 0.4173 0.4071 0.3936 0.3810 0.3690
3007.335061 0.3567 0.3443 0.3390 0.3390 0.3571
3011.733893 0.3886 0.4192 0.4491 0.4697 0.4832
3016.132726 0.5137 0.5571 0.5811 0.5901 0.6025
3020.531559 0.6176 0.6309 0.6429 0.6546 0.6661
3024.930392 0.6779 0.6899 0.7033 0.7177 0.7334
3029.329225 0.7498 0.7708 0.7953 0.8158 0.8333
3033.728058 0.8483 0.8613 0.8717 0.8802 0.8882
3038.126891 0.8958 0.9024 0.9084 0.9161 0.9251
3042.525723 0.9313 0.9353 0.9390 0.9425 0.9448
3046.924556 0.9463 0.9487 0.9517 0.9536 0.9546
3051.323389 0.9556 0.9566 0.9573 0.9578 0.9580
3055.722222 0.9580 0.9586 0.9596 0.9600 0.9600
3060.121055 0.9603 0.9608 0.9610 0.9610 0.9613
3064.519888 0.9618 0.9626 0.9635 0.9640 0.9640
3068.918721 0.9640 0.9640 0.9640 0.9640 0.9640
3073.317553 0.9640 0.9640 0.9640 0.9643 0.9648
3077.716386 0.9650 0.9650 0.9650 0.9650 0.9650
3082.115219 0.9650 0.9653 0.9658 0.9660 0.9660
3086.514052 0.9660 0.9660 0.9660 0.9660 0.9660
3090.912885 0.9660 0.9660 0.9660 0.9665 0.9675
3095.311718 0.9680 0.9680 0.9680 0.9680 0.9680
3099.710551 0.9680 0.9680 0.9680 0.9680 0.9680
3104.109383 0.9680 0.9680 0.9680 0.9680 0.9680
3108.508216 0.9680 0.9683 0.9688 0.9690 0.9690
3112.907049 0.9695 0.9705 0.9710 0.9710 0.9713
3117.305882 0.9718 0.9720 0.9720 0.9723 0.9728
3121.704715 0.9730 0.9730 0.9730 0.9730 0.9730
3126.103548 0.9730 0.9735 0.9745 0.9750 0.9750
3130.502381 0.9753 0.9758 0.9760 0.9760 0.9760
3134.901214 0.9760 0.9763 0.9768 0.9770 0.9770
3139.300046 0.9770 0.9770 0.9775 0.9785 0.9790
3143.698879 0.9790 0.9790 0.9790 0.9790 0.9790
3148.097712 0.9790 0.9790 0.9790 0.9790 0.9790
3152.496545 0.9790 0.9790 0.9790 0.9790 0.9790
3156.895378 0.9790 0.9790 0.9790 0.9790 0.9790
3161.294211 0.9790 0.9790 0.9790 0.9790 0.9790
3165.693044 0.9790 0.9790 0.9790 0.9790 0.9790
3170.091876 0.9790 0.9790 0.9790 0.9790 0.9790
3174.490709 0.9790 0.9790 0.9790 0.9790 0.9790
3178.889542 0.9790 0.9790 0.9790 0.9790 0.9790
3183.288375 0.9790 0.9790 0.9790 0.9790 0.9790
3187.687208 0.9790 0.9790 0.9790 0.9790 0.9790
3192.086041 0.9792 0.9797 0.9800 0.9800 0.9800
3196.484874 0.9800 0.9805 0.9815 0.9820 0.9820
3200.883706 0.9820 0.9820 0.9822 0.9827 0.9830
3205.282539 0.9830 0.9830 0.9830 0.9830 0.9830
3209.681372 0.9830 0.9830 0.9830 0.9830 0.9830
3214.080205 0.9830 0.9830 0.9830 0.9830 0.9830
3218.479038 0.9830 0.9830 0.9830 0.9830 0.9828
3222.877871 0.9823 0.9820 0.9820 0.9820 0.9820
3227.276704 0.9820 0.9820 0.9820 0.9820 0.9820
3231.675537 0.9820 0.9820 0.9820 0.9820 0.9820
3236.074369 0.9822 0.9827 0.9830 0.9830 0.9830
3240.473202 0.9830 0.9830 0.9830 0.9832 0.9837
3244.872035 0.9840 0.9840 0.9840 0.9840 0.9840
3249.270868 0.9840 0.9845 0.9855 0.9862 0.9867
3253.669701 0.9870 0.9870 0.9870 0.9870 0.9870
3258.068534 0.9870 0.9872 0.9877 0.9880 0.9880
3262.467367 0.9880 0.9880 0.9880 0.9880 0.9880
3266.866199 0.9880 0.9880 0.9880 0.9878 0.9873
3271.265032 0.9872 0.9877 0.9878 0.9873 0.9870
3275.663865 0.9870 0.9868 0.9863 0.9853 0.9838
3280.062698 0.9830 0.9830 0.9823 0.9808 0.9793
3284.461531 0.9778 0.9765 0.9755 0.9741 0.9721
3288.860364 0.9696 0.9666 0.9643 0.9628 0.9615
3293.259197 0.9605 0.9593 0.9578 0.9565 0.9555
3297.658029 0.9550 0.9550 0.9550 0.9550 0.9554
3302.056862 0.9565 0.9572 0.9577 0.9585 0.9595
3306.455695 0.9605 0.9615 0.9627 0.9642 0.9666
3310.854528 0.9701 0.9727 0.9742 0.9754 0.9764
3315.253361 0.9774 0.9784 0.9797 0.9812 0.9829
3319.652194 0.9849 0.9869 0.9889 0.9902 0.9907
3324.051027 0.9910 0.9910 0.9910 0.9910 0.9910
3328.449860 0.9910 0.9914 0.9924 0.9930 0.9930
3332.848692 0.9926 0.9916 0.9910 0.9910 0.9910
3337.247525 0.9910 0.9910 0.9910 0.9910 0.9910
3341.646358 0.9910 0.9910 0.9910 0.9910 0.9910
3346.045191 0.9910 0.9910 0.9910 0.9910 0.9910
3350.444024 0.9910 0.9910 0.9910 0.9910 0.9910
3354.842857 0.9910 0.9910 0.9910 0.9910 0.9910
3359.241690 0.9910 0.9910 0.9910 0.9910 0.9910
3363.640522 0.9910 0.9910 0.9910 0.9910 0.9910
3368.039355 0.9910 0.9910 0.9910 0.9910 0.9910
3372.438188 0.9910 0.9910 0.9910 0.9908 0.9903
3376.837021 0.9900 0.9900 0.9900 0.9900 0.9900
3381.235854 0.9900 0.9900 0.9900 0.9900 0.9900
3385.634687 0.9900 0.9900 0.9900 0.9900 0.9900
3390.033520 0.9900 0.9900 0.9900 0.9900 0.9900
3394.432352 0.9902 0.9907 0.9910 0.9910 0.9910
3398.831185 0.9910 0.9910 0.9910 0.9910 0.9910
3403.230018 0.9910 0.9910 0.9910 0.9910 0.9910
3407.628851 0.9910 0.9910 0.9910 0.9910 0.9910
3412.027684 0.9910 0.9910 0.9910 0.9910 0.9910
3416.426517 0.9910 0.9910 0.9910 0.9914 0.9924
3420.825350 0.9924 0.9909 0.9900 0.9900 0.9902
3425.224182 0.9907 0.9910 0.9910 0.9910 0.9910
3429.623015 0.9914 0.9924 0.9930 0.9930 0.9926
3434.021848 0.9916 0.9908 0.9903 0.9900 0.9900
3438.420681 0.9896 0.9886 0.9880 0.9880 0.9884
3442.819514 0.9894 0.9900 0.9900 0.9900 0.9900
3447.218347 0.9902 0.9907 0.9910 0.9910 0.9908
3451.617180 0.9903 0.9896 0.9886 0.9880 0.9880
3456.016013 0.9884 0.9894 0.9902 0.9907 0.9910
3460.414845 0.9910 0.9914 0.9924 0.9926 0.9916
3464.813678 0.9910 0.9910 0.9910 0.9910 0.9904
3469.212511 0.9889 0.9880 0.9880 0.9884 0.9894
3473.611344 0.9900 0.9900 0.9900 0.9900 0.9900
3478.010177 0.9900 0.9902 0.9907 0.9910 0.9910
3482.409010 0.9910 0.9910 0.9908 0.9903 0.9900
3486.807843 0.9900 0.9900 0.9900 0.9900 0.9900
3491.206675 0.9900 0.9900 0.9900 0.9900 0.9900
3495.605508 0.9900 0.9896 0.9886 0.9884 0.9894
3500.004341 0.9906 0.9921 0.9930 0.9930 0.9930
3504.403174 0.9930 0.9930 0.9930 0.9930 0.9930
3508.802007 0.9926 0.9916 0.9910 0.9910 0.9910
3513.200840 0.9910 0.9908 0.9903 0.9900 0.9900
3517.599673 0.9900 0.9900 0.9902 0.9907 0.9910
3521.998505 0.9910 0.9910 0.9910 0.9910 0.9910
3526.397338 0.9910 0.9910 0.9910 0.9910 0.9910
3530.796171 0.9910 0.9910 0.9910 0.9910 0.9910
3535.195004 0.9910 0.9910 0.9910 0.9910 0.9910
3539.593837 0.9910 0.9910 0.9910 0.9910 0.9910
3543.992670 0.9910 0.9910 0.9908 0.9903 0.9900
3548.391503 0.9900 0.9900 0.9900 0.9896 0.9886
3552.790336 0.9880 0.9880 0.9878 0.9873 0.9870
3557.189168 0.9870 0.9870 0.9870 0.9870 0.9870
3561.588001 0.9872 0.9877 0.9880 0.9880 0.9880
3565.986834 0.9880 0.9884 0.9894 0.9900 0.9900
3570.385667 0.9900 0.9900 0.9900 0.9900 0.9902
3574.784500 0.9907 0.9910 0.9910 0.9910 0.9910
3579.183333 0.9910 0.9910 0.9908 0.9903 0.9900
3583.582166 0.9900 0.9897 0.9887 0.9880 0.9880
3587.980998 0.9880 0.9880 0.9878 0.9873 0.9870
3592.379831 0.9870 0.9870 0.9870 0.9868 0.9863
3596.778664 0.9860 0.9860 0.9860 0.9860 0.9860
3601.177497 0.9860 0.9857 0.9847 0.9840 0.9840
3605.576330 0.9838 0.9833 0.9830 0.9830 0.9832
3609.975163 0.9837 0.9840 0.9840 0.9840 0.9840
3614.373996 0.9838 0.9833 0.9830 0.9830 0.9830
3618.772828 0.9830 0.9830 0.9830 0.9830 0.9830
3623.171661 0.9830 0.9830 0.9830 0.9830 0.9830
3627.570494 0.9830 0.9830 0.9830 0.9830 0.9830
3631.969327 0.9828 0.9823 0.9820 0.9820 0.9820
3636.368160 0.9820 0.9820 0.9820 0.9820 0.9820
3640.766993 0.9820 0.9820 0.9822 0.9827 0.9830
3645.165826 0.9830 0.9832 0.9837 0.9843 0.9853
3649.564659 0.9862 0.9867 0.9870 0.9870 0.9870
3653.963491 0.9870 0.9868 0.9863 0.9860 0.9860
3658.362324 0.9857 0.9847 0.9838 0.9833 0.9830
3662.761157 0.9830 0.9830 0.9830 0.9830 0.9830
3667.159990 0.9829 0.9824 0.9820 0.9820 0.9820
3671.558823 0.9820 0.9820 0.9820 0.9820 0.9820
3675.957656 0.9820 0.9820 0.9821 0.9826 0.9830
3680.356489 0.9830 0.9831 0.9836 0.9840 0.9840
3684.755321 0.9840 0.9840 0.9843 0.9853 0.9860
3689.154154 0.9860 0.9860 0.9860 0.9861 0.9866
3693.552987 0.9870 0.9870 0.9870 0.9870 0.9871
3697.951820 0.9876 0.9880 0.9880 0.9883 0.9893
3702.350653 0.9901 0.9906 0.9910 0.9910 0.9910
3706.749486 0.9910 0.9910 0.9910 0.9909 0.9904
3711.148319 0.9897 0.9887 0.9880 0.9880 0.9880
3715.547151 0.9880 0.9879 0.9874 0.9870 0.9870
3719.945984 0.9869 0.9864 0.9860 0.9860 0.9857
3724.344817 0.9847 0.9840 0.9840 0.9840 0.9840
3728.743650 0.9839 0.9834 0.9830 0.9830 0.9830
3733.142483 0.9830 0.9830 0.9830 0.9830 0.9830
3737.541316 0.9831 0.9836 0.9843 0.9853 0.9861
3741.940149 0.9866 0.9871 0.9876 0.9883 0.9893
3746.338981 0.9900 0.9900 0.9897 0.9887 0.9880
3750.737814 0.9880 0.9883 0.9893 0.9900 0.9900
3755.136647 0.9901 0.9906 0.9910 0.9910 0.9913
3759.535480 0.9923 0.9930 0.9930 0.9931 0.9936
3763.934313 0.9940 0.9940 0.9940 0.9940 0.9940
3768.333146 0.9940 0.9939 0.9934 0.9930 0.9930
3772.731979 0.9930 0.9930 0.9928 0.9918 0.9909
3777.130812 0.9904 0.9900 0.9900 0.9897 0.9887
3781.529644 0.9880 0.9880 0.9879 0.9874 0.9869
3785.928477 0.9864 0.9860 0.9860 0.9861 0.9866
3790.327310 0.9870 0.9870 0.9871 0.9876 0.9880
3794.726143 0.9880 0.9883 0.9893 0.9900 0.9900
3799.124976 0.9901 0.9906 0.9912 0.9922 0.9930
3803.523809 0.9930 0.9930 0.9930
##END=
