##TITLE=Ethyl vinyl sulfide
##JCAMP-DX=4.24
##DATA TYPE=INFRARED SPECTRUM
##ORIGIN=EPA-IR VAPOR PHASE LIBRARY
##OWNER=SRD/NIST
Collection (C) 2018 copyright by the U.S. Secretary of Commerce
on behalf of the United States of America. All rights reserved.
##CAS REGISTRY NO=627-50-9
##MOLFORM=C 4 H 8 S
##$NIST SOURCE=MSDC-IR
##STATE=gas
##XUNITS=1/CM
##YUNITS=ABSORBANCE
##XFACTOR=1.
##YFACTOR=0.001
##DELTAX=1.92898
##FIRSTX=549.8
##LASTX=4000.7
##FIRSTY=1.856
##MAXX=4000.7
##MINX=549.759
##MAXY=0.030346
##MINY=0
##NPOINTS=1790
##XYDATA=(X++(Y..Y))
549.759 1.856 1.686 1.866 2.226 2.346 2.306 2.836 3.186 3.146 3.446
569.049 3.806 4.246 4.816 5.246 5.496 5.576 5.986 6.116 5.916 6.246
588.339 6.236 5.526 5.296 5.446 5.586 5.396 5.196 5.086 4.836 4.646
607.628 4.456 4.186 3.946 3.926 3.826 3.846 3.826 3.466 3.076 3.016
626.918 3.286 3.456 3.346 3.276 3.256 3.336 3.536 3.566 3.516 3.536
646.208 3.796 3.906 3.666 3.516 3.376 3.296 2.976 2.666 2.726 2.766
665.498 2.646 2.666 2.856 2.846 2.566 2.336 2.376 2.486 2.566 2.646
684.787 3.086 3.216 2.966 3.176 3.896 4.466 4.626 5.436 6.286 6.596
704.077 6.996 7.536 7.946 8.306 8.466 8.646 8.936 8.986 8.856 8.906
723.367 8.876 8.506 8.036 7.516 6.736 5.846 5.206 4.536 4.046 3.546
742.657 3.106 2.886 2.476 2.386 2.166 1.936 2.046 2.126 2.086 2.256
761.947 2.346 2.266 2.346 2.396 2.186 2.266 2.776 2.786 2.516 2.406
781.236 2.686 2.776 2.636 2.496 2.396 2.546 2.366 2.186 2.296 2.246
800.526 2.266 2.436 2.246 2.196 2.296 2.156 2.166 2.296 2.346 2.346
819.816 2.476 2.466 2.566 2.926 3.286 3.866 4.306 4.636 5.256 5.646
839.106 5.996 6.626 7.116 7.626 8.206 8.806 9.576 10.636 12.036 13.286
858.395 13.566 13.026 12.906 13.126 13.206 13.106 13.066 13.136 13.266 13.476
877.685 13.376 13.386 13.516 13.286 12.866 12.516 12.046 11.566 11.226 11.086
896.975 10.896 10.546 10.116 9.826 9.656 9.266 9.066 8.926 8.746 8.676
916.265 8.636 8.456 8.236 8.256 8.296 8.576 8.766 8.856 9.136 9.326
935.555 9.586 10.176 10.946 11.526 12.176 12.666 13.216 13.866 14.316 14.416
954.844 14.646 15.346 16.526 16.456 15.176 14.776 14.556 14.276 14.156 14.076
974.134 13.856 13.826 13.676 13.506 13.316 12.966 12.686 11.956 11.056 10.536
993.424 10.226 9.886 9.366 8.876 8.936 8.566 7.936 7.916 7.866 7.166
1012.714 6.686 6.406 6.106 6.026 5.656 5.266 5.236 5.286 5.236 5.026
1032.003 4.696 4.856 4.686 4.526 4.826 4.856 5.056 5.346 5.356 5.446
1051.293 5.656 5.876 5.766 5.166 4.736 4.806 4.876 4.586 4.296 3.786
1070.583 3.546 3.576 3.346 3.006 2.446 2.336 2.076 1.636 1.646 1.996
1089.873 1.666 1.0694 0.9638 0.7062 0.7972 0.6557 0.4464 0.8026 1.406 1.986
1109.163 1.866 1.2147 0.7616 0.8658 1.3016 1.416 0.9953 1.0808 1.0696 0.6628
1128.452 0.726 0.8577 0.7983 0.5934 0.694 0.9535 0.8655 0.9738 0.7953 0.4612
1147.742 0.5642 0.6598 0.9609 1.1597 0.9546 0.9234 1.326 1.596 1.776 1.676
1167.032 1.2968 0.8585 1.0216 1.516 1.386 1.1545 1.2112 1.436 1.606 1.486
1186.322 1.466 1.656 1.746 1.666 1.1885 1.1658 1.656 1.826 1.696 1.356
1205.611 1.436 1.796 2.036 2.196 2.716 3.206 3.386 3.226 2.736 2.986
1224.901 3.416 3.686 4.246 4.856 5.366 5.856 6.576 7.676 9.066 10.876
1244.191 12.946 14.546 16.006 17.196 17.946 18.466 18.376 18.506 19.226 19.696
1263.481 19.826 19.416 18.856 18.316 17.276 15.896 14.336 12.486 10.576 9.026
1282.771 7.716 6.696 6.016 5.456 4.996 4.636 4.316 3.986 3.606 3.336
1302.060 3.076 2.866 2.796 2.736 2.636 2.486 2.376 2.336 2.286 2.206
1321.350 2.156 2.056 1.906 1.856 1.836 1.846 1.856 1.836 1.786 1.806
1340.640 1.836 1.926 2.076 2.106 2.156 2.376 2.566 2.706 2.836 3.046
1359.930 3.266 3.456 3.776 4.136 4.426 4.706 5.016 5.316 5.506 5.696
1379.219 6.046 6.396 6.506 6.396 6.356 6.386 6.286 6.136 5.976 5.776
1398.509 5.506 5.136 4.876 4.776 4.586 4.346 4.266 4.256 4.176 4.216
1417.799 4.396 4.586 4.706 4.956 5.246 5.496 5.916 6.376 6.756 7.086
1437.089 7.356 7.506 7.716 7.986 8.146 8.206 8.186 8.156 8.106 8.066
1456.378 7.986 7.786 7.586 7.286 6.926 6.556 6.256 6.056 5.726 5.386
1475.668 5.116 4.836 4.666 4.436 4.086 3.816 3.616 3.376 3.236 3.136
1494.958 2.996 2.846 2.746 2.586 2.406 2.366 2.346 2.276 2.226 2.136
1514.248 2.046 2.046 2.106 2.116 2.176 2.226 2.206 2.256 2.386 2.486
1533.538 2.636 2.826 2.946 3.096 3.406 3.646 3.876 4.246 4.656 5.196
1552.827 5.686 6.376 7.206 8.096 9.306 10.586 12.166 14.006 16.176 18.556
1572.117 21.126 23.716 26.146 28.236 29.616 30.316 30.346 30.106 29.806 29.106
1591.407 29.086 29.446 28.856 28.256 27.466 25.446 22.186 18.066 13.876 10.346
1610.697 7.856 6.036 4.746 4.136 3.486 2.936 2.696 2.376 2.196 2.126
1629.986 1.946 1.746 1.786 1.816 1.676 1.576 1.576 1.476 1.386 1.386
1649.276 1.3032 1.336 1.446 1.406 1.2909 1.1384 1.1473 1.2387 1.2532 1.135
1668.566 1.0692 1.1409 1.1275 1.1551 1.1442 1.0934 1.0315 0.9922 1.03 1.0082
1687.856 0.9808 0.948 0.9534 1.0794 1.0641 0.9721 1.0748 1.1232 1.0887 1.0953
1707.146 1.1228 1.12 1.1465 1.1552 1.1066 1.0798 1.1951 1.2977 1.268 1.1976
1726.435 1.1744 1.165 1.1836 1.2639 1.2738 1.1974 1.19 1.336 1.386 1.3188
1745.725 1.2898 1.3087 1.386 1.446 1.496 1.476 1.476 1.596 1.606 1.576
1765.015 1.576 1.576 1.576 1.626 1.726 1.736 1.756 1.806 1.786 1.746
1784.305 1.696 1.676 1.686 1.646 1.546 1.466 1.476 1.466 1.456 1.386
1803.594 1.2626 1.2344 1.261 1.2983 1.1988 1.087 1.0535 1.0571 1.0788 1.0375
1822.884 0.973 1.009 1.0118 0.9786 1.0062 1.0089 0.9893 0.9251 0.8939 0.9056
1842.174 0.8634 0.7923 0.809 0.8546 0.8327 0.6916 0.6648 0.7452 0.6963 0.7275
1861.464 0.7465 0.6183 0.6512 0.7159 0.6917 0.7129 0.6936 0.6633 0.6783 0.6323
1880.754 0.6269 0.7296 0.7324 0.6963 0.6967 0.7944 0.9117 0.9126 0.8606 0.8805
1900.043 0.9055 0.8558 0.9245 0.9599 0.9349 0.8679 0.7872 0.722 0.6826 0.7515
1919.333 0.6916 0.6139 0.586 0.5489 0.5566 0.518 0.4448 0.4858 0.5547 0.5278
1938.623 0.5001 0.5354 0.5233 0.5413 0.5146 0.38953 0.41258 0.40272 0.4286 0.4826
1957.913 0.39461 0.37961 0.4032 0.41624 0.37339 0.2867 0.3263 0.4598 0.41675 0.4108
1977.202 0.4558 0.4575 0.5203 0.4769 0.4747 0.4933 0.4662 0.4417 0.434 0.4933
1996.492 0.5042 0.471 0.4389 0.4576 0.4757 0.41533 0.4329 0.39034 0.42053 0.4511
2015.782 0.335434 0.33889 0.38864 0.3843 0.42016 0.443 0.4015 0.4371 0.4723 0.40374
2035.072 0.37737 0.4514 0.481 0.441 0.4373 0.41495 0.38937 0.3728 0.34293 0.39093
2054.362 0.37915 0.34452 0.35331 0.3195 0.36414 0.446 0.38952 0.34051 0.35626 0.41
2073.651 0.4737 0.40665 0.327783 0.34757 0.38841 0.4378 0.4535 0.38534 0.40644 0.4315
2092.941 0.41818 0.42557 0.4559 0.41888 0.3007 0.3211 0.3384 0.329557 0.33964 0.3649
2112.231 0.39357 0.36586 0.41372 0.4511 0.33986 0.184 0.183 0.2368 0.2348 0.2554
2131.521 0.2455 0.246 0.2688 0.206 0.171 0.2483 0.26 0.2675 0.2917 0.223
2150.810 0.2311 0.2892 0.2928 0.3025 0.31748 0.2993 0.2902 0.2766 0.2828 0.3065
2170.100 0.2347 0.2522 0.33789 0.3087 0.2321 0.3033 0.3667 0.34829 0.42471 0.4529
2189.390 0.41719 0.4311 0.42224 0.42088 0.4506 0.468 0.4275 0.37842 0.40248 0.41196
2208.680 0.36328 0.36425 0.482 0.5307 0.5822 0.6011 0.4825 0.40923 0.39752 0.41717
2227.970 0.4522 0.42451 0.4651 0.4881 0.477 0.40841 0.35519 0.4609 0.41326 0.39636
2247.259 0.4664 0.453 0.42042 0.39541 0.4526 0.4489 0.36976 0.37546 0.38194 0.37703
2266.549 0.39633 0.37736 0.330254 0.286 0.37574 0.4422 0.4483 0.4607 0.4571 0.4708
2285.839 0.4875 0.4541 0.38748 0.4433 0.4543 0.4473 0.457 0.4918 0.4711 0.4402
2305.129 0.4539 0.4386 0.5323 0.5692 0.4553 0.35065 0.3071 0.35064 0.441 0.4595
2324.418 0.4007 0.35548 0.40043 0.4731 0.4464 0.39301 0.37419 0.333433 0.36819 0.4701
2343.708 0.41435 0.34223 0.5172 0.5426 0.34277 0.34293 0.33935 0.31 0.4695 0.5287
2362.998 0.4108 0.3232 0.34664 0.36514 0.4162 0.4578 0.4403 0.4941 0.4343 0.3063
2382.288 0.2629 0.3376 0.36731 0.37589 0.4516 0.40076 0.28 0.211 0.2534 0.40026
2401.578 0.5179 0.4637 0.38871 0.38482 0.34849 0.3438 0.41689 0.38118 0.34909 0.4629
2420.867 0.4032 0.2568 0.2372 0.31812 0.41743 0.4723 0.4902 0.4267 0.4079 0.32097
2440.157 0.2456 0.36318 0.4307 0.41149 0.42599 0.41045 0.35318 0.3568 0.35616 0.38663
2459.447 0.443 0.39268 0.2694 0.196 0.2611 0.2598 0.176 0.3113 0.42319 0.40995
2478.737 0.37996 0.2951 0.2847 0.328911 0.3841 0.34389 0.33911 0.38541 0.40264 0.4195
2498.026 0.39661 0.34593 0.2901 0.36415 0.37738 0.2738 0.2518 0.3077 0.2826 0.2596
2517.316 0.2622 0.245 0.248 0.179 0.223 0.212 0.152 0.177 0.205 0.219
2536.606 0.2719 0.3146 0.2281 0.2442 0.11 0.032 0.203 0.2298 0.18 0.216
2555.896 0.2802 0.208 0.154 0.184 0.123 0.123 0.148 0.132 0.144 0.139
2575.186 0.179 0.17 0.122 0.069 0.02 0.176 0.158 0.047 0.216 0.2778
2594.475 0.2282 0.129 0.217 0.294 0.177 0.177 0.188 0.146 0.128 0.172
2613.765 0.225 0.2297 0.2412 0.226 0.189 0.197 0.2816 0.2635 0.21 0.214
2633.055 0.175 0.213 0.191 0.146 0.2334 0.2674 0.2816 0.3318 0.32015 0.2532
2652.345 0.193 0.2889 0.41396 0.331764 0.31848 0.3905 0.4062 0.42077 0.39413 0.36381
2671.634 0.4286 0.4959 0.4502 0.42022 0.4614 0.539 0.6268 0.5853 0.6292 0.6688
2690.924 0.5644 0.5631 0.6463 0.7236 0.6307 0.6118 0.6027 0.6551 0.6971 0.6068
2710.214 0.6201 0.6107 0.6906 0.7802 0.6568 0.5846 0.6768 0.6533 0.6085 0.628
2729.504 0.5856 0.6014 0.6515 0.6275 0.6918 0.7712 0.8375 0.9009 0.7852 0.7231
2748.794 0.7782 0.7014 0.7174 0.8217 0.7044 0.5052 0.4295 0.5316 0.5652 0.5591
2768.083 0.6587 0.6547 0.6847 0.7484 0.7329 0.7157 0.6704 0.5966 0.6555 0.7997
2787.373 0.7957 0.7977 0.7956 0.8115 0.9074 0.9683 1.1172 1.135 1.0637 1.1138
2806.663 1.1832 1.1911 1.2987 1.486 1.466 1.446 1.626 1.786 1.816 1.996
2825.953 2.206 2.306 2.436 2.556 2.706 2.946 3.036 3.106 3.326 3.516
2845.242 3.716 3.926 4.136 4.256 4.386 4.646 4.826 5.016 5.406 5.826
2864.532 6.316 6.796 7.316 8.056 8.726 9.256 9.776 10.216 10.406 10.506
2883.822 10.746 11.006 11.276 11.456 11.496 11.496 11.476 11.376 11.266 11.066
2903.112 11.026 11.286 11.496 11.706 11.976 12.426 13.076 14.066 15.346 16.786
2922.401 18.546 20.426 22.346 23.996 25.316 26.246 26.536 26.646 26.896 27.136
2941.691 27.106 27.106 27.536 27.956 28.136 28.136 27.746 27.156 26.456 25.816
2960.981 25.546 25.606 25.856 26.206 26.576 27.296 27.916 27.776 27.416 27.336
2980.271 27.536 28.086 28.486 27.586 25.656 24.226 23.126 21.996 21.056 20.256
2999.561 19.576 18.676 17.696 16.926 16.116 15.186 14.466 13.826 13.166 12.506
3018.850 11.806 11.296 10.836 10.286 9.636 9.016 8.396 7.826 7.256 6.756
3038.140 6.596 6.276 5.816 5.426 5.066 4.736 4.396 4.096 4.056 4.046
3057.430 3.986 3.706 3.616 3.726 3.766 3.846 3.746 3.716 3.776 4.006
3076.720 4.466 4.836 4.976 5.296 5.756 6.046 6.436 6.636 6.646 6.656
3096.009 6.566 6.546 6.506 6.556 6.586 6.346 6.026 5.726 5.426 5.126
3115.299 4.686 4.106 3.486 3.006 2.686 2.306 1.996 1.946 1.966 1.826
3134.589 1.686 1.686 1.566 1.526 1.506 1.426 1.596 1.526 1.436 1.2785
3153.879 1.1519 1.14 0.9871 0.9842 1.0163 0.9898 1.0041 1.0886 1.1502 0.9907
3173.169 0.7752 0.7674 0.9244 0.9058 0.9808 1.0545 0.9583 0.9749 0.9515 0.9374
3192.458 0.8999 0.973 0.9834 0.9024 0.8968 0.8898 0.785 0.7673 0.7887 0.8524
3211.748 0.9186 0.8876 0.7042 0.5586 0.551 0.6171 0.5369 0.4775 0.7648 0.7488
3231.038 0.6459 0.5834 0.4542 0.4735 0.4606 0.38486 0.35442 0.4998 0.6033 0.5214
3250.328 0.2792 0.174 0.40493 0.5713 0.5113 0.3643 0.2952 0.3787 0.3487 0.2897
3269.617 0.36702 0.4944 0.5368 0.38528 0.4349 0.4956 0.306 0.329393 0.5538 0.6871
3288.907 0.6963 0.5877 0.5762 0.5394 0.4712 0.5102 0.38732 0.2904 0.38275 0.4872
3308.197 0.4299 0.33696 0.4035 0.4519 0.5631 0.666 0.5031 0.2868 0.199 0.213
3327.487 0.091 0 0.19 0.2896 0.36628 0.35078 0.3064 0.3923 0.39545 0.2988
3346.777 0.2535 0.3208 0.2568 0.167 0.3122 0.36721 0.2779 0.2645 0.2984 0.2974
3366.066 0.35227 0.3154 0.159 0.2367 0.195 0.18 0.38241 0.3811 0.33662 0.4676
3385.356 0.5041 0.37512 0.2951 0.2626 0.35802 0.4293 0.5405 0.5958 0.492 0.4611
3404.646 0.40934 0.41892 0.37525 0.31652 0.2419 0.40963 0.42319 0.2536 0.3147 0.4791
3423.936 0.5333 0.4306 0.34469 0.2287 0.2448 0.3133 0.2975 0.3022 0.4526 0.38584
3443.225 0.32175 0.34854 0.159 0.2647 0.458 0.4496 0.4509 0.2491 0.214 0.179
3462.515 0.003 0.152 0.4547 0.5792 0.5186 0.42344 0.40809 0.469 0.35208 0.2876
3481.805 0.5338 0.4675 0.36097 0.4523 0.36939 0.335208 0.37543 0.5442 0.5228 0.5342
3501.095 0.4978 0.2452 0.3132 0.5661 0.5957 0.6698 0.7814 0.6878 0.5117 0.4402
3520.385 0.3685 0.3001 0.284 0.146 0.222 0.35443 0.40831 0.2441 0.081 0.33604
3539.674 0.41579 0.177 0.298 0.4716 0.34375 0.33943 0.35019 0.2666 0.37204 0.6883
3558.964 0.654 0.3087 0.2931 0.4868 0.4766 0.216 0.34483 0.5941 0.38014 0.35768
3578.254 0.40451 0.37438 0.40563 0.37365 0.207 0.177 0.3006 0.2989 0.40066 0.33657
3597.544 0.3054 0.4555 0.41008 0.4315 0.4594 0.2888 0.2551 0.36445 0.4352 0.5253
3616.833 0.5055 0.486 0.5065 0.330059 0.331519 0.42413 0.315 0.34281 0.297 0.217
3636.123 0.2776 0.4273 0.6582 0.6737 0.6019 0.38287 0.259 0.37085 0.38923 0.37479
3655.413 0.35903 0.3113 0.2372 0.192 0.3128 0.2947 0.35971 0.4699 0.4587 0.5541
3674.703 0.5465 0.41236 0.33844 0.331536 0.2503 0.244 0.4262 0.4494 0.3055 0.32286
3693.993 0.37236 0.4691 0.326073 0.2346 0.36769 0.2918 0.2955 0.4681 0.38929 0.39038
3713.282 0.666 0.6759 0.5585 0.5618 0.42576 0.2917 0.2375 0.36331 0.37972 0.316
3732.572 0.37828 0.3105 0.35304 0.36101 0.304 0.3132 0.39161 0.4555 0.4474 0.511
3751.862 0.5559 0.5474 0.4835 0.2282 0.15 0.328051 0.34967 0.2789 0.4471 0.6312
3771.152 0.6601 0.5241 0.4727 0.5771 0.39159 0.2763 0.2966 0.3961 0.5704 0.5331
3790.441 0.5747 0.5434 0.452 0.4711 0.4504 0.36852 0.194 0.2649 0.35258 0.38505
3809.731 0.5245 0.334815 0.4573 0.6799 0.42577 0.211 0.145 0.151 0.2733 0.40028
3829.021 0.3392 0.262 0.2672 0.34339 0.35248 0.2943 0.224 0.28 0.4903 0.5106
3848.311 0.4475 0.4584 0.4614 0.2605 0.096 0.2532 0.2405 0.2624 0.433 0.2442
3867.601 0.2911 0.542 0.42574 0.39427 0.432 0.39941 0.325769 0.2535 0.264 0.35017
3886.890 0.092 0.132 0.5328 0.578 0.41633 0.196 0.2532 0.36991 0.333035 0.39936
3906.180 0.5852 0.7807 0.6728 0.417 0.3101 0.36383 0.37725 0.312 0.3142 0.2973
3925.470 0.36684 0.53 0.5522 0.442 0.4676 0.39361 0.42259 0.587 0.5979 0.4959
3944.760 0.5109 0.6836 0.59 0.4571 0.538 0.6681 0.6146 0.38567 0.5188 0.718
3964.049 0.6769 0.4884 0.303 0.3065 0.36182 0.525 0.5483 0.5112 0.7243 0.7007
3983.339 0.4905 0.34307 0.4261 0.5492 0.4986 0.439 0.4299 0.40436 0.4802 0.6816
##END=
