##TITLE=N-Methyl-1,3-propanediamine
##JCAMP-DX=4.24
##DATA TYPE=INFRARED SPECTRUM
##ORIGIN=EPA-IR VAPOR PHASE LIBRARY
##OWNER=SRD/NIST
Collection (C) 2018 copyright by the U.S. Secretary of Commerce
on behalf of the United States of America. All rights reserved.
##CAS REGISTRY NO=6291-84-5
##MOLFORM=C 4 H 12 N 2
##$NIST SOURCE=MSDC-IR
##STATE=gas
##XUNITS=1/CM
##YUNITS=ABSORBANCE
##XFACTOR=1.
##YFACTOR=0.001
##DELTAX=1.92898
##FIRSTX=549.8
##LASTX=4000.7
##FIRSTY=3.097
##MAXX=4000.7
##MINX=549.759
##MAXY=0.048347
##MINY=0
##NPOINTS=1790
##XYDATA=(X++(Y..Y))
549.759 3.097 3.037 2.707 2.747 2.907 2.837 3.097 3.157 3.207 3.227
569.049 3.057 3.207 3.587 3.617 3.577 3.597 3.577 3.537 3.617 3.627
588.339 3.787 4.047 3.967 4.017 4.237 4.187 4.237 4.477 4.437 4.427
607.628 4.677 4.867 4.847 5.067 5.137 5.347 5.707 5.687 5.627 5.837
626.918 6.157 6.397 6.437 6.457 6.717 6.907 6.957 7.217 7.517 7.647
646.208 7.767 7.957 8.337 8.597 8.897 9.057 9.187 9.537 9.927 10.167
665.498 10.307 10.427 10.587 10.877 11.197 11.527 11.907 12.257 12.367 12.557
684.787 12.707 13.017 13.377 13.657 14.047 14.427 14.867 15.137 15.317 15.507
704.077 15.747 16.077 16.427 16.657 16.747 16.967 17.257 17.407 17.557 17.757
723.367 17.927 18.247 18.357 18.437 18.677 18.867 19.167 19.397 19.607 19.887
742.657 20.187 20.437 20.527 20.547 20.567 20.667 20.787 20.767 20.907 21.027
761.947 20.977 21.037 20.917 20.717 20.687 20.677 20.397 20.087 19.877 19.527
781.236 19.167 18.787 18.257 17.867 17.467 16.917 16.287 15.567 14.837 14.147
800.526 13.557 13.057 12.617 12.107 11.497 11.067 10.727 10.267 9.887 9.487
819.816 9.057 8.637 8.357 8.207 7.977 7.637 7.527 7.547 7.217 6.977
839.106 6.987 6.747 6.707 6.847 6.537 6.187 6.007 6.017 5.907 5.737
858.395 5.687 5.607 5.707 5.577 5.387 5.377 5.367 5.287 5.077 4.977
877.685 4.947 5.037 4.997 4.817 4.747 4.547 4.487 4.567 4.477 4.367
896.975 4.387 4.287 4.177 4.197 4.097 3.987 3.947 4.077 3.957 3.867
916.265 3.997 3.917 3.717 3.687 3.787 3.617 3.567 3.637 3.617 3.667
935.555 3.567 3.397 3.297 3.277 3.147 3.107 3.197 3.187 3.147 3.137
954.844 3.177 3.217 3.167 3.147 3.347 3.377 3.407 3.417 3.177 3.107
974.134 3.117 3.017 3.097 3.227 3.177 3.207 3.277 3.257 3.417 3.477
993.424 3.347 3.377 3.427 3.557 3.787 3.797 3.887 3.967 3.857 4.007
1012.714 4.237 4.307 4.377 4.487 4.757 4.787 4.787 4.997 4.937 4.937
1032.003 5.097 5.217 5.287 5.187 5.057 5.077 5.497 5.797 5.617 5.597
1051.293 5.797 6.127 6.457 6.687 6.877 7.237 7.577 7.797 8.107 8.267
1070.583 8.427 8.447 8.417 8.287 8.167 7.977 7.607 7.557 7.767 7.987
1089.873 7.827 7.737 7.827 8.057 7.957 8.137 8.777 9.107 9.427 9.887
1109.163 10.327 10.807 11.307 11.807 12.437 12.957 13.507 13.867 14.137 14.457
1128.452 14.437 14.467 14.747 14.927 14.927 14.647 14.307 14.227 13.907 13.527
1147.742 13.187 12.667 12.297 11.867 11.247 10.787 10.157 9.257 8.577 8.147
1167.032 7.647 7.197 6.967 6.577 5.847 5.467 5.427 5.137 4.897 4.577
1186.322 4.277 4.037 3.967 3.887 3.547 3.387 3.367 3.427 3.397 3.497
1205.611 3.387 3.157 3.107 3.037 2.797 2.817 2.867 2.737 2.747 2.767
1224.901 2.897 2.877 2.667 2.707 2.977 2.787 2.607 2.807 2.697 2.797
1244.191 2.907 2.827 2.807 2.797 2.937 2.927 2.847 2.657 2.737 2.817
1263.481 2.747 2.917 2.907 2.827 2.887 2.757 2.627 2.667 2.697 2.697
1282.771 2.567 2.527 2.597 2.587 2.587 2.547 2.497 2.617 2.697 2.737
1302.060 2.677 2.667 2.787 2.827 2.807 2.757 2.767 2.777 2.817 2.847
1321.350 2.937 3.037 3.157 3.297 3.377 3.537 3.717 3.947 4.207 4.407
1340.640 4.617 4.927 5.237 5.487 5.727 5.947 6.167 6.417 6.627 6.737
1359.930 6.807 6.847 6.867 6.817 6.777 6.717 6.647 6.537 6.367 6.237
1379.219 6.107 5.947 5.807 5.697 5.507 5.237 5.087 4.987 4.837 4.647
1398.509 4.447 4.337 4.197 4.087 4.027 3.997 4.007 4.007 4.027 4.127
1417.799 4.287 4.467 4.707 4.947 5.177 5.437 5.807 6.207 6.607 6.967
1437.089 7.387 7.947 8.387 8.727 9.037 9.267 9.487 9.677 9.897 10.157
1456.378 10.407 10.707 10.917 11.067 11.187 11.237 11.197 11.027 10.817 10.607
1475.668 10.327 9.987 9.597 9.167 8.647 8.047 7.407 6.727 6.087 5.487
1494.958 4.977 4.467 4.057 3.787 3.467 3.227 3.067 2.917 2.797 2.667
1514.248 2.547 2.437 2.337 2.257 2.197 2.147 2.097 2.067 2.007 1.987
1533.538 2.007 1.977 1.967 1.967 1.927 1.907 1.947 1.977 1.957 1.927
1552.827 1.917 1.957 2.047 2.017 2.007 2.067 2.097 2.137 2.147 2.197
1572.117 2.207 2.207 2.317 2.387 2.407 2.507 2.587 2.717 2.817 2.917
1591.407 3.087 3.197 3.387 3.627 3.777 3.957 4.147 4.347 4.617 4.877
1610.697 5.057 5.327 5.607 5.807 5.937 5.997 6.057 5.977 5.857 5.787
1629.986 5.667 5.487 5.277 5.017 4.657 4.337 4.067 3.817 3.567 3.337
1649.276 3.157 2.957 2.737 2.527 2.337 2.257 2.137 1.977 1.927 1.817
1668.566 1.677 1.617 1.547 1.497 1.467 1.377 1.337 1.297 1.257 1.207
1687.856 1.187 1.217 1.217 1.177 1.1285 1.1259 1.1445 1.0805 1.0397 1.0762
1707.146 1.0773 1.0156 0.9859 1.0231 0.9936 0.9893 1.0088 1.0174 0.9883 0.9306
1726.435 0.9644 0.9275 0.8269 0.8873 0.9611 0.9476 0.9376 0.9362 0.8849 0.8055
1745.725 0.8567 0.8813 0.8139 0.8269 0.8377 0.848 0.8737 0.8638 0.832 0.7643
1765.015 0.7639 0.7708 0.7235 0.7526 0.8177 0.8597 0.8707 0.8731 0.8929 0.8978
1784.305 0.8773 0.8787 0.9475 0.959 0.9171 0.8638 0.8036 0.8471 0.9009 0.9049
1803.594 0.883 0.8903 0.9361 0.9765 0.9485 0.966 1.0096 0.9643 0.9563 0.9737
1822.884 0.9851 0.9337 0.9303 0.9642 0.9238 0.9292 0.9422 0.9772 0.9539 0.9408
1842.174 0.9467 0.9321 0.9306 0.8635 0.8739 0.8895 0.856 0.8635 0.8459 0.8026
1861.464 0.8536 0.8632 0.7934 0.7531 0.7804 0.824 0.8085 0.7674 0.6936 0.6656
1880.754 0.6381 0.6331 0.6046 0.5791 0.6322 0.6145 0.6011 0.6217 0.5854 0.5497
1900.043 0.5393 0.5071 0.5226 0.5383 0.5208 0.5149 0.4813 0.4459 0.429 0.4453
1919.333 0.4958 0.4768 0.4471 0.4541 0.4879 0.4736 0.4342 0.4479 0.4909 0.4793
1938.623 0.4287 0.4656 0.4577 0.4068 0.4288 0.452 0.3917 0.4275 0.4841 0.4633
1957.913 0.4379 0.4209 0.3941 0.3761 0.3877 0.3567 0.395 0.4277 0.4316 0.4194
1977.202 0.4042 0.4264 0.4496 0.483 0.4033 0.3334 0.3687 0.3754 0.3884 0.4369
1996.492 0.4862 0.4768 0.4253 0.3393 0.3563 0.4846 0.4926 0.492 0.5234 0.4974
2015.782 0.4646 0.4804 0.4569 0.4097 0.4695 0.4594 0.4068 0.4201 0.4305 0.4229
2035.072 0.4221 0.4223 0.4289 0.4453 0.4402 0.4228 0.4321 0.4599 0.4834 0.4795
2054.362 0.4529 0.5029 0.5529 0.5147 0.4802 0.4701 0.4855 0.4867 0.4759 0.4738
2073.651 0.4555 0.4869 0.4597 0.4061 0.4129 0.4487 0.4426 0.4802 0.4992 0.4026
2092.941 0.4226 0.4846 0.389 0.3295 0.4122 0.4066 0.3721 0.3838 0.3811 0.4024
2112.231 0.4262 0.4037 0.3847 0.3883 0.3882 0.3871 0.3705 0.4234 0.4106 0.3136
2131.521 0.3251 0.3811 0.3678 0.3429 0.3547 0.3626 0.3488 0.3311 0.3657 0.3737
2150.810 0.3724 0.38 0.3412 0.3066 0.3224 0.3516 0.3221 0.3413 0.3918 0.3944
2170.100 0.4063 0.3447 0.3052 0.37 0.396 0.3761 0.3763 0.3844 0.3769 0.3409
2189.390 0.3341 0.3177 0.3375 0.3815 0.3855 0.398 0.3229 0.3053 0.3102 0.2919
2208.680 0.355 0.3309 0.319 0.3544 0.3242 0.3265 0.3176 0.3057 0.3356 0.3797
2227.970 0.3652 0.334 0.3244 0.3375 0.3127 0.23921 0.21137 0.19712 0.22704 0.26685
2247.259 0.288 0.25795 0.24529 0.26901 0.3239 0.3427 0.2807 0.2897 0.3137 0.3069
2266.549 0.3267 0.3104 0.2894 0.3384 0.3041 0.25092 0.2967 0.3345 0.3002 0.2841
2285.839 0.2949 0.26905 0.3104 0.3093 0.23923 0.22253 0.24687 0.3159 0.3427 0.328
2305.129 0.3294 0.2876 0.3362 0.3884 0.345 0.3603 0.3917 0.3732 0.3532 0.3425
2324.418 0.3334 0.3818 0.4211 0.3458 0.3028 0.27112 0.3005 0.3441 0.3791 0.4092
2343.708 0.3279 0.306 0.3046 0.3545 0.3579 0.2704 0.3054 0.3323 0.3186 0.3451
2362.998 0.3103 0.22599 0.21354 0.26644 0.3292 0.375 0.3457 0.3402 0.3311 0.3277
2382.288 0.343 0.2965 0.2869 0.3748 0.3419 0.27623 0.3196 0.27492 0.2438 0.309
2401.578 0.3327 0.3053 0.2957 0.3116 0.332 0.3786 0.4268 0.3563 0.2979 0.3049
2420.867 0.3637 0.3553 0.332 0.4114 0.3871 0.338 0.3239 0.3646 0.3543 0.3571
2440.157 0.3597 0.3552 0.4734 0.4992 0.4345 0.4821 0.5482 0.5189 0.4905 0.4792
2459.447 0.4988 0.5188 0.5405 0.5522 0.5415 0.5017 0.4365 0.4467 0.4871 0.4684
2478.737 0.4764 0.5633 0.5551 0.4842 0.4566 0.4711 0.6169 0.6662 0.564 0.5995
2498.026 0.6365 0.6511 0.6542 0.5698 0.5323 0.5345 0.5505 0.569 0.5338 0.5593
2517.316 0.5849 0.5894 0.6308 0.6262 0.6218 0.6284 0.6077 0.5978 0.6389 0.6497
2536.606 0.6625 0.7284 0.7729 0.7789 0.7795 0.7547 0.7688 0.8215 0.7716 0.7138
2555.896 0.7308 0.752 0.7783 0.8464 0.8368 0.7829 0.7809 0.7805 0.7446 0.7564
2575.186 0.8292 0.8473 0.9088 0.9444 0.896 0.9711 1.0012 0.9601 0.968 0.9047
2594.475 0.9086 1.0311 1.067 1.0218 1.1288 1.237 1.237 1.257 1.297 1.207
2613.765 1.207 1.327 1.347 1.297 1.327 1.407 1.467 1.457 1.407 1.447
2633.055 1.547 1.617 1.587 1.597 1.687 1.747 1.807 1.817 1.797 1.827
2652.345 1.847 1.987 2.107 2.187 2.187 2.167 2.327 2.387 2.387 2.577
2671.634 2.727 2.707 2.877 3.087 3.107 3.037 3.087 3.337 3.417 3.457
2690.924 3.587 3.657 3.687 3.817 3.917 3.917 3.897 3.907 4.037 4.127
2710.214 4.177 4.277 4.277 4.217 4.297 4.427 4.467 4.467 4.567 4.667
2729.504 4.667 4.797 5.037 5.137 5.157 5.297 5.507 5.597 5.767 6.057
2748.794 6.327 6.567 6.847 7.117 7.487 7.907 8.227 8.687 9.197 9.807
2768.083 10.567 11.337 12.197 13.207 14.297 15.497 16.747 17.997 19.317 20.647
2787.373 21.957 23.267 24.377 25.367 26.317 27.077 27.687 28.187 28.487 28.597
2806.663 28.667 28.547 28.257 27.817 27.337 26.857 26.377 26.057 25.867 25.717
2825.953 25.587 25.527 25.627 25.887 26.127 26.497 26.997 27.547 28.107 28.707
2845.242 29.277 29.787 30.357 30.977 31.517 31.867 32.077 32.357 32.607 32.597
2864.532 32.527 32.357 32.017 31.597 31.307 30.957 30.567 30.457 30.317 30.107
2883.822 30.137 30.257 30.437 30.687 30.857 31.197 31.727 32.247 32.567 33.097
2903.112 33.977 34.877 35.817 36.907 38.057 39.207 40.247 41.317 42.557 43.457
2922.401 44.357 45.377 46.197 46.897 47.547 48.007 48.237 48.347 48.097 47.567
2941.691 46.977 46.147 45.217 44.177 42.847 41.307 39.647 37.797 35.837 34.097
2960.981 32.377 30.747 29.237 27.607 26.107 24.527 22.827 21.227 19.747 18.397
2980.271 17.117 15.877 14.717 13.427 12.157 10.977 9.887 8.887 7.927 7.157
2999.561 6.417 5.877 5.427 4.977 4.607 4.257 3.997 3.767 3.677 3.567
3018.850 3.407 3.167 2.947 2.907 2.727 2.607 2.647 2.607 2.537 2.427
3038.140 2.347 2.307 2.197 2.137 2.077 2.027 2.077 2.097 1.937 1.817
3057.430 1.827 1.787 1.757 1.687 1.667 1.757 1.627 1.587 1.567 1.527
3076.720 1.457 1.337 1.467 1.437 1.297 1.287 1.297 1.337 1.327 1.161
3096.009 1.1067 1.187 1.197 1.1341 1.0779 1.009 0.9268 0.959 1.0576 1.1123
3115.299 1.0231 0.9164 0.8358 0.7516 0.7821 0.844 0.9321 0.8316 0.7906 0.8306
3134.589 0.7197 0.7611 0.8191 0.737 0.7089 0.7573 0.7278 0.6993 0.6163 0.5437
3153.879 0.6709 0.7011 0.5987 0.6151 0.646 0.6765 0.6382 0.5828 0.6683 0.7317
3173.169 0.5971 0.5178 0.5771 0.5839 0.4816 0.6133 0.6855 0.5448 0.5164 0.5199
3192.458 0.5477 0.4999 0.4419 0.4923 0.7139 0.921 0.7593 0.572 0.6466 0.7214
3211.748 0.6849 0.6107 0.502 0.582 0.6758 0.4925 0.5213 0.5385 0.3907 0.3861
3231.038 0.3674 0.4266 0.4819 0.4148 0.3685 0.43 0.5262 0.5696 0.5487 0.4523
3250.328 0.4659 0.5277 0.5272 0.5481 0.4828 0.3795 0.4212 0.3415 0.3173 0.4321
3269.617 0.4655 0.4972 0.6127 0.6419 0.5809 0.5393 0.5064 0.4541 0.3814 0.4466
3288.907 0.4717 0.451 0.4464 0.4021 0.3848 0.3403 0.3402 0.4461 0.594 0.712
3308.197 0.6692 0.3441 0.17577 0.3394 0.6133 0.7223 0.5951 0.5081 0.5927 0.8622
3327.487 0.8576 0.779 0.8685 1.0364 1.177 1.1116 1.0291 1.0787 1.1611 1.177
3346.777 1.297 1.327 1.207 1.277 1.287 1.247 1.247 1.176 1.1129 1.1599
3366.066 1.217 1.1354 1.0792 0.9935 0.8738 0.7854 0.5882 0.6296 0.7488 0.6976
3385.356 0.7038 0.6551 0.7039 0.6545 0.6822 0.7834 0.7407 0.6841 0.71 0.7344
3404.646 0.7501 0.826 0.7953 0.7524 0.8241 0.8672 0.6316 0.4169 0.6754 0.8006
3423.936 0.6101 0.5289 0.5572 0.6053 0.6894 0.6076 0.4392 0.388 0.4068 0.4944
3443.225 0.4259 0.4542 0.5367 0.4627 0.2885 0.1513 0.2688 0.3371 0.3098 0.327
3462.515 0.3662 0.4077 0.3792 0.3545 0.3457 0.2311 0.241 0.3076 0.25843 0.2988
3481.805 0.3482 0.2801 0.1636 0.24072 0.3643 0.4122 0.315 0.2833 0.3443 0.19973
3501.095 0.1623 0.23649 0.26828 0.3623 0.3372 0.3559 0.4976 0.4468 0.4188 0.3783
3520.385 0.3233 0.2988 0.26526 0.23999 0.3109 0.4649 0.4422 0.24048 0.1657 0.26859
3539.674 0.26231 0.3024 0.3097 0.316 0.23608 0.19651 0.3919 0.502 0.3304 0.3749
3558.964 0.4866 0.2766 0.2826 0.3516 0.338 0.4461 0.4558 0.2817 0.21944 0.2827
3578.254 0.23873 0.23426 0.3025 0.3925 0.4778 0.3451 0.179251 0.3949 0.5874 0.4197
3597.544 0.3869 0.295 0.1449 0.176076 0.186699 0.23072 0.20303 0.27597 0.2783 0.1294
3616.833 0.1065 0.1432 0.3603 0.3109 0.2774 0.345 0.3519 0.35 0.20848 0.20769
3636.123 0.3658 0.3756 0.4024 0.4244 0.2793 0.2828 0.20792 0.25564 0.3013 0.079
3655.413 0.1161 0.3629 0.3491 0.26041 0.162 0.365 0.4829 0.2652 0.19375 0.21862
3674.703 0.4234 0.3816 0.178703 0.1537 0.21245 0.3524 0.3681 0.3616 0.23868 0.1013
3693.993 0.1098 0.18987 0.3803 0.3457 0.1094 0.049 0.17066 0.2843 0.3593 0.2807
3713.282 0.2139 0.26977 0.2964 0.3375 0.0999 0.008 0.1582 0.2307 0.24236 0.1352
3732.572 0.293 0.2894 0.1354 0.1545 0.17126 0.17277 0.291 0.4218 0.3064 0.23836
3751.862 0.21514 0.064 0.19335 0.3487 0.2582 0.3563 0.3397 0.1578 0.25912 0.26125
3771.152 0.2968 0.286 0.18978 0.24954 0.051 0.1641 0.3504 0.20039 0.067 0.0831
3790.441 0.20969 0.24229 0.242 0.3239 0.35 0.3455 0.4254 0.4465 0.2949 0.19729
3809.731 0.27042 0.1647 0.1554 0.27573 0.2923 0.20036 0.1552 0.3607 0.4213 0.3873
3829.021 0.368 0.19301 0.26507 0.4241 0.3177 0.25228 0.26947 0.23175 0.2945 0.2894
3848.311 0.056 0 0.1407 0.2517 0.3875 0.3843 0.25173 0.22594 0.3184 0.5421
3867.601 0.554 0.3262 0.3001 0.3106 0.3827 0.5495 0.4795 0.24189 0.4293 0.5799
3886.890 0.3169 0.3514 0.4102 0.4122 0.4071 0.2956 0.20899 0.1472 0.3053 0.408
3906.180 0.2894 0.3246 0.2975 0.181921 0.4286 0.4609 0.3838 0.4719 0.4835 0.27056
3925.470 0.3033 0.3703 0.2903 0.3935 0.2867 0.4021 0.3923 0.20082 0.3448 0.3641
3944.760 0.27194 0.4603 0.5379 0.4114 0.5183 0.492 0.4055 0.4819 0.469 0.4398
3964.049 0.3252 0.4852 0.6543 0.3851 0.3713 0.5054 0.4096 0.3618 0.4648 0.4512
3983.339 0.4859 0.5154 0.4124 0.3487 0.4057 0.4708 0.4206 0.4015 0.4468 0.2976
##END=
