##TITLE=1,1,1,2-Tetrachloroethane
##JCAMP-DX=4.24
##DATA TYPE=INFRARED SPECTRUM
##ORIGIN=EPA-IR VAPOR PHASE LIBRARY
##OWNER=SRD/NIST
Collection (C) 2018 copyright by the U.S. Secretary of Commerce
on behalf of the United States of America. All rights reserved.
##CAS REGISTRY NO=630-20-6
##MOLFORM=C 2 H 2 Cl 4
##$NIST SOURCE=MSDC-IR
##STATE=gas
##XUNITS=1/CM
##YUNITS=ABSORBANCE
##XFACTOR=1.
##YFACTOR=0.001
##DELTAX=1.92898
##FIRSTX=549.8
##LASTX=4000.7
##FIRSTY=27.516
##MAXX=4000.7
##MINX=549.759
##MAXY=0.135776
##MINY=0
##NPOINTS=1790
##XYDATA=(X++(Y..Y))
549.759 27.516 26.586 23.096 20.386 19.126 17.226 14.316 10.956 7.466 4.586
569.049 2.706 1.716 1.416 1.0104 0.7607 0.8237 0.6325 0.5384 0.639 0.6932
588.339 0.7757 0.8003 0.6646 0.4109 0.3444 0.4683 0.6451 0.6943 0.8567 1.156
607.628 1.206 1.014 0.9428 0.9719 1.0885 1.0707 1.0838 1.246 1.089 0.8201
626.918 0.9143 1.0257 0.9403 1.0592 0.8894 0.7691 0.9052 0.9649 1.055 1.216
646.208 1.176 1.176 1.396 1.556 1.896 2.166 2.186 2.146 1.966 1.936
665.498 2.116 2.236 2.406 2.506 2.596 2.646 2.816 3.306 3.676 4.296
684.787 5.246 6.386 7.886 9.716 11.776 14.206 17.156 20.496 24.186 28.286
704.077 33.056 38.396 43.916 49.776 56.136 63.086 71.226 80.556 90.676 100.976
723.367 110.706 119.466 126.046 129.876 132.126 133.806 135.286 135.776 133.926 131.076
742.657 129.066 128.306 128.456 127.956 125.856 122.106 116.416 107.076 95.106 83.936
761.947 73.026 60.456 46.746 35.486 27.436 20.436 14.636 10.256 7.336 5.716
781.236 4.906 4.756 4.876 5.306 5.966 6.946 8.416 10.306 12.686 15.516
800.526 18.776 22.196 25.746 29.386 32.896 36.366 39.176 40.916 41.746 41.586
819.816 40.196 37.396 33.946 30.826 28.116 24.996 21.236 17.416 14.236 11.656
839.106 9.956 8.976 8.186 7.406 6.756 6.246 5.876 5.776 5.776 5.586
858.395 5.146 4.736 4.266 3.986 3.896 3.576 2.996 2.596 2.406 2.346
877.685 2.346 2.306 2.326 2.156 1.956 1.936 2.016 2.096 2.066 1.966
896.975 1.976 2.006 2.006 2.066 2.146 2.156 2.156 2.276 2.346 2.536
916.265 2.876 3.056 3.196 3.576 3.926 4.276 4.816 5.306 5.976 6.936
935.555 8.106 9.366 10.996 13.556 16.996 21.066 25.796 31.066 36.526 41.676
954.844 46.476 51.356 56.216 59.796 59.586 55.166 48.406 42.386 37.846 32.646
974.134 26.236 19.476 13.456 8.786 5.686 3.856 2.736 2.116 1.706 1.636
993.424 1.746 1.546 1.436 1.426 1.476 1.556 1.716 1.806 1.616 1.666
1012.714 1.896 2.006 2.266 2.656 3.006 3.346 4.006 4.886 5.236 5.756
1032.003 6.796 7.536 8.206 9.016 9.756 10.476 10.936 10.996 11.086 11.236
1051.293 10.916 10.486 9.756 8.496 7.196 6.256 5.426 4.676 4.006 3.096
1070.583 2.086 1.586 1.576 1.316 1.0367 1.316 1.396 1.0756 0.6389 0.451
1089.873 0.4934 0.3414 0.5989 0.8913 1.0554 1.0803 1.0882 1.186 1.0626 1.058
1109.163 1.236 1.246 0.955 0.5894 0.584 0.7191 0.8339 1.1036 1.1025 0.8845
1128.452 0.5516 0.5114 0.9258 0.7372 0.6183 0.7238 0.5331 0.7436 0.8148 0.411
1147.742 0.3274 0.2635 0.20049 0.16946 0.043 0.2713 0.3633 0.261 0.5149 0.7611
1167.032 0.8716 0.7862 0.5292 0.5149 0.2749 0.466 0.916 1.0071 1.316 1.846
1186.322 2.666 3.606 4.746 5.986 7.256 8.546 10.056 10.936 11.416 12.946
1205.611 14.156 14.466 13.656 11.516 9.896 8.556 7.016 5.876 4.446 3.116
1224.901 2.006 1.1069 0.728 0.57 0.2873 0 0.0813 0.15113 0.16801 0.35
1244.191 0.5655 0.7203 0.9311 0.9249 0.9441 1.196 1.396 1.506 1.746 2.256
1263.481 2.586 3.226 3.996 4.746 6.036 7.196 8.066 8.656 9.006 9.356
1282.771 10.016 9.996 9.376 8.846 7.806 6.626 5.546 4.506 3.436 2.456
1302.060 1.746 1.276 0.9843 0.7498 0.5552 0.5038 0.5246 0.4549 0.3801 0.3708
1321.350 0.3612 0.3761 0.2904 0.18459 0.18889 0.18488 0.18898 0.17835 0.1253 0.13635
1340.640 0.16196 0.155185 0.16132 0.1742 0.1341 0.1339 0.149441 0.14184 0.18426 0.19635
1359.930 0.1791 0.138 0.0981 0.0806 0.1237 0.16009 0.15697 0.19 0.20571 0.19257
1379.219 0.14351 0.16503 0.18284 0.18518 0.22642 0.23929 0.2881 0.3156 0.3726 0.4797
1398.509 0.6111 0.7605 0.9194 1.246 1.686 2.226 3.006 3.926 4.806 5.696
1417.799 6.476 7.186 8.006 9.336 10.896 10.176 8.516 8.116 7.896 7.436
1437.089 6.576 5.516 4.526 3.716 2.976 2.376 1.986 1.656 1.366 1.216
1456.378 1.0453 0.8808 0.7562 0.6054 0.541 0.5298 0.5069 0.4955 0.5524 0.5364
1475.668 0.4862 0.4671 0.4797 0.4541 0.3693 0.3722 0.4223 0.4676 0.4359 0.3573
1494.958 0.3864 0.4623 0.4342 0.4492 0.5163 0.491 0.4999 0.5361 0.5445 0.5256
1514.248 0.4981 0.4823 0.4066 0.4022 0.4671 0.4309 0.3803 0.4063 0.4638 0.4859
1533.538 0.5215 0.5094 0.4832 0.4957 0.4928 0.5065 0.4308 0.4089 0.4649 0.4408
1552.827 0.4423 0.4491 0.4483 0.4751 0.3537 0.3256 0.3712 0.301 0.3158 0.3633
1572.117 0.3269 0.2795 0.3076 0.4083 0.3941 0.2896 0.2736 0.3257 0.3954 0.3741
1591.407 0.3457 0.391 0.3894 0.3468 0.3276 0.2771 0.2545 0.3364 0.3076 0.3029
1610.697 0.3462 0.3135 0.3008 0.2693 0.21938 0.23007 0.23168 0.2474 0.301 0.22885
1629.986 0.22766 0.21462 0.17625 0.21339 0.13706 0.1338 0.16379 0.13969 0.209 0.21675
1649.276 0.1871 0.18259 0.16437 0.15608 0.20658 0.2472 0.20888 0.21377 0.18033 0.1914
1668.566 0.254 0.2703 0.21928 0.1825 0.17098 0.1804 0.23181 0.23151 0.20176 0.20766
1687.856 0.21752 0.15797 0.1137 0.155708 0.17515 0.16224 0.147359 0.154377 0.152414 0.16557
1707.146 0.15676 0.14064 0.1434 0.0928 0.1355 0.18166 0.18385 0.1796 0.17716 0.16877
1726.435 0.152646 0.18381 0.21815 0.20256 0.17614 0.16294 0.20099 0.2486 0.2612 0.2646
1745.725 0.2568 0.2947 0.267 0.2165 0.2607 0.3302 0.3541 0.3226 0.3083 0.2896
1765.015 0.3025 0.3456 0.3582 0.287 0.2777 0.3195 0.3005 0.3309 0.3489 0.314
1784.305 0.21501 0.18644 0.23348 0.21769 0.17407 0.17688 0.17586 0.18625 0.17594 0.150627
1803.594 0.18215 0.21201 0.18092 0.14882 0.147574 0.17066 0.19895 0.18891 0.153347 0.17807
1822.884 0.2516 0.22056 0.15718 0.148715 0.19223 0.19612 0.20053 0.20752 0.16934 0.16847
1842.174 0.17453 0.152442 0.14685 0.18185 0.20641 0.17328 0.15703 0.153563 0.1291 0.1043
1861.464 0.1065 0.1275 0.16201 0.20404 0.147998 0.0907 0.1192 0.0775 0.041 0.124
1880.754 0.18625 0.17484 0.1086 0.0841 0.1375 0.15795 0.1138 0.13623 0.1317 0.15692
1900.043 0.152557 0.0824 0.1016 0.0665 0.0513 0.1188 0.16927 0.1232 0.0982 0.1281
1919.333 0.1311 0.17933 0.21251 0.18732 0.20423 0.216 0.20185 0.19491 0.20424 0.2152
1938.623 0.22598 0.269 0.24552 0.18008 0.16594 0.18295 0.18248 0.17404 0.20533 0.16575
1957.913 0.1238 0.150172 0.18147 0.24539 0.2694 0.21046 0.24131 0.3061 0.2752 0.2465
1977.202 0.23095 0.23716 0.2666 0.2864 0.2921 0.2638 0.2574 0.2637 0.18396 0.16707
1996.492 0.19306 0.20925 0.3141 0.3138 0.23032 0.21196 0.21809 0.20189 0.18508 0.1168
2015.782 0.0874 0.1028 0.0755 0.1258 0.21474 0.22635 0.17664 0.14437 0.16283 0.20365
2035.072 0.2036 0.20833 0.19101 0.16796 0.16925 0.17441 0.1357 0.1142 0.18225 0.22425
2054.362 0.24121 0.24366 0.2525 0.2563 0.2699 0.2998 0.3495 0.3824 0.3804 0.3822
2073.651 0.3677 0.3684 0.3953 0.4057 0.3433 0.3514 0.401 0.4035 0.4163 0.4254
2092.941 0.3761 0.3346 0.3969 0.4219 0.3703 0.3362 0.3189 0.3732 0.3709 0.2953
2112.231 0.2688 0.2935 0.3041 0.2621 0.2518 0.284 0.3131 0.3004 0.3512 0.3194
2131.521 0.21793 0.2692 0.4108 0.4087 0.3604 0.3815 0.4033 0.4092 0.3385 0.2854
2150.810 0.298 0.3323 0.3838 0.4229 0.4558 0.497 0.4344 0.3073 0.338 0.3942
2170.100 0.3565 0.3356 0.286 0.22605 0.21396 0.24051 0.2591 0.24466 0.2079 0.23973
2189.390 0.23645 0.23954 0.2941 0.2757 0.2508 0.2636 0.2649 0.2553 0.21828 0.22578
2208.680 0.2599 0.17267 0.1012 0.134 0.16003 0.1264 0.154118 0.2766 0.2833 0.21846
2227.970 0.16694 0.16996 0.24226 0.2784 0.2861 0.2793 0.3585 0.3915 0.3297 0.3075
2247.259 0.2896 0.3056 0.2531 0.19042 0.2575 0.22812 0.20078 0.22264 0.19562 0.21386
2266.549 0.24348 0.2899 0.2765 0.18997 0.150733 0.152638 0.152424 0.149 0.155533 0.151941
2285.839 0.13904 0.18477 0.20166 0.15723 0.152436 0.18878 0.24552 0.2487 0.21 0.19221
2305.129 0.21996 0.24461 0.21101 0.2552 0.2874 0.21601 0.23935 0.2775 0.2993 0.294
2324.418 0.23617 0.2648 0.3085 0.2764 0.3157 0.3725 0.3203 0.21671 0.2673 0.3319
2343.708 0.2997 0.252 0.2508 0.32 0.3194 0.302 0.23066 0.23051 0.3102 0.3334
2362.998 0.3147 0.3402 0.4469 0.4748 0.4507 0.4112 0.404 0.4339 0.446 0.4469
2382.288 0.3822 0.3804 0.379 0.35 0.3313 0.3262 0.3501 0.2556 0.2227 0.2618
2401.578 0.2932 0.352 0.355 0.3602 0.3508 0.3322 0.2874 0.21439 0.21683 0.262
2420.867 0.3519 0.31 0.23642 0.23977 0.2463 0.2819 0.3199 0.4118 0.3561 0.23557
2440.157 0.22321 0.24002 0.23519 0.2677 0.326 0.3151 0.2982 0.2932 0.3122 0.321
2459.447 0.3036 0.3488 0.39 0.3964 0.3991 0.3997 0.374 0.3936 0.4961 0.542
2478.737 0.4504 0.3734 0.374 0.3576 0.317 0.2477 0.20529 0.18513 0.155457 0.19153
2498.026 0.2344 0.22394 0.23031 0.22961 0.19569 0.22597 0.2462 0.21755 0.21065 0.3037
2517.316 0.3535 0.24095 0.1333 0.1084 0.1602 0.2462 0.3097 0.21182 0.1178 0.20771
2536.606 0.3086 0.3324 0.3232 0.3227 0.3233 0.2657 0.23347 0.2533 0.23645 0.2517
2555.896 0.254 0.3011 0.3348 0.2594 0.23897 0.2908 0.3181 0.2864 0.2522 0.17553
2575.186 0.14254 0.14429 0.1322 0.18567 0.2531 0.3171 0.3 0.274 0.23562 0.16474
2594.475 0.2021 0.21787 0.2475 0.3699 0.3855 0.2598 0.14256 0.18309 0.2777 0.24064
2613.765 0.19062 0.2568 0.269 0.23822 0.2885 0.2648 0.2845 0.3196 0.309 0.2692
2633.055 0.2565 0.23857 0.2573 0.3153 0.2695 0.2797 0.2833 0.3009 0.364 0.3101
2652.345 0.20736 0.2727 0.3754 0.1987 0.16178 0.2907 0.21897 0.23247 0.3426 0.414
2671.634 0.335 0.19164 0.23442 0.2677 0.24004 0.3517 0.4093 0.3964 0.3665 0.2709
2690.924 0.345 0.4339 0.3684 0.3543 0.4338 0.4507 0.4194 0.4309 0.401 0.4681
2710.214 0.5315 0.5434 0.5123 0.372 0.2845 0.2961 0.2552 0.2698 0.3286 0.2465
2729.504 0.20887 0.23516 0.2852 0.3124 0.3217 0.3564 0.3491 0.3543 0.3632 0.291
2748.794 0.3013 0.283 0.2848 0.22484 0.16162 0.2844 0.2805 0.2634 0.2912 0.2602
2768.083 0.2597 0.2916 0.275 0.2732 0.3345 0.3916 0.4195 0.3038 0.331 0.4893
2787.373 0.4193 0.2818 0.22855 0.3515 0.4872 0.4641 0.3827 0.2962 0.3119 0.3707
2806.663 0.3768 0.3033 0.3076 0.3724 0.3531 0.3885 0.3555 0.24025 0.3891 0.6871
2825.953 0.7258 0.6479 0.7481 0.8197 0.782 0.7911 0.8356 0.8325 0.7909 0.7557
2845.242 0.7391 0.7117 0.5838 0.5127 0.4676 0.3776 0.4481 0.5545 0.4624 0.24498
2864.532 0.22174 0.361 0.4962 0.5227 0.4024 0.4391 0.3925 0.2664 0.2985 0.3604
2883.822 0.4436 0.3457 0.3008 0.3671 0.3044 0.2963 0.2867 0.3265 0.3614 0.3325
2903.112 0.3049 0.21924 0.20391 0.296 0.3414 0.3095 0.3906 0.4362 0.325 0.3409
2922.401 0.3316 0.2988 0.2955 0.149988 0.20034 0.349 0.3326 0.3904 0.5219 0.6204
2941.691 0.5689 0.5237 0.7027 0.9743 1.0201 1.0309 1.186 1.306 1.826 2.516
2960.981 3.196 4.186 5.366 6.326 6.736 6.546 6.846 8.546 8.096 6.186
2980.271 5.926 5.826 5.146 4.016 2.896 2.056 1.466 0.9251 0.648 0.6215
2999.561 0.63 0.5914 0.4583 0.4443 0.538 0.6695 0.562 0.3073 0.17822 0.24176
3018.850 0.3749 0.2682 0.2979 0.4328 0.4082 0.3835 0.4148 0.384 0.4209 0.4142
3038.140 0.2718 0.3877 0.3851 0.329 0.422 0.3613 0.3157 0.3167 0.3167 0.4269
3057.430 0.5507 0.4638 0.3595 0.3426 0.3681 0.4077 0.4412 0.384 0.322 0.4204
3076.720 0.4123 0.3371 0.388 0.4564 0.3158 0.276 0.3399 0.363 0.4033 0.4792
3096.009 0.5068 0.4047 0.4377 0.4686 0.4654 0.3921 0.2899 0.19586 0.21272 0.4098
3115.299 0.4564 0.4408 0.556 0.4478 0.3287 0.4038 0.4697 0.5237 0.6128 0.5678
3134.589 0.5722 0.5698 0.3741 0.2662 0.22684 0.4735 0.4852 0.343 0.3804 0.4013
3153.879 0.4583 0.4275 0.2669 0.3287 0.4332 0.367 0.4002 0.4426 0.4948 0.4513
3173.169 0.3773 0.2612 0.15594 0.15684 0.0904 0.18261 0.338 0.39 0.4485 0.5209
3192.458 0.6695 0.5822 0.3472 0.3944 0.4975 0.503 0.5607 0.5718 0.4566 0.4903
3211.748 0.5471 0.4036 0.5086 0.5095 0.475 0.6402 0.6176 0.5884 0.5267 0.4117
3231.038 0.3573 0.3483 0.3628 0.2844 0.16126 0.2562 0.4401 0.6106 0.5854 0.4541
3250.328 0.4414 0.3768 0.4366 0.5251 0.518 0.3973 0.3054 0.3446 0.4316 0.5847
3269.617 0.6446 0.5219 0.4449 0.5278 0.4735 0.4834 0.3904 0.345 0.3989 0.4746
3288.907 0.6281 0.589 0.4612 0.4197 0.5177 0.4852 0.3777 0.4442 0.3261 0.2717
3308.197 0.4445 0.3669 0.3602 0.4842 0.4729 0.4955 0.6024 0.6477 0.6019 0.4222
3327.487 0.4673 0.4486 0.3886 0.481 0.3997 0.4061 0.373 0.3488 0.4083 0.3587
3346.777 0.4435 0.587 0.5875 0.4822 0.5755 0.6147 0.6154 0.665 0.4971 0.5134
3366.066 0.5291 0.4427 0.4742 0.3234 0.3527 0.5551 0.4352 0.3737 0.459 0.5801
3385.356 0.6101 0.5275 0.4599 0.5073 0.5137 0.3462 0.283 0.3839 0.369 0.3028
3404.646 0.3356 0.3238 0.3087 0.3084 0.3317 0.378 0.4418 0.3215 0.2535 0.409
3423.936 0.4267 0.4216 0.4526 0.4659 0.4472 0.4202 0.402 0.3939 0.3916 0.4226
3443.225 0.4135 0.4034 0.3403 0.3142 0.3356 0.3388 0.3915 0.5179 0.5149 0.3326
3462.515 0.3355 0.1628 0.1128 0.4063 0.5402 0.38 0.3797 0.4642 0.3926 0.3525
3481.805 0.3509 0.4179 0.4358 0.3313 0.2476 0.2834 0.21931 0.4296 0.5319 0.4182
3501.095 0.5022 0.5514 0.4854 0.3408 0.4396 0.343 0.2496 0.435 0.4237 0.3866
3520.385 0.5206 0.5576 0.4801 0.2576 0.13927 0.3411 0.5117 0.6077 0.4609 0.4542
3539.674 0.6445 0.5185 0.4954 0.5245 0.4358 0.2871 0.20516 0.3042 0.4107 0.6364
3558.964 0.5192 0.23104 0.3924 0.4174 0.3119 0.2832 0.23874 0.429 0.4925 0.3398
3578.254 0.3866 0.4292 0.412 0.4796 0.4574 0.371 0.2744 0.285 0.216 0.24494
3597.544 0.5579 0.518 0.4887 0.5824 0.3958 0.3521 0.25 0.20095 0.23975 0.18754
3616.833 0.3054 0.3957 0.4296 0.4636 0.3656 0.4106 0.6472 0.6007 0.4211 0.3605
3636.123 0.3701 0.392 0.3231 0.22904 0.2561 0.4095 0.5005 0.4671 0.3793 0.4972
3655.413 0.6147 0.5041 0.3117 0.23881 0.19726 0.19511 0.297 0.3066 0.4277 0.4255
3674.703 0.3732 0.682 0.8056 0.657 0.6539 0.4909 0.2776 0.2601 0.3143 0.3258
3693.993 0.3895 0.3796 0.393 0.5655 0.5419 0.5564 0.4141 0.2526 0.3253 0.4289
3713.282 0.4404 0.277 0.3806 0.465 0.4714 0.499 0.4543 0.5359 0.4264 0.5106
3732.572 0.5641 0.3502 0.20457 0.3252 0.5432 0.6582 0.6897 0.5582 0.4048 0.3251
3751.862 0.4976 0.6097 0.4042 0.3993 0.4954 0.3763 0.5625 0.7179 0.5763 0.5969
3771.152 0.6928 0.6719 0.7864 0.7434 0.7085 0.6875 0.6337 0.6884 0.5801 0.5894
3790.441 0.628 0.5949 0.5918 0.6392 0.6985 0.671 0.6204 0.3867 0.3819 0.5282
3809.731 0.6254 0.7056 0.5276 0.4703 0.4401 0.4554 0.4316 0.4417 0.5429 0.4945
3829.021 0.4161 0.4068 0.4658 0.5202 0.4527 0.23818 0.3426 0.5666 0.5459 0.5503
3848.311 0.6255 0.5947 0.607 0.5964 0.4656 0.478 0.5243 0.541 0.6819 0.6312
3867.601 0.563 0.646 0.4427 0.318 0.3496 0.4065 0.4778 0.6415 0.6082 0.3865
3886.890 0.4782 0.6062 0.4595 0.2674 0.289 0.262 0.24228 0.4564 0.6557 0.6074
3906.180 0.4635 0.3273 0.3713 0.5372 0.6275 0.6061 0.5627 0.6548 0.5948 0.4779
3925.470 0.6218 0.7239 0.621 0.4946 0.564 0.5663 0.6599 0.7338 0.5831 0.6947
3944.760 0.844 0.779 0.6976 0.7207 0.6067 0.5386 0.4416 0.3239 0.4604 0.5082
3964.049 0.4281 0.4951 0.632 0.6321 0.7128 0.7285 0.6815 0.8828 0.9302 0.8009
3983.339 0.6948 0.6855 0.7413 0.6044 0.6127 0.6751 0.6054 0.6802 0.7288 0.7283
##END=
