##TITLE=Dibromoacetic acid
##JCAMP-DX=4.24
##DATA TYPE=INFRARED SPECTRUM
##ORIGIN=EPA-IR VAPOR PHASE LIBRARY
##OWNER=SRD/NIST
Collection (C) 2018 copyright by the U.S. Secretary of Commerce
on behalf of the United States of America. All rights reserved.
##CAS REGISTRY NO=631-64-1
##MOLFORM=C 2 H 2 Br 2 O 2
##$NIST SOURCE=MSDC-IR
##STATE=gas
##XUNITS=1/CM
##YUNITS=ABSORBANCE
##XFACTOR=1.
##YFACTOR=0.001
##DELTAX=1.92898
##FIRSTX=549.8
##LASTX=4000.7
##FIRSTY=7.266
##MAXX=4000.7
##MINX=549.759
##MAXY=0.092806
##MINY=0
##NPOINTS=1790
##XYDATA=(X++(Y..Y))
549.759 7.266 7.526 7.756 8.456 8.926 9.296 9.476 9.896 10.166 10.376
569.049 11.156 11.786 12.446 13.486 14.856 16.196 18.386 20.756 23.326 26.436
588.339 29.576 32.986 36.576 41.056 47.986 50.316 47.516 47.516 48.866 50.076
607.628 50.946 51.876 53.546 55.786 58.046 59.386 59.206 58.756 58.446 56.726
626.918 53.246 49.106 44.306 39.026 34.436 30.596 27.506 25.436 24.306 23.526
646.208 23.436 23.876 23.796 23.806 23.986 23.826 23.416 22.426 21.336 19.996
665.498 18.686 18.506 16.776 14.306 12.996 12.216 11.846 11.296 11.056 11.206
684.787 11.376 11.506 11.506 11.716 11.996 12.056 12.196 12.506 12.736 12.726
704.077 12.686 12.486 12.046 11.626 11.256 10.746 10.136 9.726 9.446 9.046
723.367 8.546 8.266 8.146 8.136 8.216 8.246 8.526 8.676 8.886 9.196
742.657 9.216 9.526 9.716 9.706 9.696 9.706 9.666 9.566 9.616 9.626
761.947 9.586 9.456 9.396 9.416 9.306 9.416 9.666 9.426 9.286 9.246
781.236 8.766 8.256 7.786 7.156 6.456 5.706 5.036 4.586 4.166 3.656
800.526 3.306 3.116 2.896 2.786 2.796 2.706 2.436 2.326 2.376 2.316
819.816 2.286 2.206 2.096 2.156 2.276 2.156 2.006 1.956 1.906 1.986
839.106 1.816 1.666 1.756 1.706 1.756 1.886 1.946 2.046 2.186 2.336
858.395 2.426 2.476 2.496 2.586 2.816 2.916 2.736 2.826 2.916 2.696
877.685 2.736 2.796 2.576 2.306 2.356 2.416 2.156 2.036 2.016 1.886
896.975 1.706 1.716 1.676 1.656 1.676 1.616 1.656 1.636 1.656 1.656
916.265 1.616 1.5492 1.4661 1.4125 1.4629 1.5384 1.626 1.666 1.746 1.786
935.555 1.666 1.5463 1.5119 1.594 1.4527 1.4959 1.5891 1.4494 1.4645 1.4787
954.844 1.3951 1.4409 1.4672 1.3249 1.279 1.3085 1.3074 1.2785 1.3884 1.3756
974.134 1.2522 1.3238 1.3241 1.4291 1.5002 1.4141 1.4863 1.5846 1.5938 1.5631
993.424 1.3931 1.4276 1.686 1.776 1.756 1.836 1.996 1.866 1.926 2.126
1012.714 2.216 2.286 2.326 2.566 2.626 2.496 2.436 2.506 2.606 2.576
1032.003 2.666 3.126 3.376 3.486 3.526 3.616 3.956 4.166 4.126 4.596
1051.293 5.056 5.306 5.806 6.026 6.446 6.746 7.186 8.056 9.206 10.726
1070.583 12.146 13.856 15.946 18.446 21.226 24.626 28.976 33.756 38.886 44.236
1089.873 49.526 54.396 59.146 62.606 64.676 66.046 65.546 62.866 59.686 55.796
1109.163 51.126 46.156 40.866 36.606 33.556 31.296 30.536 31.036 31.606 32.266
1128.452 33.066 34.286 36.236 38.106 40.136 42.796 45.686 48.736 51.486 54.306
1147.742 56.766 58.316 59.616 59.726 58.456 56.296 52.966 49.176 44.886 39.976
1167.032 35.566 31.496 27.516 23.836 20.546 18.036 15.906 14.186 13.076 12.026
1186.322 11.466 11.246 10.676 10.006 9.656 9.476 9.296 9.226 9.346 9.726
1205.611 9.996 10.126 10.606 10.806 11.056 11.726 12.016 12.376 12.596 12.596
1224.901 12.846 12.656 12.176 11.906 11.546 11.246 10.816 10.516 10.276 9.786
1244.191 9.346 8.986 8.766 8.516 8.216 7.966 7.786 7.796 7.826 7.876
1263.481 7.766 7.796 8.016 7.846 7.946 8.316 8.516 8.686 9.146 9.566
1282.771 9.696 10.116 10.886 11.506 11.976 12.466 13.056 13.836 14.726 15.686
1302.060 16.826 18.086 19.206 20.296 21.466 22.616 23.576 24.406 24.986 24.926
1321.350 24.266 23.206 21.986 20.766 19.506 18.136 16.746 15.616 14.796 14.246
1340.640 13.966 14.036 14.436 15.096 15.946 16.856 17.796 18.746 19.506 20.046
1359.930 20.426 20.536 20.286 19.686 18.716 17.306 15.616 13.806 12.006 10.336
1379.219 8.826 7.426 6.106 5.086 4.306 3.646 3.126 2.806 2.556 2.316
1398.509 2.216 2.166 2.086 1.996 1.916 1.796 1.746 1.746 1.656 1.646
1417.799 1.656 1.606 1.6004 1.5865 1.5182 1.4836 1.4753 1.4841 1.4674 1.3842
1437.089 1.334 1.3049 1.2508 1.2135 1.1582 1.0989 1.0853 1.0465 0.9973 1.0349
1456.378 1.0379 0.9373 0.93 0.9761 0.9678 0.9303 0.9707 1.0106 1.0336 1.0616
1475.668 1.0158 0.9921 1.0004 1.0287 1.011 1.0109 0.9994 1.0233 1.0128 0.9715
1494.958 1.0464 1.049 1.0648 1.079 1.0753 1.0945 1.0034 0.9493 1.0113 1.0467
1514.248 1.0359 1.0245 1.0187 1.0339 1.0289 0.9896 0.9656 0.9433 0.9346 0.967
1533.538 0.9651 0.9434 0.9563 1.0159 1.1007 1.0662 1.0995 1.162 1.1951 1.1973
1552.827 1.1523 1.23 1.29 1.3623 1.5013 1.4724 1.4073 1.5235 1.5715 1.5853
1572.117 1.6113 1.5457 1.5437 1.521 1.4515 1.4591 1.3928 1.2826 1.2501 1.2452
1591.407 1.2467 1.1939 1.087 0.9654 0.9471 1.003 1.0573 1.0341 1.0421 1.0197
1610.697 0.8805 0.9453 0.9342 0.8683 0.9026 0.8859 0.9721 1.0793 1.07 1.003
1629.986 0.9721 1.0309 1.0462 1.01 1.0559 1.0797 1.092 1.1178 1.1529 1.1799
1649.276 1.1517 1.1581 1.1115 1.1126 1.1092 1.0022 0.9231 0.9403 0.9879 0.9607
1668.566 0.9512 0.9549 0.8808 0.9079 0.9858 1.0297 1.1068 1.0905 1.0791 1.1621
1687.856 1.3049 1.3854 1.3758 1.5039 1.686 1.776 1.966 2.146 2.306 2.526
1707.146 2.786 3.046 3.316 3.696 4.086 4.526 5.016 5.616 6.356 7.096
1726.435 7.996 8.916 9.856 10.936 12.096 13.206 14.356 15.626 16.786 18.056
1745.725 19.526 21.026 22.596 24.316 26.196 28.476 31.196 34.206 37.886 42.256
1765.015 47.296 53.236 59.686 66.066 72.586 78.766 84.266 88.736 91.736 92.806
1784.305 91.296 87.396 82.606 78.366 74.666 70.976 67.366 64.346 62.366 61.406
1803.594 60.816 59.516 56.826 52.946 49.016 45.556 42.036 38.206 34.146 30.086
1822.884 26.326 22.896 19.846 17.246 14.986 13.016 11.316 9.856 8.646 7.616
1842.174 6.616 5.856 5.346 4.866 4.416 4.016 3.606 3.296 3.016 2.706
1861.464 2.456 2.206 2.046 1.926 1.786 1.666 1.5119 1.3671 1.3275 1.3029
1880.754 1.2887 1.2402 1.1627 1.1739 1.159 1.0946 0.9911 0.928 0.9878 1.0027
1900.043 1.0113 1.0403 1.0727 1.0717 1.0086 0.9623 0.9319 0.9539 0.9383 0.8897
1919.333 0.8799 0.8733 0.8033 0.7731 0.8482 0.8356 0.8186 0.9178 0.9009 0.8623
1938.623 0.8543 0.8419 0.8822 0.8788 0.8607 0.8627 0.8885 0.907 0.8759 0.8611
1957.913 0.9302 0.9647 0.987 1.0361 1.0703 1.0518 1.0164 1.0465 1.0647 1.0344
1977.202 1.044 1.1243 1.1121 1.0577 1.0335 1.1037 1.1587 1.1569 1.1533 1.0819
1996.492 1.0791 1.0247 0.9861 1.0371 1.0187 1.013 1.0279 1.0141 0.9567 0.9562
2015.782 0.9932 1.0305 1.1071 1.1125 1.0738 1.0218 0.9661 0.9129 0.9793 0.9782
2035.072 0.9291 0.8626 0.7583 0.8182 0.7756 0.7596 0.7566 0.66472 0.69031 0.63841
2054.362 0.63481 0.619877 0.66354 0.7709 0.67051 0.70882 0.69479 0.74 0.70605 0.66076
2073.651 0.746 0.7389 0.8013 0.68289 0.7593 0.7191 0.7474 0.7981 0.8243 0.8761
2092.941 0.7505 0.8491 0.7939 0.847 0.8012 0.9009 0.8409 0.8302 0.8534 0.7907
2112.231 0.8599 0.8773 0.9002 0.8959 0.901 0.8481 0.9105 0.8728 0.8934 0.8796
2131.521 0.9058 0.8372 0.7408 0.69985 0.7223 0.69129 0.63728 0.68957 0.6935 0.8083
2150.810 0.9376 0.905 0.9016 0.9639 0.9577 0.9688 1.0003 0.994 1.0734 1.1115
2170.100 1.0745 1.1418 1.2541 1.2452 1.2574 1.3147 1.317 1.3498 1.3502 1.3562
2189.390 1.3188 1.2745 1.3022 1.2694 1.2281 1.2306 1.1832 1.0283 0.9937 1.1019
2208.680 1.0946 0.9281 0.8623 0.8108 0.7479 0.7935 0.8644 0.9015 0.8762 0.8345
2227.970 0.7413 0.68113 0.67803 0.67434 0.69548 0.66773 0.68527 0.70636 0.64052 0.72
2247.259 0.7431 0.70254 0.71214 0.65138 0.593 0.67876 0.7299 0.7418 0.8524 0.9297
2266.549 0.8735 0.8195 0.9466 1.1058 1.1715 1.1531 1.165 1.2532 1.2962 1.3499
2285.839 1.4754 1.5825 1.595 1.646 1.776 1.916 2.086 2.236 2.386 2.506
2305.129 2.636 2.816 2.976 3.166 3.286 3.306 3.446 3.646 3.726 3.806
2324.418 3.906 3.866 3.916 3.906 3.706 3.616 3.586 3.546 3.496 3.376
2343.708 3.276 3.116 2.796 2.736 3.116 3.606 4.076 4.396 4.576 4.756
2362.998 4.886 4.956 4.816 4.616 4.396 4.066 3.656 3.166 2.726 2.286
2382.288 1.776 1.4633 1.2718 1.0144 0.8333 0.68589 0.64816 0.7199 0.65862 0.5518
2401.578 0.5593 0.63208 0.71371 0.7391 0.71044 0.6732 0.64291 0.6451 0.70326 0.7748
2420.867 0.7534 0.7391 0.7564 0.7523 0.7698 0.7876 0.8244 0.9293 0.9094 0.8921
2440.157 0.8762 0.864 0.8892 0.7907 0.8889 0.9286 0.8368 0.8697 0.8139 0.7655
2459.447 0.7914 0.8143 0.8114 0.8196 0.8428 0.8079 0.7879 0.7876 0.7955 0.8119
2478.737 0.8411 0.8865 0.8127 0.7296 0.7518 0.763 0.7409 0.8309 0.8341 0.7777
2498.026 0.754 0.7294 0.70267 0.64445 0.65612 0.68203 0.7631 0.69125 0.5794 0.5719
2517.316 0.5422 0.5722 0.6052 0.597 0.5707 0.617381 0.6883 0.61267 0.5615 0.61438
2536.606 0.5968 0.5441 0.508 0.6149 0.60723 0.49 0.5359 0.5848 0.65406 0.67619
2555.896 0.5837 0.47 0.5287 0.5351 0.456 0.435 0.431 0.468 0.478 0.5694
2575.186 0.65908 0.63301 0.61129 0.5904 0.452 0.391 0.451 0.5326 0.5292 0.507
2594.475 0.495 0.493 0.5519 0.451 0.365 0.429 0.485 0.5355 0.5338 0.475
2613.765 0.439 0.5342 0.63358 0.5421 0.499 0.5592 0.5663 0.5282 0.498 0.425
2633.055 0.376 0.411 0.31 0.301 0.427 0.488 0.453 0.429 0.57 0.5811
2652.345 0.51 0.492 0.465 0.429 0.498 0.61554 0.503 0.35 0.265 0.256
2671.634 0.306 0.48 0.64143 0.5419 0.48 0.5444 0.5795 0.433 0.433 0.5251
2690.924 0.485 0.48 0.5902 0.6007 0.512 0.509 0.488 0.442 0.404 0.454
2710.214 0.458 0.419 0.386 0.359 0.403 0.455 0.429 0.353 0.358 0.441
2729.504 0.466 0.5788 0.5442 0.438 0.481 0.512 0.431 0.319 0.295 0.347
2748.794 0.436 0.5308 0.5348 0.331 0.307 0.377 0.417 0.441 0.32 0.303
2768.083 0.272 0.24 0.342 0.461 0.435 0.386 0.342 0.357 0.372 0.345
2787.373 0.401 0.329 0.362 0.324 0.292 0.49 0.64801 0.5655 0.459 0.395
2806.663 0.342 0.353 0.454 0.478 0.394 0.332 0.267 0.5243 0.64256 0.513
2825.953 0.493 0.396 0.316 0.301 0.306 0.404 0.5218 0.499 0.5561 0.5895
2845.242 0.495 0.5384 0.492 0.412 0.429 0.388 0.345 0.39 0.474 0.5612
2864.532 0.61339 0.63372 0.5841 0.5274 0.5531 0.65071 0.65158 0.64966 0.6962 0.5936
2883.822 0.5631 0.5357 0.619166 0.7585 0.7225 0.69934 0.7384 0.67881 0.5596 0.5478
2903.112 0.5664 0.61464 0.7007 0.70701 0.70256 0.7541 0.8426 0.8603 0.7555 0.7772
2922.401 0.7766 0.7486 0.763 0.66651 0.6058 0.60733 0.5386 0.5689 0.64453 0.65454
2941.691 0.8022 0.9347 0.9415 0.7574 0.757 0.7992 0.7297 0.8006 0.767 0.68944
2960.981 0.7759 0.9811 0.9191 0.7851 0.8609 0.8037 0.6734 0.7987 0.9354 1.0046
2980.271 1.0702 1.0335 0.9004 0.829 0.7614 0.66921 0.721 0.7953 0.8495 0.9253
2999.561 0.9 0.8944 0.9376 0.9715 1.0753 1.1291 1.1763 1.1848 1.1857 1.3149
3018.850 1.393 1.4464 1.5411 1.4367 1.4294 1.567 1.6085 1.666 1.656 1.696
3038.140 1.866 1.926 2.016 2.156 2.196 2.176 2.166 2.006 1.706 1.5276
3057.430 1.4344 1.4307 1.2876 1.1181 0.9737 0.8618 0.8806 0.8595 0.7909 0.8345
3076.720 0.8842 0.7976 0.7953 0.70752 0.5749 0.6058 0.5882 0.617625 0.65274 0.7542
3096.009 0.8759 0.7529 0.515 0.407 0.422 0.511 0.5188 0.483 0.483 0.417
3115.299 0.5226 0.509 0.358 0.217 0.106 0.154 0.283 0.451 0.478 0.414
3134.589 0.412 0.363 0.453 0.496 0.399 0.332 0.328 0.438 0.403 0.324
3153.879 0.421 0.496 0.322 0.245 0.266 0.165 0.171 0.392 0.512 0.428
3173.169 0.338 0.279 0.272 0.389 0.409 0.286 0.327 0.374 0.345 0.288
3192.458 0.246 0.283 0.318 0.208 0.336 0.516 0.3 0.223 0.189 0.064
3211.748 0 0.033 0.279 0.285 0.243 0.458 0.481 0.477 0.5546 0.411
3231.038 0.342 0.442 0.476 0.426 0.45 0.507 0.316 0.137 0.202 0.469
3250.328 0.465 0.333 0.28 0.204 0.274 0.401 0.463 0.349 0.201 0.298
3269.617 0.452 0.503 0.5256 0.513 0.33 0.299 0.377 0.341 0.388 0.331
3288.907 0.386 0.408 0.255 0.128 0.262 0.494 0.464 0.35 0.425 0.5273
3308.197 0.5631 0.61239 0.60902 0.62775 0.493 0.348 0.422 0.41 0.429 0.5303
3327.487 0.404 0.342 0.412 0.367 0.382 0.425 0.397 0.436 0.485 0.484
3346.777 0.414 0.38 0.489 0.5879 0.438 0.303 0.342 0.338 0.316 0.405
3366.066 0.462 0.462 0.472 0.448 0.445 0.5 0.5661 0.61286 0.5691 0.333
3385.356 0.292 0.205 0.17 0.346 0.317 0.319 0.251 0.223 0.427 0.5887
3404.646 0.463 0.29 0.5575 0.65225 0.477 0.5628 0.481 0.404 0.345 0.206
3423.936 0.251 0.28 0.333 0.5348 0.69474 0.491 0.5599 0.8034 0.70345 0.7286
3443.225 0.71209 0.507 0.5596 0.5233 0.491 0.477 0.387 0.454 0.507 0.5264
3462.515 0.41 0.447 0.511 0.5767 0.487 0.483 0.7956 0.8819 0.8809 0.9419
3481.805 0.9144 0.9835 1.1114 1.0683 1.0258 1.0258 1.262 1.4146 1.3723 1.636
3501.095 1.716 1.726 1.896 1.956 2.026 2.006 2.096 2.246 2.336 2.546
3520.385 2.786 2.886 3.096 3.326 3.436 3.456 3.376 3.576 3.896 3.976
3539.674 4.026 4.216 4.416 4.746 5.286 5.746 6.256 7.056 8.026 9.756
3558.964 12.286 15.576 20.196 25.926 32.396 39.176 45.586 50.816 54.536 57.086
3578.254 58.596 59.496 59.116 56.156 50.576 43.426 35.636 28.446 22.426 17.256
3597.544 12.916 9.606 7.316 5.506 4.326 3.756 3.286 2.706 2.346 2.236
3616.833 2.216 2.026 1.676 1.5519 1.4741 1.2762 1.2869 1.2154 0.9494 0.8473
3636.123 0.8267 0.8387 0.8299 0.9141 0.836 0.7495 0.7387 0.5837 0.6975 0.9694
3655.413 0.8905 0.68679 0.62768 0.70421 0.67599 0.65608 0.66243 0.66827 0.6844 0.485
3674.703 0.5248 0.63809 0.5657 0.557 0.5933 0.64388 0.5859 0.467 0.481 0.465
3693.993 0.431 0.5493 0.573 0.493 0.481 0.5275 0.65782 0.7814 0.68169 0.483
3713.282 0.495 0.425 0.347 0.621682 0.7324 0.70347 0.8537 0.8867 0.7747 0.7618
3732.572 0.7884 0.8566 0.8201 0.8031 0.9035 0.7168 0.5898 0.5959 0.63689 0.65572
3751.862 0.497 0.459 0.466 0.409 0.512 0.603 0.536 0.508 0.463 0.401
3771.152 0.421 0.376 0.431 0.515 0.5 0.437 0.266 0.153 0.151 0.303
3790.441 0.468 0.49 0.419 0.477 0.5784 0.521 0.418 0.279 0.361 0.485
3809.731 0.327 0.269 0.318 0.5865 0.63134 0.263 0.196 0.3 0.442 0.442
3829.021 0.416 0.35 0.273 0.51 0.68303 0.5901 0.42 0.374 0.491 0.66496
3848.311 0.5823 0.404 0.35 0.227 0.252 0.267 0.152 0.192 0.309 0.277
3867.601 0.099 0.224 0.311 0.208 0.185 0.333 0.406 0.388 0.362 0.264
3886.890 0.329 0.352 0.509 0.492 0.426 0.466 0.356 0.394 0.5502 0.5622
3906.180 0.384 0.17 0.146 0.336 0.312 0.25 0.335 0.238 0.327 0.422
3925.470 0.364 0.284 0.176 0.362 0.47 0.349 0.306 0.363 0.461 0.445
3944.760 0.3 0.372 0.439 0.271 0.219 0.204 0.151 0.215 0.174 0.232
3964.049 0.506 0.5393 0.303 0.06 0.103 0.4 0.5231 0.512 0.377 0.273
3983.339 0.31 0.353 0.5329 0.454 0.294 0.304 0.314 0.499 0.5852 0.489
##END=
