##TITLE=4-Chloro-2-butanone
##JCAMP-DX=4.24
##DATA TYPE=INFRARED SPECTRUM
##ORIGIN=EPA-IR VAPOR PHASE LIBRARY
##OWNER=SRD/NIST
Collection (C) 2018 copyright by the U.S. Secretary of Commerce
on behalf of the United States of America. All rights reserved.
##CAS REGISTRY NO=6322-49-2
##MOLFORM=C 4 H 7 Cl O
##$NIST SOURCE=MSDC-IR
##STATE=gas
##XUNITS=1/CM
##YUNITS=ABSORBANCE
##XFACTOR=1.
##YFACTOR=0.001
##DELTAX=1.92898
##FIRSTX=549.8
##LASTX=4000.7
##FIRSTY=1.634
##MAXX=4000.7
##MINX=549.759
##MAXY=0.034754
##MINY=0
##NPOINTS=1790
##XYDATA=(X++(Y..Y))
549.759 1.634 1.644 1.724 1.844 1.994 2.414 2.744 3.024 3.164 3.514
569.049 3.984 3.794 3.694 3.614 3.594 3.674 3.634 3.494 3.264 2.964
588.339 2.634 2.474 1.984 1.574 1.574 1.374 1.1275 1.0212 0.9429 0.8293
607.628 0.7903 0.8677 0.7825 0.6541 0.7091 0.6718 0.7471 0.8865 0.734 0.6481
626.918 0.7055 0.6735 0.6548 0.6536 0.7037 0.8596 0.89 1.021 1.254 1.524
646.208 1.834 1.894 1.854 2.234 2.724 2.864 2.984 3.324 3.744 3.884
665.498 3.954 4.204 4.224 4.144 4.174 4.094 3.814 3.554 3.164 2.594
684.787 2.194 1.884 1.614 1.414 1.444 1.464 1.244 1.1849 1.0691 0.9404
704.077 0.991 1.0897 1.201 1.244 1.454 1.724 1.974 2.194 2.504 2.974
723.367 3.424 3.964 4.514 5.034 5.454 5.614 5.754 5.904 5.934 5.884
742.657 5.824 5.454 4.864 4.294 3.534 2.644 1.864 1.394 1.0347 0.9519
761.947 0.9416 0.7753 0.8179 0.7656 0.6745 0.6741 0.6418 0.6215 0.6011 0.5417
781.236 0.5142 0.6836 0.7964 0.8292 0.806 0.7651 0.79 0.7885 0.83 0.8649
800.526 0.8427 0.8554 1.0004 1.0469 1.0595 1.1047 1.0343 1.0714 1.1062 0.962
819.816 0.9998 1.0913 1.113 1.324 1.534 1.494 1.454 1.574 1.594 1.564
839.106 1.634 1.494 1.434 1.584 1.554 1.434 1.294 1.1375 1.0689 1.0315
858.395 1.1422 1.1688 1.0239 1.0689 1.0617 0.9726 0.8895 0.8568 0.8732 1.0736
877.685 1.224 1.2084 1.234 1.2144 1.2097 1.1742 1.1063 1.1384 1.0802 1.0717
896.975 1.244 1.1757 1.1734 1.304 1.334 1.1905 1.1077 1.224 1.294 1.254
916.265 1.324 1.374 1.434 1.554 1.464 1.494 1.574 1.614 1.674 1.734
935.555 1.874 1.944 1.814 1.884 2.274 2.494 2.404 2.334 2.424 2.264
954.844 2.314 2.334 2.204 2.374 2.344 2.334 2.374 2.374 2.414 2.364
974.134 2.354 2.384 2.334 2.284 2.294 2.254 2.384 2.444 2.384 2.444
993.424 2.384 2.274 2.204 2.064 2.114 2.174 2.244 2.234 2.194 2.264
1012.714 2.274 2.164 2.174 2.164 1.904 1.834 1.784 1.834 1.854 1.704
1032.003 1.504 1.454 1.414 1.464 1.734 1.614 1.454 1.584 1.434 1.354
1051.293 1.384 1.674 1.994 1.824 1.734 1.574 1.484 1.374 1.189 1.364
1070.583 1.484 1.394 1.494 1.564 1.394 1.003 1.1472 1.364 1.0066 0.72
1089.873 0.7163 0.9266 1.234 1.494 1.384 1.344 1.0158 0.832 0.948 1.0637
1109.163 1.274 1.374 1.634 1.494 1.724 2.334 2.454 2.754 3.214 3.394
1128.452 3.684 4.214 4.504 5.134 6.024 6.904 7.874 8.964 9.704 10.074
1147.742 10.674 11.144 11.984 12.814 13.124 13.334 13.284 13.104 13.004 12.774
1167.032 12.394 12.064 11.684 11.184 10.664 10.434 10.274 10.154 10.054 10.174
1186.322 10.394 10.144 10.104 10.144 9.974 9.684 9.284 8.904 8.434 8.144
1205.611 7.814 7.514 7.364 6.814 6.464 6.294 5.894 5.684 5.604 5.244
1224.901 4.774 4.514 4.414 4.134 4.004 3.964 3.754 3.424 3.174 3.124
1244.191 3.014 3.004 2.994 2.874 2.804 2.704 2.724 2.704 2.554 2.474
1263.481 2.464 2.524 2.364 2.184 2.104 2.174 2.254 2.124 2.214 2.494
1282.771 2.734 3.044 3.354 3.654 4.054 4.384 4.594 4.964 5.354 5.654
1302.060 5.984 6.394 6.824 7.204 7.554 7.924 8.314 8.654 9.004 9.394
1321.350 9.744 10.054 10.374 10.674 11.004 11.334 11.644 11.934 12.184 12.424
1340.640 12.704 13.024 13.414 13.894 14.484 15.284 16.164 17.004 17.804 18.334
1359.930 18.614 18.784 18.784 18.644 18.334 17.834 17.104 16.114 14.874 13.394
1379.219 11.864 10.474 9.294 8.284 7.474 6.854 6.464 6.214 6.044 5.944
1398.509 5.924 5.914 5.944 6.084 6.204 6.334 6.444 6.574 6.684 6.754
1417.799 6.794 6.774 6.724 6.724 6.694 6.664 6.674 6.644 6.584 6.464
1437.089 6.344 6.224 6.054 5.904 5.714 5.504 5.234 4.934 4.714 4.444
1456.378 4.124 3.904 3.694 3.394 3.134 2.984 2.794 2.634 2.494 2.334
1475.668 2.244 2.164 2.074 1.964 1.834 1.774 1.784 1.744 1.664 1.594
1494.958 1.604 1.594 1.534 1.524 1.554 1.584 1.584 1.584 1.524 1.514
1514.248 1.544 1.534 1.484 1.504 1.634 1.674 1.634 1.594 1.564 1.574
1533.538 1.584 1.544 1.504 1.544 1.574 1.564 1.524 1.494 1.424 1.394
1552.827 1.454 1.414 1.404 1.404 1.344 1.284 1.254 1.274 1.254 1.1988
1572.117 1.1351 1.1435 1.1814 1.0785 1.0851 1.1462 1.1012 1.0092 0.9152 0.9766
1591.407 1.0165 0.9879 1.0005 0.978 0.9801 0.9705 0.9156 0.9186 0.9311 0.9281
1610.697 0.9474 0.9992 1.0107 0.9103 0.8282 0.8723 0.9559 0.943 0.9341 0.9813
1629.986 0.9616 0.9463 0.9313 0.9357 1.0003 1.0723 1.0046 0.9147 0.9522 0.9874
1649.276 1.0945 1.1697 1.1569 1.2071 1.294 1.354 1.424 1.494 1.644 1.784
1668.566 1.934 2.114 2.304 2.574 2.764 3.064 3.464 3.844 4.214 4.574
1687.856 5.004 5.494 6.074 6.674 7.334 8.064 8.904 9.874 10.844 11.984
1707.146 13.284 14.744 16.224 17.764 19.444 21.344 23.354 25.334 27.384 29.324
1726.435 31.004 32.404 33.364 33.934 34.314 34.564 34.754 34.614 33.974 32.854
1745.725 31.054 28.824 26.344 23.664 21.054 18.604 16.274 14.194 12.304 10.564
1765.015 8.954 7.554 6.334 5.354 4.544 3.854 3.314 2.914 2.634 2.434
1784.305 2.184 1.954 1.824 1.654 1.504 1.374 1.254 1.1474 1.1048 1.0826
1803.594 1.0195 0.9731 0.8957 0.8722 0.8557 0.7683 0.7202 0.7226 0.6939 0.6223
1822.884 0.5901 0.5717 0.5738 0.5826 0.5444 0.5229 0.5433 0.5742 0.5388 0.464
1842.174 0.4404 0.4279 0.4509 0.4707 0.4399 0.4114 0.395 0.42 0.4494 0.426
1861.464 0.3875 0.3622 0.3714 0.4322 0.448 0.4231 0.4181 0.4068 0.3596 0.3845
1880.754 0.4432 0.431 0.4089 0.4209 0.4459 0.3971 0.3545 0.3958 0.3994 0.3763
1900.043 0.3815 0.3916 0.4194 0.3764 0.3277 0.3713 0.3653 0.3573 0.3497 0.3316
1919.333 0.336 0.3329 0.3684 0.3683 0.3874 0.3893 0.3271 0.27314 0.27851 0.32062
1938.623 0.29688 0.27106 0.30042 0.31047 0.26934 0.24729 0.25822 0.2724 0.2922 0.29895
1957.913 0.29297 0.32265 0.31788 0.27526 0.28387 0.256 0.25303 0.27836 0.26733 0.27983
1977.202 0.29285 0.28593 0.28071 0.227725 0.1769 0.1846 0.1946 0.26438 0.28117 0.28971
1996.492 0.29556 0.25736 0.26815 0.25294 0.2155 0.217 0.25691 0.2752 0.27667 0.29146
2015.782 0.3083 0.27834 0.229103 0.198 0.2032 0.25772 0.208 0.1609 0.24551 0.25785
2035.072 0.26257 0.28688 0.25311 0.224993 0.26119 0.25971 0.23905 0.27922 0.30455 0.30216
2054.362 0.28665 0.30508 0.28451 0.27068 0.30005 0.27586 0.30626 0.3455 0.3511 0.3463
2073.651 0.3436 0.3386 0.30812 0.28578 0.27965 0.3552 0.4093 0.3867 0.3845 0.3781
2092.941 0.336 0.3564 0.3982 0.4133 0.4137 0.4184 0.455 0.4103 0.4031 0.4083
2112.231 0.3493 0.3318 0.3287 0.3756 0.3974 0.3494 0.30624 0.28972 0.25614 0.230244
2131.521 0.227379 0.24035 0.27082 0.28887 0.30237 0.31074 0.29619 0.2774 0.28407 0.30503
2150.810 0.2832 0.27482 0.30468 0.30541 0.30502 0.2676 0.27837 0.29645 0.3038 0.3427
2170.100 0.3174 0.29041 0.28559 0.3287 0.3453 0.32101 0.28757 0.2593 0.28909 0.30299
2189.390 0.2586 0.26205 0.27834 0.29757 0.31307 0.28995 0.231406 0.2075 0.2657 0.24648
2208.680 0.1955 0.1567 0.151 0.2137 0.2078 0.1682 0.2015 0.2011 0.1895 0.1863
2227.970 0.1971 0.2138 0.1912 0.1629 0.1875 0.1733 0.1707 0.23945 0.2933 0.2612
2247.259 0.1819 0.1984 0.23808 0.2055 0.227164 0.2656 0.227057 0.1806 0.1765 0.1752
2266.549 0.21542 0.233228 0.19 0.2087 0.209 0.1794 0.2062 0.225653 0.225152 0.23653
2285.839 0.21483 0.21544 0.2128 0.25319 0.3018 0.29359 0.31967 0.2709 0.24294 0.30878
2305.129 0.3307 0.30114 0.31556 0.3389 0.30409 0.224154 0.229836 0.26901 0.1804 0.1776
2324.418 0.23869 0.25458 0.26621 0.25503 0.21939 0.27159 0.3262 0.30033 0.23988 0.22779
2343.708 0.24809 0.24629 0.21705 0.24642 0.232702 0.1801 0.24125 0.25331 0.205 0.2015
2362.998 0.223518 0.27531 0.3349 0.32339 0.29902 0.26153 0.26363 0.25096 0.1715 0.1978
2382.288 0.23767 0.1923 0.226522 0.28794 0.24212 0.1884 0.1783 0.1805 0.25028 0.24035
2401.578 0.223386 0.27362 0.2356 0.2102 0.233913 0.2193 0.1464 0.119 0.1698 0.2031
2420.867 0.1869 0.1738 0.197 0.1642 0.1246 0.1284 0.1303 0.1576 0.22226 0.228969
2440.157 0.21 0.25054 0.28019 0.24742 0.24109 0.27327 0.231203 0.1911 0.177 0.1571
2459.447 0.1666 0.1756 0.1549 0.1933 0.26009 0.26636 0.26026 0.23818 0.2208 0.23662
2478.737 0.25538 0.2554 0.24884 0.27319 0.25138 0.22072 0.223929 0.24403 0.23584 0.2059
2498.026 0.1603 0.1603 0.233504 0.26605 0.207 0.1514 0.1816 0.26128 0.28683 0.25348
2517.316 0.2103 0.23719 0.28066 0.24596 0.2006 0.103 0.1635 0.21566 0.1551 0.1905
2536.606 0.22012 0.25891 0.2492 0.1927 0.21756 0.2097 0.184 0.1544 0.121 0.1268
2555.896 0.1695 0.1737 0.1515 0.1717 0.1984 0.21613 0.2108 0.1632 0.1332 0.1318
2575.186 0.1581 0.1407 0.1379 0.233381 0.223989 0.1896 0.2045 0.2074 0.223842 0.1892
2594.475 0.1311 0.102 0.1987 0.28418 0.2119 0.1959 0.229123 0.23472 0.1994 0.1651
2613.765 0.1745 0.2048 0.23813 0.1964 0.18 0.23839 0.229693 0.227552 0.2103 0.1607
2633.055 0.104 0.092 0.1505 0.1863 0.1882 0.201 0.1789 0.1415 0.1709 0.24075
2652.345 0.232362 0.121 0.114 0.1507 0.1373 0.1324 0.1771 0.226983 0.2025 0.21542
2671.634 0.1966 0.25734 0.415 0.4548 0.3581 0.30837 0.3358 0.29037 0.22825 0.24141
2690.924 0.29452 0.3328 0.32328 0.28785 0.27109 0.29384 0.3513 0.27607 0.1996 0.227091
2710.214 0.28042 0.31093 0.2939 0.3197 0.31351 0.24305 0.23875 0.30823 0.4067 0.4372
2729.504 0.3663 0.28372 0.2107 0.1458 0.199 0.3282 0.30292 0.228124 0.25555 0.29389
2748.794 0.3566 0.4848 0.473 0.3392 0.30873 0.3557 0.4043 0.4038 0.39 0.3761
2768.083 0.28705 0.31926 0.3916 0.5453 0.5523 0.31529 0.25787 0.27396 0.3245 0.366
2787.373 0.4313 0.4881 0.4731 0.4476 0.4226 0.5235 0.5464 0.4641 0.4592 0.4163
2806.663 0.4387 0.532 0.5354 0.5787 0.5818 0.5302 0.6297 0.7694 0.66 0.4309
2825.953 0.4058 0.4717 0.5088 0.5242 0.5685 0.5556 0.5831 0.694 0.7643 0.8092
2845.242 0.7588 0.6685 0.6632 0.6861 0.6915 0.7986 0.8899 0.9061 1.0136 1.1204
2864.532 1.1923 1.1502 1.0862 1.1455 1.2137 1.1981 1.254 1.364 1.464 1.584
2883.822 1.744 1.864 1.924 1.944 2.014 2.184 2.304 2.304 2.294 2.524
2903.112 2.784 2.904 2.914 2.964 3.154 3.234 3.334 3.504 3.534 3.584
2922.401 3.694 3.804 3.854 3.774 3.694 3.704 3.814 3.804 3.774 3.774
2941.691 3.754 3.804 3.844 3.844 3.894 4.014 4.074 4.104 4.294 4.604
2960.981 4.904 5.154 5.314 5.424 5.494 5.524 5.544 5.644 5.794 5.804
2980.271 5.764 5.614 5.364 5.164 4.894 4.644 4.614 4.694 4.704 4.574
2999.561 4.304 4.154 4.154 4.184 4.134 4.094 4.074 4.104 3.964 3.704
3018.850 3.634 3.574 3.374 3.064 2.914 2.814 2.534 2.284 2.194 2.134
3038.140 1.924 1.774 1.734 1.674 1.574 1.534 1.574 1.424 1.294 1.224
3057.430 1.2049 1.2232 1.264 1.244 1.1258 1.1271 1.254 1.2134 1.2224 1.274
3076.720 1.1969 1.1883 1.1501 1.0413 1.0825 1.131 1.0011 1.0072 1.11 1.1287
3096.009 1.0323 0.9843 0.9404 0.8964 0.92 0.8557 0.7716 0.7035 0.6781 0.5914
3115.299 0.5919 0.5191 0.439 0.5445 0.48 0.4541 0.4599 0.4233 0.4841 0.4633
3134.589 0.25723 0.1986 0.29573 0.32013 0.28976 0.2423 0.1688 0.1869 0.30091 0.3257
3153.879 0.3636 0.3887 0.3415 0.1563 0.041 0.168 0.27593 0.27518 0.30911 0.336
3173.169 0.28407 0.31218 0.3257 0.21542 0.1578 0.22161 0.21582 0.26391 0.30301 0.21505
3192.458 0.21419 0.1783 0.1758 0.1953 0.1697 0.2006 0.108 0.011 0.1988 0.24176
3211.748 0.13 0.1521 0.2003 0.225719 0.31936 0.25933 0.116 0.1991 0.23498 0.1434
3231.038 0.1636 0.1748 0.2044 0.1728 0.1369 0.225951 0.1811 0.24463 0.21705 0.08
3250.328 0.1262 0.1639 0.25636 0.29703 0.25199 0.22309 0.1522 0.1295 0.1611 0.23184
3269.617 0.228306 0.1627 0.1323 0.1563 0.2918 0.24348 0.032 0.077 0.1877 0.232235
3288.907 0.1973 0.1247 0.084 0.118 0.2891 0.27885 0.2116 0.2053 0.165 0.226049
3308.197 0.26169 0.26402 0.24837 0.1688 0.22034 0.3594 0.3197 0.29721 0.28173 0.1771
3327.487 0.114 0.1323 0.21952 0.1453 0.112 0.231909 0.1927 0.1703 0.21818 0.1839
3346.777 0.3337 0.30675 0.166 0.1629 0.1611 0.23975 0.230638 0.1454 0.1804 0.23802
3366.066 0.26253 0.29572 0.24463 0.2085 0.1811 0.2137 0.3407 0.3904 0.23693 0.24967
3385.356 0.3807 0.3838 0.4623 0.3805 0.30681 0.3606 0.3524 0.4543 0.5262 0.4749
3404.646 0.4799 0.4583 0.4535 0.4078 0.4 0.5288 0.5203 0.5712 0.6674 0.6298
3423.936 0.553 0.5946 0.6991 0.6621 0.6871 0.7304 0.6992 0.8118 0.8593 0.9311
3443.225 0.9735 0.8727 0.9651 1.0053 0.849 0.8543 0.9497 0.9421 0.9504 0.9024
3462.515 0.8802 0.883 0.7657 0.7157 0.7632 0.8084 0.7227 0.628 0.6152 0.453
3481.805 0.4153 0.6263 0.5895 0.4403 0.5474 0.5334 0.4027 0.3706 0.31965 0.3081
3501.095 0.25411 0.23949 0.3849 0.417 0.3578 0.28671 0.30288 0.30154 0.2131 0.1873
3520.385 0.24213 0.3404 0.3862 0.4295 0.4136 0.29624 0.1808 0.1615 0.23945 0.2593
3539.674 0.12 0.095 0.27618 0.1959 0.195 0.3573 0.2564 0.2067 0.32386 0.27665
3558.964 0.072 0.09 0.21586 0.1725 0.084 0.2014 0.1887 0.22273 0.3615 0.1928
3578.254 0.053 0.1282 0.1788 0.1497 0.2444 0.2523 0.1842 0.1358 0.1248 0.223196
3597.544 0.1936 0.1605 0.1976 0.29845 0.3839 0.3438 0.1952 0.106 0.1552 0.1931
3616.833 0.23428 0.27654 0.1741 0.1606 0.1804 0.087 0.117 0.1471 0.1668 0.1996
3636.123 0.119 0.077 0.122 0.1524 0.1776 0.229832 0.21795 0.2084 0.28692 0.26888
3655.413 0.325 0.4146 0.1774 0 0.24026 0.21973 0.042 0.21647 0.2822 0.28922
3674.703 0.3328 0.29676 0.24072 0.085 0.1299 0.31779 0.3974 0.25299 0.1428 0.177
3693.993 0.30277 0.3895 0.26212 0.27416 0.2097 0.1434 0.1667 0.093 0.1452 0.2014
3713.282 0.23862 0.27494 0.2385 0.23172 0.26718 0.3467 0.3491 0.231591 0.2038 0.24304
3732.572 0.1253 0.1466 0.28825 0.223153 0.28137 0.30016 0.1406 0.1979 0.3965 0.3657
3751.862 0.225239 0.230075 0.27624 0.3307 0.30792 0.225299 0.1377 0.1354 0.1314 0.093
3771.152 0.095 0.1668 0.2014 0.082 0.1623 0.28333 0.230009 0.227384 0.25006 0.227417
3790.441 0.3206 0.3755 0.28698 0.26671 0.28691 0.2357 0.28406 0.28452 0.2062 0.3402
3809.731 0.29761 0.1712 0.2068 0.2043 0.1623 0.2013 0.2127 0.1428 0.1316 0.1777
3829.021 0.1535 0.28905 0.3732 0.22111 0.1734 0.2455 0.1778 0.224733 0.31453 0.30052
3848.311 0.31187 0.1678 0.082 0.122 0.2114 0.25475 0.195 0.26889 0.31943 0.1835
3867.601 0.25049 0.26299 0.25688 0.26898 0.21747 0.29909 0.3359 0.28746 0.3457 0.29844
3886.890 0.233225 0.4069 0.4005 0.3564 0.3849 0.29836 0.1771 0.185 0.3722 0.31912
3906.180 0.31401 0.3175 0.25674 0.3659 0.27844 0.1837 0.3913 0.489 0.3615 0.4921
3925.470 0.4051 0.23701 0.25334 0.1904 0.1677 0.038 0.033 0.1488 0.1556 0.1615
3944.760 0.1866 0.114 0.1354 0.3661 0.3569 0.26602 0.28391 0.29387 0.3254 0.3667
3964.049 0.4193 0.3728 0.3651 0.3445 0.1951 0.26956 0.31555 0.26168 0.3259 0.31157
3983.339 0.1748 0.23841 0.25796 0.24009 0.28001 0.22124 0.3599 0.412 0.4198 0.30766
##END=
