##TITLE=2-Amylamine
##JCAMP-DX=4.24
##DATA TYPE=INFRARED SPECTRUM
##ORIGIN=EPA-IR VAPOR PHASE LIBRARY
##OWNER=SRD/NIST
Collection (C) 2018 copyright by the U.S. Secretary of Commerce
on behalf of the United States of America. All rights reserved.
##CAS REGISTRY NO=63493-28-7
##MOLFORM=C 5 H 13 N
##$NIST SOURCE=MSDC-IR
##STATE=gas
##XUNITS=1/CM
##YUNITS=ABSORBANCE
##XFACTOR=1.
##YFACTOR=0.001
##DELTAX=1.92934
##FIRSTX=549.9
##LASTX=3999.5
##FIRSTY=5.3
##MAXX=3999.53
##MINX=549.863
##MAXY=0.17508
##MINY=0
##NPOINTS=1789
##XYDATA=(X++(Y..Y))
549.863 5.3 5.39 5.5 5.59 5.87 6.04 5.98 5.96 6.15 6.26
569.156 6.21 6.37 6.54 6.65 6.7 6.58 6.7 6.87 6.72 6.53
588.450 6.54 6.45 6.55 6.65 6.45 6.44 6.52 6.51 6.43 6.4
607.743 6.51 6.6 6.65 6.66 6.63 6.71 6.84 6.93 6.97 7.12
627.037 7.05 7.04 7.26 7.39 7.51 7.62 7.83 7.87 7.76 7.75
646.330 8.1 8.22 8.21 8.47 8.6 8.57 8.57 8.68 8.9 9.18
665.624 9.32 9.39 9.71 10.03 10.12 10.13 10.06 10.33 10.89 11.13
684.917 11.12 11.33 11.59 11.77 11.97 12.22 12.6 12.82 12.98 13.29
704.210 13.64 14.07 14.51 14.97 15.42 15.94 16.45 16.94 17.59 18.21
723.504 18.9 19.74 20.58 21.34 22.12 22.88 23.72 24.7 25.61 26.57
742.797 27.49 28.49 29.62 30.74 31.88 33.07 34.4 35.86 37.43 39.11
762.091 40.94 42.67 44.38 46.34 48.3 50.29 52.21 53.97 55.55 56.73
781.384 57.46 57.99 58.15 57.86 57.3 56.38 55.14 53.6 51.7 49.54
800.678 47.19 44.59 41.93 39.43 36.96 34.53 32.24 30.19 28.33 26.6
819.971 25.01 23.59 22.46 21.43 20.48 19.71 18.97 18.29 17.7 17.11
839.264 16.56 16.08 15.52 15.08 14.66 14.17 13.68 13.19 12.78 12.38
858.558 11.97 11.64 11.37 11.03 10.72 10.48 10.24 10.11 9.99 9.9
877.851 9.93 9.87 9.73 9.62 9.59 9.47 9.36 9.33 9.3 9.24
897.145 9.05 8.8 8.62 8.45 8.19 7.93 7.64 7.34 7.08 6.76
916.438 6.51 6.29 6.06 5.96 5.9 5.8 5.76 5.66 5.59 5.6
935.732 5.68 5.67 5.66 5.72 5.71 5.72 5.71 5.65 5.67 5.72
955.025 5.68 5.65 5.61 5.54 5.48 5.43 5.39 5.31 5.27 5.26
974.318 5.2 5.18 5.23 5.27 5.31 5.34 5.37 5.48 5.6 5.71
993.612 5.95 6.14 6.3 6.5 6.64 6.81 7.02 7.22 7.33 7.52
1012.905 7.73 7.8 7.87 7.94 7.98 8.01 8 8.05 8.02 7.9
1032.199 7.83 7.79 7.77 7.64 7.49 7.4 7.36 7.3 7.28 7.29
1051.492 7.18 7.13 7.11 7.06 7.09 7.1 7.04 6.99 6.94 6.91
1070.786 6.88 6.83 6.73 6.7 6.73 6.76 6.78 6.74 6.76 6.78
1090.079 6.81 6.92 7.07 7.25 7.49 7.7 7.93 8.3 8.66 8.99
1109.372 9.36 9.69 10.04 10.45 10.88 11.28 11.69 12.11 12.48 12.92
1128.666 13.39 13.9 14.46 15 15.56 16.14 16.69 17.22 17.75 18.12
1147.959 18.22 18.19 18.12 17.87 17.48 17 16.38 15.65 14.87 13.97
1167.253 12.97 11.93 10.86 9.99 9.24 8.46 7.79 7.28 6.81 6.42
1186.546 6.15 5.99 5.83 5.74 5.7 5.63 5.61 5.63 5.62 5.66
1205.840 5.74 5.71 5.68 5.68 5.61 5.64 5.72 5.79 5.81 5.74
1225.133 5.71 5.74 5.82 5.87 5.9 5.97 6 6.02 6.03 6.03
1244.426 6.03 6 5.94 5.87 5.88 5.86 5.79 5.76 5.74 5.72
1263.720 5.65 5.61 5.62 5.61 5.58 5.53 5.56 5.55 5.49 5.51
1283.013 5.53 5.52 5.47 5.42 5.49 5.55 5.63 5.74 5.78 5.94
1302.307 6.17 6.41 6.63 6.9 7.25 7.54 7.95 8.37 8.75 9.22
1321.600 9.69 10.18 10.7 11.23 11.72 12.13 12.58 13.06 13.64 14.19
1340.894 14.69 15.25 15.78 16.26 16.75 17.29 17.9 18.56 19.35 20.26
1360.187 21.27 22.33 23.31 24.26 25.19 25.96 26.45 26.72 26.79 26.72
1379.480 26.55 26.29 25.76 24.8 23.65 22.49 21.24 19.87 18.36 16.8
1398.774 15.3 13.93 12.7 11.61 10.71 9.9 9.33 8.92 8.53 8.28
1418.067 8.19 8.23 8.42 8.72 9.09 9.57 10.22 10.86 11.59 12.45
1437.361 13.37 14.31 15.26 16.27 17.26 18.18 19.1 19.95 20.66 21.23
1456.654 21.63 21.77 21.75 21.6 21.26 20.84 20.31 19.65 18.94 18.14
1475.948 17.23 16.28 15.45 14.55 13.61 12.73 11.82 11.03 10.26 9.49
1495.241 8.92 8.37 7.85 7.42 6.97 6.61 6.4 6.15 5.88 5.66
1514.534 5.54 5.44 5.29 5.25 5.27 5.09 4.96 4.91 4.84 4.84
1533.828 4.89 4.91 4.91 4.94 4.97 4.96 4.93 4.95 4.96 5.01
1553.121 5.12 5.19 5.26 5.35 5.37 5.48 5.68 5.82 6 6.25
1572.415 6.42 6.63 6.95 7.27 7.61 7.98 8.43 8.89 9.38 9.95
1591.708 10.64 11.39 12.12 12.96 13.86 14.79 15.76 16.64 17.53 18.43
1611.002 19.13 19.69 20.12 20.46 20.65 20.6 20.45 20.16 19.67 19.03
1630.295 18.32 17.53 16.59 15.49 14.38 13.35 12.32 11.36 10.43 9.6
1649.588 8.83 8.15 7.5 6.88 6.4 5.96 5.57 5.23 4.93 4.65
1668.882 4.44 4.19 3.99 3.88 3.8 3.65 3.46 3.36 3.29 3.18
1688.175 3.067 2.9842 2.9318 2.9063 2.7942 2.7433 2.8137 2.8152 2.7303 2.6027
1707.469 2.5475 2.5854 2.5813 2.5466 2.5212 2.5052 2.4638 2.3831 2.3521 2.3397
1726.762 2.3288 2.3254 2.3813 2.3758 2.2963 2.246 2.2309 2.275 2.2539 2.2292
1746.056 2.17517 2.11369 2.11533 2.10671 2.09184 2.09728 2.0493 2.0155 2.0628 2.0852
1765.349 2.0724 2.047 2.0249 1.96 1.913 1.975 2.0374 2.0249 1.98 1.984
1784.642 1.976 1.957 1.962 1.972 1.959 1.902 1.919 1.97 1.953 1.913
1803.936 1.91 1.885 1.868 1.892 1.885 1.903 1.896 1.882 1.885 1.889
1823.229 1.878 1.795 1.722 1.763 1.817 1.823 1.808 1.762 1.756 1.751
1842.523 1.786 1.853 1.861 1.787 1.77 1.793 1.718 1.685 1.69 1.691
1861.816 1.698 1.637 1.599 1.591 1.61 1.626 1.597 1.6 1.616 1.554
1881.110 1.538 1.529 1.487 1.523 1.527 1.51 1.51 1.521 1.501 1.452
1900.403 1.48 1.53 1.504 1.428 1.356 1.405 1.439 1.427 1.45 1.436
1919.696 1.433 1.454 1.46 1.444 1.451 1.417 1.411 1.422 1.412 1.402
1938.990 1.362 1.4 1.415 1.396 1.395 1.367 1.356 1.372 1.331 1.27
1958.283 1.302 1.35 1.346 1.368 1.393 1.338 1.28 1.266 1.237 1.23
1977.577 1.265 1.231 1.223 1.284 1.271 1.247 1.285 1.303 1.25 1.192
1996.870 1.212 1.268 1.275 1.247 1.224 1.198 1.183 1.23 1.274 1.285
2016.164 1.314 1.319 1.286 1.244 1.248 1.3 1.338 1.292 1.316 1.344
2035.457 1.298 1.301 1.321 1.373 1.396 1.364 1.319 1.313 1.384 1.345
2054.750 1.277 1.347 1.344 1.327 1.321 1.281 1.28 1.312 1.32 1.3
2074.044 1.267 1.267 1.298 1.255 1.214 1.252 1.24 1.194 1.208 1.176
2093.337 1.182 1.213 1.174 1.193 1.244 1.238 1.196 1.226 1.248 1.195
2112.631 1.204 1.255 1.267 1.223 1.198 1.224 1.229 1.217 1.238 1.257
2131.924 1.243 1.221 1.219 1.238 1.301 1.313 1.298 1.31 1.256 1.235
2151.218 1.258 1.247 1.251 1.259 1.298 1.323 1.324 1.313 1.303 1.309
2170.511 1.287 1.313 1.363 1.38 1.362 1.348 1.371 1.353 1.36 1.374
2189.804 1.332 1.305 1.298 1.303 1.34 1.375 1.371 1.366 1.367 1.36
2209.098 1.341 1.318 1.332 1.394 1.397 1.337 1.362 1.391 1.4 1.417
2228.391 1.368 1.326 1.345 1.327 1.325 1.342 1.275 1.28 1.315 1.303
2247.685 1.316 1.292 1.339 1.368 1.318 1.334 1.362 1.355 1.334 1.355
2266.978 1.349 1.346 1.389 1.429 1.414 1.355 1.367 1.386 1.345 1.314
2286.272 1.291 1.327 1.356 1.322 1.305 1.311 1.301 1.264 1.259 1.263
2305.565 1.293 1.334 1.33 1.295 1.297 1.357 1.364 1.359 1.353 1.374
2324.858 1.461 1.469 1.459 1.468 1.462 1.462 1.489 1.482 1.481 1.535
2344.152 1.548 1.536 1.495 1.464 1.535 1.63 1.623 1.585 1.567 1.553
2363.445 1.555 1.5 1.466 1.51 1.572 1.547 1.54 1.632 1.612 1.567
2382.739 1.58 1.549 1.542 1.576 1.562 1.58 1.608 1.642 1.628 1.596
2402.032 1.595 1.573 1.56 1.55 1.535 1.508 1.573 1.632 1.617 1.587
2421.326 1.571 1.575 1.558 1.614 1.594 1.497 1.523 1.557 1.473 1.431
2440.619 1.512 1.533 1.463 1.455 1.489 1.483 1.462 1.437 1.407 1.428
2459.912 1.46 1.403 1.398 1.456 1.418 1.377 1.37 1.39 1.44 1.414
2479.206 1.413 1.46 1.435 1.39 1.397 1.443 1.432 1.411 1.455 1.471
2498.499 1.477 1.49 1.478 1.491 1.507 1.525 1.56 1.572 1.564 1.535
2517.793 1.565 1.59 1.627 1.681 1.651 1.654 1.653 1.664 1.699 1.707
2537.086 1.733 1.743 1.758 1.767 1.787 1.771 1.784 1.906 1.964 1.994
2556.380 2.0275 2.0525 2.0716 2.0865 2.13192 2.2262 2.2692 2.2725 2.34 2.4232
2575.673 2.429 2.4354 2.4623 2.5028 2.5988 2.6525 2.6781 2.7264 2.7386 2.7569
2594.966 2.7869 2.797 2.8796 2.8954 2.8757 2.9589 3.0399 3.0405 2.9988 3.0234
2614.260 3.0807 3.13 3.18 3.2 3.2 3.29 3.37 3.39 3.42 3.43
2633.553 3.47 3.54 3.6 3.62 3.68 3.68 3.72 3.78 3.8 3.85
2652.847 3.84 3.85 3.91 3.89 3.84 3.82 3.81 3.83 3.94 3.96
2672.140 3.91 3.9 3.88 3.95 3.96 3.87 3.88 3.9 3.92 3.91
2691.434 3.86 3.92 3.98 3.98 4.03 4.14 4.15 4.18 4.26 4.25
2710.727 4.34 4.47 4.58 4.66 4.81 4.89 5 5.16 5.22 5.24
2730.020 5.32 5.35 5.45 5.59 5.56 5.58 5.75 5.8 5.75 5.75
2749.314 5.76 5.8 5.83 5.74 5.66 5.63 5.63 5.64 5.57 5.6
2768.607 5.73 5.84 5.9 5.98 6.13 6.18 6.26 6.52 6.81 7.03
2787.901 7.25 7.45 7.59 7.93 8.37 8.7 9.07 9.55 10.04 10.49
2807.194 11 11.53 12.14 12.85 13.64 14.42 15.38 16.51 17.56 18.65
2826.488 19.84 21.28 22.82 24.37 26.06 27.82 29.69 31.58 33.49 35.39
2845.781 37.29 39.23 41.24 43.22 45.12 47.14 49.19 51.23 53.49 55.96
2865.074 58.66 61.42 64.4 67.68 70.6 72.99 74.77 75.97 77.13 78.57
2884.368 80.14 81.36 82.53 83.92 85.24 86.5 87.74 89.06 90.68 92.6
2903.661 94.77 97.34 100.23 103.31 106.65 109.98 113.09 116.1 118.93 121.37
2922.955 123.54 125.66 127.52 129.15 130.57 131.53 132.06 132.36 132.6 132.94
2942.248 133.92 135.56 137.97 141.39 145.61 150.58 156.04 161.43 166.18 170.1
2961.542 173.19 175.08 174.11 170.25 166.2 162.13 156.28 148.56 139.31 128.55
2980.835 116.5 103.76 91.28 79.42 68.63 59.25 50.98 43.71 37.48 32.21
3000.128 27.63 23.86 20.69 18.13 16.26 15 13.86 12.65 11.71 10.92
3019.422 10.46 10.06 9.68 9.35 8.86 8.57 8.26 7.91 7.68 7.38
3038.715 7.16 7.01 6.83 6.59 6.44 6.24 5.85 5.62 5.56 5.4
3058.009 5.29 5.15 4.89 4.71 4.65 4.68 4.67 4.48 4.35 4.34
3077.302 4.33 4.45 4.41 4.33 4.34 4.21 4.06 4.05 4.09 3.96
3096.596 3.79 3.76 3.75 3.59 3.53 3.3 3.12 3.22 3.22 3.15
3115.889 3.0727 2.915 2.7892 2.8053 2.7205 2.7357 2.7488 2.647 2.5882 2.7249
3135.182 2.8348 2.6759 2.5606 2.5282 2.6103 2.6804 2.6773 2.544 2.4712 2.5383
3154.476 2.4514 2.4537 2.5283 2.482 2.3997 2.3943 2.5416 2.5608 2.4539 2.4013
3173.769 2.3396 2.2474 2.13956 2.2042 2.2167 2.19792 2.3271 2.3672 2.12938 1.928
3193.063 2.0202 2.09076 1.996 1.961 1.9 1.874 1.841 1.717 1.749 1.725
3212.356 1.569 1.388 1.371 1.364 1.346 1.359 1.291 1.17 0.92 0.91
3231.650 1.04 0.9 0.83 0.81 0.74 0.86 0.83 0.61 0.53 0.57
3250.943 0.49 0.53 0.64 0.7 0.86 0.88 0.8 0.52 0.33 0.44
3270.236 0.46 0.47 0.54 0.56 0.51 0.43 0.55 0.68 0.61 0.54
3289.530 0.58 0.75 0.76 0.74 0.74 0.76 0.84 0.82 0.9 1.04
3308.823 1.224 1.417 1.44 1.534 1.628 1.666 1.843 1.992 2.0501 2.3213
3328.117 2.3601 2.223 2.2165 2.3106 2.3824 2.2679 2.3352 2.3438 2.19856 2.13494
3347.410 1.994 1.878 1.737 1.425 1.279 1.24 1.186 1.101 0.93 0.81
3366.704 0.8 0.74 0.77 0.85 0.69 0.48 0.53 0.59 0.61 0.6
3385.997 0.56 0.61 0.64 0.69 0.66 0.5 0.47 0.51 0.51 0.45
3405.290 0.42 0.51 0.62 0.62 0.55 0.43 0.27 0.42 0.58 0.44
3424.584 0.34 0.47 0.51 0.4 0.13 0.12 0.39 0.47 0.42 0.41
3443.877 0.52 0.48 0.42 0.37 0.23 0.2 0.37 0.3 0.2 0.23
3463.171 0.23 0.14 0.19 0.31 0.23 0.18 0.18 0.13 0.14 0.23
3482.464 0.1 0 0.07 0.19 0.26 0.19 0.06 0.07 0.2 0.2
3501.758 0.25 0.3 0.32 0.32 0.23 0.12 0.07 0.13 0.1 0.28
3521.051 0.33 0.26 0.22 0.14 0.16 0.12 0.06 0.08 0.18 0.23
3540.344 0.16 0.07 0.09 0.27 0.33 0.24 0.25 0.18 0.09 0.19
3559.638 0.3 0.26 0.18 0.19 0.27 0.31 0.26 0.19 0.16 0.08
3578.931 0.21 0.35 0.29 0.18 0.12 0.25 0.36 0.28 0.26 0.28
3598.225 0.3 0.42 0.44 0.4 0.39 0.34 0.34 0.4 0.41 0.32
3617.518 0.35 0.51 0.4 0.34 0.39 0.38 0.39 0.29 0.33 0.39
3636.812 0.29 0.3 0.36 0.41 0.45 0.51 0.48 0.51 0.57 0.46
3656.105 0.41 0.41 0.42 0.49 0.48 0.55 0.55 0.36 0.28 0.34
3675.398 0.32 0.26 0.34 0.34 0.3 0.42 0.49 0.47 0.43 0.39
3694.692 0.44 0.56 0.51 0.51 0.64 0.57 0.59 0.56 0.48 0.54
3713.985 0.45 0.48 0.58 0.59 0.6 0.61 0.66 0.68 0.68 0.63
3733.279 0.53 0.63 0.74 0.72 0.68 0.62 0.59 0.61 0.67 0.57
3752.572 0.57 0.68 0.6 0.54 0.61 0.6 0.51 0.59 0.67 0.68
3771.866 0.76 0.75 0.66 0.65 0.71 0.65 0.58 0.63 0.67 0.58
3791.159 0.57 0.67 0.56 0.45 0.47 0.5 0.57 0.66 0.69 0.71
3810.452 0.62 0.57 0.69 0.72 0.61 0.55 0.55 0.54 0.67 0.69
3829.746 0.64 0.57 0.6 0.66 0.59 0.51 0.49 0.61 0.59 0.62
3849.039 0.76 0.66 0.47 0.58 0.68 0.65 0.69 0.57 0.51 0.54
3868.333 0.56 0.62 0.64 0.65 0.6 0.57 0.56 0.61 0.7 0.69
3887.626 0.62 0.7 0.73 0.64 0.71 0.72 0.67 0.64 0.67 0.67
3906.920 0.68 0.77 0.8 0.73 0.69 0.72 0.74 0.81 0.85 0.87
3926.213 0.78 0.76 0.82 0.83 0.87 0.88 0.75 0.69 0.76 0.8
3945.506 0.83 0.74 0.71 0.8 0.85 0.82 0.73 0.8 0.85 0.76
3964.800 0.83 0.82 0.83 0.87 0.91 0.93 0.92 0.98 1.05 0.96
3984.093 0.87 0.86 0.91 0.95 0.9 0.83 0.92 1 0.96
##END=
