##TITLE=2-Bromoacetamide
##JCAMP-DX=4.24
##DATA TYPE=INFRARED SPECTRUM
##ORIGIN=EPA-IR VAPOR PHASE LIBRARY
##OWNER=SRD/NIST
Collection (C) 2018 copyright by the U.S. Secretary of Commerce
on behalf of the United States of America. All rights reserved.
##CAS REGISTRY NO=683-57-8
##MOLFORM=C 2 H 4 Br N O
##$NIST SOURCE=MSDC-IR
##STATE=gas
##XUNITS=1/CM
##YUNITS=ABSORBANCE
##XFACTOR=1.
##YFACTOR=0.001
##DELTAX=1.92898
##FIRSTX=549.8
##LASTX=4000.7
##FIRSTY=1.748
##MAXX=4000.7
##MINX=549.759
##MAXY=0.035478
##MINY=0
##NPOINTS=1790
##XYDATA=(X++(Y..Y))
549.759 1.748 2.018 1.968 1.958 1.948 1.928 2.038 1.938 1.828 1.898
569.049 2.048 2.148 2.348 2.608 2.128 1.738 2.018 1.818 1.618 1.978
588.339 2.218 2.378 2.208 1.788 1.798 1.928 2.148 2.328 2.328 2.148
607.628 2.108 2.278 2.498 2.478 2.448 2.598 2.558 2.528 2.688 2.948
626.918 2.888 2.638 2.728 2.718 2.598 2.648 2.518 2.528 2.648 2.608
646.208 2.518 2.298 2.258 2.358 2.468 2.408 2.238 2.028 1.968 2.128
665.498 2.058 2.058 2.098 1.948 1.868 1.788 1.848 1.858 1.918 2.208
684.787 2.368 2.558 2.778 2.908 3.098 3.258 3.148 3.328 3.668 3.748
704.077 3.848 3.888 3.748 3.608 3.288 3.028 3.108 3.118 3.028 2.978
723.367 2.768 2.528 2.398 2.258 2.138 2.108 2.218 2.218 2.098 2.048
742.657 2.148 2.248 2.178 2.038 2.018 2.118 2.108 1.978 1.938 1.778
761.947 1.828 1.908 1.818 1.778 1.838 1.938 1.928 1.938 2.018 1.988
781.236 1.978 2.058 1.978 1.978 1.838 1.678 1.658 1.728 1.988 2.038
800.526 2.068 2.008 2.038 2.148 2.138 2.158 2.148 2.158 2.258 2.278
819.816 2.248 2.298 2.248 2.238 2.318 2.438 2.488 2.478 2.348 2.358
839.106 2.508 2.478 2.348 2.288 2.268 2.138 2.158 2.218 2.218 2.198
858.395 2.228 2.298 2.388 2.318 2.298 2.318 2.358 2.338 2.128 2.018
877.685 2.008 2.208 2.368 2.268 1.988 1.898 2.018 2.058 1.968 2.028
896.975 2.118 2.118 2.098 1.898 1.758 1.688 1.698 1.758 1.798 1.728
916.265 1.668 1.618 1.528 1.628 1.658 1.458 1.448 1.528 1.448 1.3238
935.555 1.3374 1.3792 1.448 1.528 1.478 1.498 1.538 1.448 1.355 1.3211
954.844 1.418 1.3139 1.1628 1.336 1.448 1.3699 1.262 1.2475 1.2806 1.1863
974.134 1.1733 1.1744 1.0859 1.1868 1.0864 1.1106 1.2892 1.317 1.2735 1.118
993.424 1.1075 1.1233 1.0447 1.0177 1.0867 1.1687 0.9925 0.7858 0.9433 1.0919
1012.714 1.0769 1.2706 1.2211 1.0329 1.0843 0.8753 0.8406 0.9505 0.9127 0.9518
1032.003 1.2292 1.2755 0.947 0.9021 1.1013 1.2662 1.257 1.0495 1.0571 1.1599
1051.293 1.2646 1.2388 1.0914 1.1615 1.1686 1.1495 1.2402 1.3109 1.2813 1.2764
1070.583 1.1713 1.3797 1.2587 1.196 1.568 1.608 1.2443 1.0609 1.3807 1.3827
1089.873 1.508 1.538 1.4137 1.1042 1.0314 1.3113 0.9806 0.6501 0.6335 0.319
1109.163 0.7819 1.2598 1.0883 1.2668 0.9467 0.6962 0.531 0.232 0.6906 1.0794
1128.452 0.8284 0.7819 1.0459 1.1316 0.8881 0.6976 0.577 0.6441 0.8622 0.8272
1147.742 0.7749 0.7041 0.9045 1.0756 0.875 0.7689 0.915 1.0422 1.2593 1.1816
1167.032 0.6272 0.5923 0.8047 0.8686 0.9869 0.953 0.7525 0.7065 0.6937 1.0475
1186.322 1.3706 1.0056 0.9123 1.2119 1.4097 1.658 1.938 2.328 2.708 2.768
1205.611 3.048 3.688 4.298 4.498 4.638 4.698 4.548 4.508 4.528 4.818
1224.901 4.988 4.788 4.208 3.708 3.258 2.568 1.798 1.2057 1.0444 0.7814
1244.191 0.5795 0.7195 0.743 0.6054 0.50191 0.51259 0.6796 0.6188 0.3553 0.3274
1263.481 0.3697 0.236 0 0.075 0.295 0.261 0.279 0.3362 0.366 0.395
1282.771 0.43708 0.5196 0.5706 0.6644 0.8295 1.0434 1.1709 1.1429 1.3359 1.648
1302.060 1.848 1.998 2.208 2.508 2.758 3.088 3.538 3.968 4.448 4.978
1321.350 5.518 6.188 6.908 7.638 8.348 9.058 9.678 10.288 10.808 11.108
1340.640 11.318 11.478 11.498 11.368 11.238 11.148 10.948 10.568 10.078 9.498
1359.930 8.758 7.908 7.118 6.498 5.878 5.288 4.828 4.438 3.978 3.588
1379.219 3.338 3.088 2.838 2.628 2.428 2.278 2.148 1.988 1.888 1.848
1398.509 1.858 1.918 1.928 1.888 1.888 1.918 1.918 1.928 1.918 1.988
1417.799 2.048 2.088 2.158 2.128 1.968 1.828 1.768 1.698 1.618 1.548
1437.089 1.498 1.3885 1.1978 1.082 1.0102 0.9194 0.8687 0.7964 0.7563 0.7942
1456.378 0.741 0.6769 0.6912 0.6401 0.6212 0.6346 0.5926 0.6015 0.6002 0.6324
1475.668 0.6223 0.5892 0.6116 0.5918 0.5793 0.5789 0.5949 0.6167 0.5978 0.6089
1494.958 0.6513 0.6725 0.6741 0.6502 0.6447 0.7136 0.7489 0.6836 0.7019 0.7349
1514.248 0.7195 0.7454 0.7813 0.7981 0.8007 0.8086 0.8507 0.9195 0.9788 1.0054
1533.538 1.0412 1.112 1.2577 1.418 1.548 1.678 1.888 2.118 2.298 2.558
1552.827 2.898 3.218 3.648 4.138 4.648 5.238 5.958 6.728 7.498 8.228
1572.117 8.668 8.918 9.108 9.328 9.668 10.148 10.598 10.878 10.838 10.548
1591.407 10.158 9.698 9.238 8.708 8.148 7.588 7.068 6.528 6.018 5.588
1610.697 5.108 4.658 4.318 3.958 3.598 3.298 3.028 2.778 2.578 2.418
1629.986 2.348 2.238 2.028 1.958 1.908 1.888 1.868 1.778 1.758 1.778
1649.276 1.848 1.978 2.058 2.058 2.038 2.118 2.288 2.368 2.508 2.728
1668.566 2.888 3.058 3.208 3.398 3.638 3.908 4.138 4.368 4.728 5.038
1687.856 5.298 5.628 6.008 6.408 6.818 7.288 7.888 8.508 9.188 10.098
1707.146 11.118 12.328 13.818 15.588 17.688 20.138 22.858 25.548 28.158 30.478
1726.435 32.218 33.358 34.068 34.498 34.828 35.188 35.478 35.328 34.358 32.598
1745.725 30.098 27.068 23.918 20.688 17.788 15.428 13.438 11.818 10.438 9.378
1765.015 8.458 7.638 6.948 6.368 5.848 5.338 4.868 4.418 3.968 3.558
1784.305 3.208 2.898 2.608 2.368 2.138 1.908 1.678 1.438 1.2758 1.1281
1803.594 0.9613 0.8603 0.7877 0.6741 0.6276 0.6339 0.6309 0.5862 0.5329 0.51203
1822.884 0.51155 0.50824 0.47939 0.45112 0.45243 0.423564 0.42819 0.46391 0.417536 0.44232
1842.174 0.49633 0.50784 0.46449 0.417936 0.45288 0.43212 0.3976 0.44009 0.44998 0.46272
1861.464 0.4785 0.45894 0.4963 0.5424 0.5456 0.548 0.5538 0.5784 0.5612 0.5352
1880.754 0.5253 0.48428 0.48764 0.48206 0.46046 0.48605 0.48586 0.49937 0.50615 0.50601
1900.043 0.51733 0.51115 0.50603 0.5377 0.5758 0.5722 0.5316 0.50787 0.49073 0.49402
1919.333 0.5545 0.6174 0.6332 0.619 0.6281 0.6346 0.5897 0.51501 0.50737 0.5353
1938.623 0.5268 0.51381 0.49142 0.4697 0.50254 0.47042 0.48418 0.50235 0.48106 0.43747
1957.913 0.426644 0.48238 0.48579 0.44629 0.3861 0.3785 0.3704 0.3826 0.3917 0.3636
1977.202 0.3885 0.420527 0.4026 0.3631 0.3259 0.3511 0.3594 0.3198 0.3333 0.335
1996.492 0.3215 0.3425 0.3565 0.3374 0.3342 0.3408 0.345 0.312 0.292 0.3416
2015.782 0.3496 0.3476 0.3258 0.292 0.3388 0.3956 0.373 0.313 0.308 0.3182
2035.072 0.3266 0.3206 0.261 0.265 0.263 0.271 0.3527 0.3675 0.3622 0.311
2054.362 0.28 0.316 0.321 0.308 0.302 0.3368 0.3573 0.309 0.31 0.3423
2073.651 0.338 0.3496 0.3669 0.3962 0.3747 0.3191 0.311 0.3184 0.317 0.3532
2092.941 0.3575 0.284 0.301 0.3479 0.306 0.302 0.3 0.3429 0.420731 0.41329
2112.231 0.3859 0.3684 0.3834 0.3684 0.3881 0.3727 0.3379 0.3862 0.3833 0.376
2131.521 0.3889 0.40938 0.43493 0.4043 0.35 0.311 0.3287 0.3513 0.304 0.292
2150.810 0.3518 0.3922 0.3631 0.3499 0.3529 0.35 0.3674 0.3734 0.3737 0.3768
2170.100 0.40811 0.4007 0.3603 0.357 0.3599 0.3791 0.3427 0.3506 0.43959 0.43641
2189.390 0.3656 0.3248 0.3612 0.3874 0.40898 0.4297 0.4055 0.403 0.3677 0.3613
2208.680 0.4007 0.3896 0.42945 0.45499 0.4002 0.3358 0.3537 0.3717 0.3426 0.3335
2227.970 0.3744 0.43094 0.395 0.3595 0.35 0.3627 0.3812 0.38 0.3544 0.3337
2247.259 0.3705 0.425179 0.3579 0.305 0.3502 0.3462 0.4057 0.417095 0.3841 0.3819
2266.549 0.3967 0.44166 0.4053 0.3997 0.423127 0.41397 0.404 0.41341 0.41083 0.3825
2285.839 0.3805 0.389 0.3468 0.3423 0.41599 0.427042 0.3718 0.306 0.274 0.27
2305.129 0.3509 0.3703 0.3422 0.3296 0.288 0.283 0.251 0.232 0.3266 0.317
2324.418 0.226 0.3206 0.3995 0.3584 0.3486 0.3962 0.3772 0.294 0.293 0.3271
2343.708 0.3529 0.3566 0.266 0.308 0.41391 0.3952 0.3664 0.3445 0.3544 0.3408
2362.998 0.309 0.3241 0.3237 0.28 0.312 0.3547 0.3418 0.3436 0.303 0.3304
2382.288 0.371 0.314 0.279 0.305 0.3266 0.306 0.278 0.41031 0.43105 0.305
2401.578 0.3336 0.3594 0.314 0.317 0.3629 0.41092 0.44267 0.3741 0.3723 0.45406
2420.867 0.4078 0.3497 0.3838 0.3688 0.3459 0.3848 0.45943 0.44846 0.362 0.3239
2440.157 0.3571 0.3953 0.3597 0.3513 0.418777 0.46024 0.422971 0.3268 0.297 0.3497
2459.447 0.3666 0.3706 0.3491 0.3682 0.3357 0.256 0.258 0.301 0.265 0.23
2478.737 0.305 0.3454 0.3325 0.3251 0.3517 0.292 0.25 0.266 0.28 0.298
2498.026 0.29 0.3555 0.3739 0.3645 0.316 0.263 0.254 0.26 0.3255 0.299
2517.316 0.259 0.291 0.293 0.3 0.3628 0.417923 0.41297 0.386 0.3408 0.307
2536.606 0.303 0.3276 0.3406 0.301 0.298 0.285 0.276 0.3344 0.3691 0.3262
2555.896 0.289 0.259 0.267 0.3203 0.3227 0.3402 0.3346 0.33 0.315 0.279
2575.186 0.256 0.273 0.278 0.252 0.245 0.3324 0.3908 0.26 0.282 0.3992
2594.475 0.3868 0.3911 0.3992 0.3277 0.268 0.297 0.317 0.241 0.263 0.3996
2613.765 0.41597 0.3344 0.3327 0.297 0.284 0.281 0.236 0.248 0.27 0.291
2633.055 0.304 0.3348 0.4069 0.45695 0.3408 0.263 0.302 0.298 0.288 0.299
2652.345 0.314 0.316 0.3529 0.3513 0.257 0.252 0.296 0.3215 0.308 0.294
2671.634 0.3244 0.311 0.3743 0.389 0.3844 0.426051 0.3221 0.305 0.3609 0.3879
2690.924 0.3903 0.3461 0.334 0.3314 0.306 0.3341 0.4055 0.3349 0.277 0.284
2710.214 0.293 0.3297 0.305 0.276 0.308 0.3273 0.3474 0.264 0.217 0.275
2729.504 0.254 0.3189 0.3604 0.3427 0.348 0.3542 0.3512 0.305 0.287 0.274
2748.794 0.244 0.3363 0.43213 0.423966 0.3537 0.297 0.316 0.282 0.222 0.256
2768.083 0.3213 0.417004 0.3637 0.299 0.313 0.3405 0.3593 0.309 0.305 0.45069
2787.373 0.51443 0.3926 0.41635 0.44569 0.3963 0.3737 0.307 0.3381 0.46296 0.41356
2806.663 0.3912 0.4012 0.45955 0.5217 0.48155 0.43123 0.41073 0.4515 0.45274 0.43091
2825.953 0.3585 0.4053 0.43397 0.3877 0.3763 0.40832 0.39 0.363 0.43245 0.47017
2845.242 0.51215 0.50049 0.4033 0.347 0.3293 0.297 0.3603 0.3938 0.3558 0.3535
2864.532 0.3751 0.3417 0.3222 0.3912 0.420686 0.3467 0.3764 0.50998 0.48844 0.3952
2883.822 0.3892 0.3986 0.419177 0.397 0.388 0.47282 0.45599 0.3959 0.3484 0.3229
2903.112 0.3401 0.3412 0.43127 0.45623 0.424489 0.50018 0.49352 0.46702 0.553 0.5945
2922.401 0.579 0.47528 0.3964 0.3838 0.3785 0.457 0.532 0.47292 0.44445 0.50151
2941.691 0.50576 0.6201 0.6457 0.5381 0.46462 0.423646 0.45822 0.45677 0.5529 0.6842
2960.981 0.7446 0.7886 0.8161 0.8095 0.8083 0.7979 0.7661 0.6883 0.6566 0.7232
2980.271 0.763 0.7923 0.7172 0.664 0.7802 0.8195 0.7154 0.6978 0.7083 0.6176
2999.561 0.49893 0.49354 0.50788 0.51467 0.5908 0.5493 0.49593 0.43829 0.43949 0.523
3018.850 0.5228 0.5737 0.5749 0.5192 0.47172 0.5414 0.49028 0.3579 0.3663 0.297
3038.140 0.31 0.3273 0.3963 0.6041 0.6365 0.5378 0.5631 0.45899 0.271 0.3703
3057.430 0.46591 0.3952 0.43764 0.5417 0.50026 0.41324 0.420522 0.41238 0.4221 0.3706
3076.720 0.3462 0.3548 0.3521 0.5301 0.5956 0.47307 0.49858 0.5233 0.3873 0.3845
3096.009 0.45248 0.48311 0.48648 0.46542 0.45395 0.3984 0.3322 0.3286 0.276 0.257
3115.299 0.384 0.45864 0.44293 0.44436 0.3942 0.3912 0.46863 0.424652 0.3617 0.293
3134.589 0.3379 0.50522 0.383 0.3 0.3795 0.3578 0.3668 0.425683 0.50056 0.5259
3153.879 0.46502 0.47023 0.5196 0.41305 0.3936 0.422028 0.31 0.3366 0.45503 0.420112
3173.169 0.3476 0.3994 0.528 0.47387 0.3861 0.47764 0.49118 0.41628 0.295 0.258
3192.458 0.3601 0.44778 0.3964 0.313 0.3806 0.319 0.213 0.215 0.178 0.193
3211.748 0.202 0.339 0.47799 0.47925 0.44284 0.3923 0.3939 0.3644 0.297 0.268
3231.038 0.3633 0.3506 0.3556 0.4001 0.306 0.285 0.341 0.3251 0.297 0.3518
3250.328 0.43522 0.48994 0.421746 0.3443 0.3695 0.3916 0.3919 0.3724 0.303 0.41047
3269.617 0.44364 0.231 0.179 0.3617 0.313 0.237 0.3759 0.41501 0.3771 0.3242
3288.907 0.316 0.3479 0.4061 0.48879 0.49016 0.3211 0.278 0.3585 0.3742 0.43609
3308.197 0.422403 0.45954 0.4411 0.266 0.3847 0.50155 0.5392 0.5652 0.5249 0.5322
3327.487 0.46893 0.3867 0.3604 0.4757 0.42249 0.3556 0.49518 0.5566 0.44269 0.3949
3346.777 0.50386 0.6009 0.5648 0.43238 0.44032 0.5902 0.5961 0.6514 0.709 0.48839
3366.066 0.47465 0.5513 0.49055 0.50016 0.5364 0.6559 0.696 0.5983 0.7155 0.9123
3385.356 1.0975 1.1571 1.1139 1.199 1.1868 1.1691 1.4037 1.668 1.788 1.948
3404.646 2.028 2.218 2.578 2.798 2.998 3.108 3.148 3.418 3.678 3.838
3423.936 3.948 4.058 4.038 3.748 3.498 3.398 3.418 3.348 3.418 3.518
3443.225 3.198 2.808 2.618 2.498 2.388 2.128 1.868 1.738 1.568 1.418
3462.515 1.4137 1.3674 1.3078 1.2333 1.2334 1.2828 1.2195 1.1612 1.1784 1.2029
3481.805 1.1611 1.225 1.3983 1.3592 1.2669 1.3794 1.478 1.568 1.738 1.918
3501.095 1.938 1.908 1.908 2.098 2.368 2.508 2.668 2.878 3.108 3.298
3520.385 3.348 3.408 3.598 3.788 4.098 4.408 4.778 5.258 5.708 6.148
3539.674 6.578 6.918 6.978 6.868 6.618 6.318 6.058 5.878 5.748 5.528
3558.964 4.958 4.348 3.738 2.778 2.058 1.558 1.2478 1.0797 0.9729 0.8941
3578.254 0.7689 0.6553 0.5689 0.6788 0.7301 0.6691 0.5413 0.419229 0.5976 0.7435
3597.544 0.6094 0.6143 0.5849 0.46326 0.45704 0.47251 0.5284 0.5356 0.51557 0.5203
3616.833 0.51217 0.5269 0.525 0.5139 0.584 0.6393 0.5182 0.3865 0.27 0.265
3636.123 0.3581 0.3269 0.3203 0.286 0.298 0.402 0.3646 0.42998 0.47189 0.49076
3655.413 0.49295 0.3882 0.3697 0.4046 0.3415 0.3219 0.367 0.3422 0.4306 0.44617
3674.703 0.3394 0.3239 0.3906 0.4075 0.405 0.45871 0.44522 0.3215 0.313 0.3744
3693.993 0.278 0.159 0.271 0.41214 0.3853 0.3892 0.379 0.4589 0.47334 0.4077
3713.282 0.3262 0.257 0.339 0.4076 0.43923 0.41279 0.3731 0.3475 0.43055 0.50038
3732.572 0.43798 0.3737 0.3478 0.288 0.3365 0.3814 0.3344 0.3451 0.45196 0.5509
3751.862 0.5203 0.51151 0.46794 0.418303 0.4312 0.3281 0.272 0.3583 0.3299 0.213
3771.152 0.225 0.318 0.368 0.3776 0.3485 0.3423 0.3293 0.4016 0.43528 0.420694
3790.441 0.5192 0.4348 0.420524 0.46871 0.47476 0.48171 0.426658 0.419748 0.3927 0.304
3809.731 0.284 0.41667 0.3468 0.158 0.307 0.46836 0.3987 0.3496 0.47387 0.5515
3829.021 0.50085 0.43543 0.319 0.258 0.234 0.243 0.3201 0.47932 0.417382 0.285
3848.311 0.3892 0.44658 0.44637 0.44078 0.381 0.48085 0.5525 0.5188 0.51209 0.47579
3867.601 0.3805 0.292 0.305 0.301 0.231 0.3665 0.49661 0.44202 0.424616 0.44147
3886.890 0.5246 0.50816 0.44023 0.3202 0.28 0.292 0.258 0.302 0.3304 0.3716
3906.180 0.3787 0.3857 0.3648 0.3377 0.43447 0.5582 0.5866 0.5481 0.45932 0.44024
3925.470 0.45284 0.3407 0.301 0.3612 0.3783 0.420575 0.44546 0.3341 0.3851 0.45242
3944.760 0.308 0.314 0.3405 0.3484 0.3 0.247 0.312 0.3379 0.46868 0.6473
3964.049 0.5721 0.426917 0.43342 0.419864 0.44647 0.3983 0.43461 0.42973 0.263 0.26
3983.339 0.295 0.352 0.3435 0.315 0.4067 0.41004 0.44992 0.3797 0.43124 0.5397
##END=
