##TITLE=Propyne
##JCAMP-DX=4.24
##DATA TYPE=INFRARED SPECTRUM
##CLASS=COBLENTZ
##ORIGIN=DOW CHEMICAL COMPANY
##OWNER=Copyright (C) 1987 by the Coblentz Society
Collection (C) 2018 copyright by the U.S. Secretary of Commerce
on behalf of the United States of America. All rights reserved.
##DATE=1964
##NAMES=1-propyne
##CAS REGISTRY NO=74-99-7
##MOLFORM=C3 H4
##SOURCE REFERENCE=COBLENTZ NO. 8880
##$NIST SOURCE=COBLENTZ
##$NIST IMAGE=cob8880
##SPECTROMETER/DATA SYSTEM=DOW KBr FOREPRISM-GRATING
##INSTRUMENT PARAMETERS=GRATING CHANGED AT 5.0, 7.5, 15.0 MICRON
##STATE=GAS (50 mmHg, N2 ADDED, TOTAL PRESSURE 600 mmHg)
##PATH LENGTH=5 CM
$$ SPECTRAL CONTAMINATION DUE TO ACETYLENE AT 732 CM^-^1
$$ ROTATIONAL FEATURES BETWEEN 3090-2971 CM^-^1 ARE DELETED
##SAMPLING PROCEDURE=TRANSMISSION
##RESOLUTION=2
##DATA PROCESSING=DIGITIZED BY COBLENTZ SOCIETY (BATCH II) FROM HARD COPY
##XUNITS=1/CM
##YUNITS=TRANSMITTANCE
##XFACTOR=1.0
##YFACTOR=1
##FIRSTX=462
##LASTX=3798
##FIRSTY=0.8508
##MAXX=3798
##MINX=462
##MAXY=0.8986
##MINY=0.0135
##NPOINTS=3337
##XYDATA=(X++(Y..Y))
462.000000 0.8508 0.8515 0.8521 0.8528 0.8534
467.000000 0.8534 0.8532 0.8531 0.8530 0.8528
472.000000 0.8527 0.8525 0.8524 0.8522 0.8521
477.000000 0.8519 0.8517 0.8516 0.8514 0.8512
482.000000 0.8510 0.8508 0.8506 0.8504 0.8503
487.000000 0.8500 0.8497 0.8495 0.8492 0.8490
492.000000 0.8487 0.8484 0.8482 0.8479 0.8476
497.000000 0.8474 0.8471 0.8468 0.8466 0.8463
502.000000 0.8461 0.8458 0.8456 0.8455 0.8485
507.000000 0.8453 0.8452 0.8450 0.8449 0.8448
512.000000 0.8447 0.8446 0.8444 0.8443 0.8442
517.000000 0.8441 0.8440 0.8438 0.8437 0.8436
522.000000 0.8435 0.8434 0.8433 0.8432 0.8432
527.000000 0.8431 0.8430 0.8429 0.8428 0.8427
532.000000 0.8426 0.8425 0.8425 0.8424 0.8423
537.000000 0.8422 0.8422 0.8422 0.8422 0.8423
542.000000 0.8423 0.8423 0.8423 0.8423 0.8423
547.000000 0.8423 0.8423 0.8423 0.8423 0.8424
552.000000 0.8424 0.8425 0.8428 0.8432 0.8436
557.000000 0.8440 0.8444 0.8447 0.8451 0.8455
562.000000 0.8459 0.8462 0.8466 0.8470 0.8474
567.000000 0.8478 0.8481 0.8483 0.8485 0.8487
572.000000 0.8489 0.8492 0.8494 0.8496 0.8498
577.000000 0.8498 0.8497 0.8495 0.8494 0.8492
582.000000 0.8491 0.8490 0.8486 0.8478 0.8469
587.000000 0.8460 0.8447 0.8424 0.8400 0.8376
592.000000 0.8342 0.8307 0.8271 0.8227 0.8173
597.000000 0.8118 0.8043 0.7962 0.7882 0.7801
602.000000 0.7707 0.7607 0.7507 0.7386 0.7266
607.000000 0.7144 0.6966 0.6754 0.6507 0.6267
612.000000 0.5831 0.5592 0.5243 0.4894 0.4544
617.000000 0.4195 0.3845 0.3496 0.3146 0.2797
622.000000 0.2448 0.2275 0.2249 0.2239 0.2234
627.000000 0.2230 0.2223 0.2210 0.1776 0.1203
632.000000 0.0239 0.0159 0.0135 0.0142 0.0135
637.000000 0.0186 0.0228 0.0314 0.0455 0.0639
642.000000 0.0823 0.1006 0.1190 0.1374 0.1563
647.000000 0.1825 0.1928 0.2025 0.2115 0.2205
652.000000 0.2327 0.2641 0.3024 0.3251 0.3454
657.000000 0.3723 0.4314 0.4490 0.4672 0.5953
662.000000 0.6114 0.6272 0.6429 0.6587 0.6745
667.000000 0.7356 0.7714 0.7953 0.8129 0.8173
672.000000 0.8217 0.8262 0.8303 0.8344 0.8384
677.000000 0.8423 0.8463 0.8508 0.8571 0.8634
682.000000 0.8672 0.8700 0.8703 0.8703 0.8704
687.000000 0.8705 0.8707 0.8709 0.8711 0.8712
692.000000 0.8713 0.8715 0.8716 0.8717 0.8719
697.000000 0.8720 0.8722 0.8723 0.8725 0.8728
702.000000 0.8730 0.8732 0.8735 0.8737 0.8739
707.000000 0.8741 0.8743 0.8744 0.8746 0.8748
712.000000 0.8751 0.8753 0.8755 0.8757 0.8760
717.000000 0.8762 0.8765 0.8773 0.8781 0.8789
722.000000 0.8797 0.8804 0.8812 0.8819 0.8827
727.000000 0.8834 0.8832 0.8815 0.8444 0.7414
732.000000 0.6935 0.7085 0.7448 0.7811 0.8173
737.000000 0.8536 0.8747 0.8749 0.8753 0.8758
742.000000 0.8759 0.8758 0.8757 0.8756 0.8754
747.000000 0.8753 0.8751 0.8750 0.8748 0.8748
752.000000 0.8749 0.8750 0.8751 0.8751 0.8752
757.000000 0.8752 0.8752 0.8752 0.8753 0.8753
762.000000 0.8755 0.8761 0.8767 0.8773 0.8779
767.000000 0.8785 0.8790 0.8796 0.8801 0.8806
772.000000 0.8812 0.8822 0.8831 0.8841 0.8849
777.000000 0.8854 0.8859 0.8862 0.8861 0.8859
782.000000 0.8858 0.8856 0.8855 0.8852 0.8849
787.000000 0.8846 0.8844 0.8841 0.8852 0.8837
792.000000 0.8838 0.8839 0.8840 0.8841 0.8841
797.000000 0.8841 0.8841 0.8841 0.8840 0.8839
802.000000 0.8839 0.8838 0.8837 0.8835 0.8833
807.000000 0.8831 0.8829 0.8826 0.8824 0.8823
812.000000 0.8822 0.8821 0.8821 0.8820 0.8820
817.000000 0.8821 0.8823 0.8824 0.8824 0.8824
822.000000 0.8824 0.8821 0.8816 0.8813 0.8813
827.000000 0.8814 0.8814 0.8815 0.8815 0.8816
832.000000 0.8816 0.8817 0.8817 0.8818 0.8818
837.000000 0.8819 0.8819 0.8820 0.8820 0.8821
842.000000 0.8821 0.8822 0.8822 0.8823 0.8823
847.000000 0.8824 0.8824 0.8825 0.8826 0.8826
852.000000 0.8827 0.8827 0.8828 0.8830 0.8831
857.000000 0.8833 0.8834 0.8835 0.8837 0.8838
862.000000 0.8839 0.8839 0.8839 0.8838 0.8838
867.000000 0.8837 0.8837 0.8836 0.8833 0.8830
872.000000 0.8826 0.8823 0.8819 0.8815 0.8810
877.000000 0.8804 0.8798 0.8792 0.8786 0.8780
882.000000 0.8774 0.8768 0.8762 0.8756 0.8750
887.000000 0.8743 0.8735 0.8727 0.8719 0.8711
892.000000 0.8703 0.8695 0.8687 0.8678 0.8666
897.000000 0.8655 0.8643 0.8632 0.8621 0.8609
902.000000 0.8598 0.8588 0.8577 0.8566 0.8555
907.000000 0.8545 0.8534 0.8523 0.8513 0.8502
912.000000 0.8495 0.8489 0.8483 0.8477 0.8471
917.000000 0.8465 0.8459 0.8486 0.8463 0.8471
922.000000 0.8479 0.8487 0.8510 0.8536 0.8570
927.000000 0.8605 0.8618 0.8627 0.8637 0.8634
932.000000 0.8633 0.8619 0.8599 0.8573 0.8541
937.000000 0.8514 0.8490 0.8495 0.8470 0.8469
942.000000 0.8480 0.8492 0.8508 0.8523 0.8540
947.000000 0.8559 0.8578 0.8596 0.8614 0.8633
952.000000 0.8652 0.8663 0.8674 0.8685 0.8696
957.000000 0.8707 0.8717 0.8727 0.8737 0.8748
962.000000 0.8761 0.8773 0.8785 0.8797 0.8805
967.000000 0.8813 0.8821 0.8829 0.8837 0.8843
972.000000 0.8848 0.8854 0.8860 0.8865 0.8871
977.000000 0.8876 0.8881 0.8886 0.8891 0.8895
982.000000 0.8900 0.8905 0.8909 0.8914 0.8919
987.000000 0.8923 0.8926 0.8933 0.8930 0.8932
992.000000 0.8934 0.8937 0.8939 0.8941 0.8943
997.000000 0.8945 0.8946 0.8947 0.8948 0.8949
1002.000000 0.8950 0.8951 0.8952 0.8953 0.8954
1007.000000 0.8955 0.8957 0.8959 0.8961 0.8963
1012.000000 0.8965 0.8966 0.8968 0.8970 0.8973
1017.000000 0.8977 0.8980 0.8983 0.8986 0.8986
1022.000000 0.8986 0.8986 0.8980 0.8973 0.8966
1027.000000 0.8959 0.8952 0.8944 0.8935 0.8926
1032.000000 0.8918 0.8918 0.8926 0.8933 0.8939
1037.000000 0.8945 0.8943 0.8941 0.8939 0.8936
1042.000000 0.8933 0.8931 0.8928 0.8925 0.8921
1047.000000 0.8917 0.8914 0.8910 0.8906 0.8903
1052.000000 0.8899 0.8895 0.8892 0.8888 0.8884
1057.000000 0.8881 0.8877 0.8874 0.8870 0.8866
1062.000000 0.8863 0.8853 0.8842 0.8831 0.8820
1067.000000 0.8809 0.8798 0.8782 0.8766 0.8750
1072.000000 0.8733 0.8717 0.8701 0.8684 0.8666
1077.000000 0.8649 0.8632 0.8615 0.8598 0.8584
1082.000000 0.8570 0.8555 0.8541 0.8527 0.8513
1087.000000 0.8499 0.8492 0.8486 0.8480 0.8481
1092.000000 0.8483 0.8485 0.8499 0.8491 0.8494
1097.000000 0.8496 0.8499 0.8447 0.8389 0.8331
1102.000000 0.8314 0.8291 0.8399 0.8514 0.8630
1107.000000 0.8813 0.8830 0.8767 0.8700 0.8633
1112.000000 0.8567 0.8500 0.8433 0.8398 0.8368
1117.000000 0.8331 0.8342 0.8340 0.8344 0.8354
1122.000000 0.8374 0.8399 0.8431 0.8471 0.8520
1127.000000 0.8572 0.8617 0.8663 0.8709 0.8748
1132.000000 0.8785 0.8817 0.8838 0.8842 0.8854
1137.000000 0.8844 0.8842 0.8840 0.8832 0.8820
1142.000000 0.8807 0.8792 0.8777 0.8758 0.8738
1147.000000 0.8719 0.8699 0.8678 0.8643 0.8598
1152.000000 0.8557 0.8523 0.8503 0.8483 0.8469
1157.000000 0.8453 0.8429 0.8405 0.8364 0.8316
1162.000000 0.8258 0.8199 0.8114 0.8058 0.8001
1167.000000 0.7953 0.7906 0.7873 0.7845 0.7847
1172.000000 0.7880 0.7900 0.7912 0.7931 0.7914
1177.000000 0.7869 0.7772 0.7244 0.7345 0.7236
1182.000000 0.7558 0.8054 0.8252 0.8217 0.8134
1187.000000 0.8051 0.7968 0.7885 0.7802 0.7719
1192.000000 0.7631 0.7647 0.7654 0.7680 0.7710
1197.000000 0.7778 0.7854 0.7929 0.8041 0.8173
1202.000000 0.8338 0.8553 0.8671 0.8737 0.8779
1207.000000 0.8809 0.8837 0.8855 0.8870 0.8875
1212.000000 0.8880 0.8885 0.8871 0.8860 0.8845
1217.000000 0.8827 0.8802 0.8775 0.8738 0.8698
1222.000000 0.8654 0.8609 0.8550 0.8475 0.8397
1227.000000 0.8316 0.8210 0.8068 0.7900 0.7732
1232.000000 0.7564 0.7396 0.7228 0.7060 0.6892
1237.000000 0.6724 0.6556 0.6388 0.6220 0.6052
1242.000000 0.5884 0.5485 0.5510 0.5516 0.5541
1247.000000 0.5605 0.5711 0.6123 0.6326 0.6488
1252.000000 0.6528 0.6568 0.6608 0.6648 0.6688
1257.000000 0.6795 0.6768 0.6782 0.6660 0.6454
1262.000000 0.6249 0.6043 0.5838 0.5632 0.5506
1267.000000 0.5447 0.5433 0.5422 0.5446 0.5517
1272.000000 0.5661 0.5805 0.5950 0.6094 0.6238
1277.000000 0.6383 0.6516 0.6701 0.6814 0.6966
1282.000000 0.7198 0.7597 0.7817 0.7939 0.8071
1287.000000 0.8206 0.8267 0.8327 0.8374 0.8420
1292.000000 0.8459 0.8498 0.8538 0.8578 0.8618
1297.000000 0.8638 0.8658 0.8678 0.8689 0.8723
1302.000000 0.8701 0.8704 0.8707 0.8710 0.8712
1307.000000 0.8711 0.8710 0.8709 0.8704 0.8699
1312.000000 0.8694 0.8689 0.8683 0.8678 0.8671
1317.000000 0.8662 0.8653 0.8644 0.8634 0.8625
1322.000000 0.8616 0.8607 0.8598 0.8593 0.8588
1327.000000 0.8583 0.8580 0.8585 0.8590 0.8596
1332.000000 0.8597 0.8593 0.8589 0.8585 0.8572
1337.000000 0.8546 0.8472 0.8371 0.8427 0.8483
1342.000000 0.8514 0.8546 0.8574 0.8586 0.8582
1347.000000 0.8557 0.8526 0.8496 0.8455 0.8394
1352.000000 0.8335 0.8352 0.8366 0.8380 0.8394
1357.000000 0.8402 0.8395 0.8371 0.8335 0.8299
1362.000000 0.8254 0.8199 0.8147 0.8099 0.8145
1367.000000 0.8212 0.8274 0.8304 0.8292 0.8278
1372.000000 0.8242 0.8198 0.8140 0.8080 0.7991
1377.000000 0.7937 0.7916 0.7944 0.7972 0.8006
1382.000000 0.8043 0.8025 0.7935 0.7857 0.7766
1387.000000 0.7766 0.7773 0.7786 0.7840 0.7904
1392.000000 0.7959 0.8008 0.8054 0.8086 0.8096
1397.000000 0.8063 0.8061 0.8073 0.8114 0.8139
1402.000000 0.8154 0.8161 0.8155 0.8133 0.8106
1407.000000 0.7999 0.7806 0.7612 0.7535 0.7634
1412.000000 0.7758 0.7882 0.8006 0.8118 0.8157
1417.000000 0.8178 0.8185 0.8175 0.8159 0.7273
1422.000000 0.6128 0.6128 0.6097 0.6967 0.7463
1427.000000 0.7959 0.8174 0.8189 0.8185 0.8176
1432.000000 0.8159 0.8138 0.8114 0.7870 0.7460
1437.000000 0.7050 0.6640 0.6616 0.7371 0.7996
1442.000000 0.8032 0.8050 0.8053 0.8052 0.8046
1447.000000 0.8032 0.8015 0.7621 0.7071 0.6694
1452.000000 0.6863 0.7166 0.7469 0.7674 0.7707
1457.000000 0.7727 0.7741 0.7749 0.7740 0.7709
1462.000000 0.7119 0.6132 0.5146 0.4869 0.5915
1467.000000 0.7088 0.7816 0.7854 0.7872 0.7878
1472.000000 0.7876 0.7862 0.7826 0.7741 0.7219
1477.000000 0.6696 0.6384 0.6403 0.7582 0.7794
1482.000000 0.7848 0.7924 0.7961 0.7996 0.8006
1487.000000 0.8002 0.7986 0.7950 0.7260 0.6633
1492.000000 0.6671 0.7294 0.7682 0.7850 0.7897
1497.000000 0.7943 0.7982 0.8005 0.8026 0.8044
1502.000000 0.8060 0.7541 0.6662 0.5784 0.5978
1507.000000 0.6733 0.7487 0.7871 0.7923 0.7994
1512.000000 0.8036 0.8075 0.8099 0.8123 0.8056
1517.000000 0.7844 0.7656 0.7741 0.7940 0.7999
1522.000000 0.7970 0.7948 0.7942 0.7953 0.7999
1527.000000 0.8156 0.8220 0.8238 0.8253 0.8222
1532.000000 0.8099 0.8018 0.7989 0.8005 0.8152
1537.000000 0.8269 0.8249 0.8224 0.8214 0.8262
1542.000000 0.8304 0.8336 0.8354 0.8372 0.8385
1547.000000 0.8367 0.8322 0.8240 0.8120 0.8095
1552.000000 0.8211 0.8354 0.8459 0.8443 0.8431
1557.000000 0.8424 0.8438 0.8455 0.8479 0.8504
1562.000000 0.8519 0.8517 0.8512 0.8507 0.8490
1567.000000 0.8468 0.8449 0.8429 0.8410 0.8477
1572.000000 0.8621 0.8629 0.8618 0.8603 0.8592
1577.000000 0.8599 0.8608 0.8613 0.8618 0.8623
1582.000000 0.8628 0.8633 0.8638 0.8643 0.8648
1587.000000 0.8653 0.8662 0.8673 0.8684 0.8696
1592.000000 0.8706 0.8713 0.8720 0.8727 0.8731
1597.000000 0.8734 0.8737 0.8740 0.8744 0.8748
1602.000000 0.8752 0.8750 0.8748 0.8747 0.8745
1607.000000 0.8743 0.8742 0.8741 0.8740 0.8739
1612.000000 0.8739 0.8738 0.8738 0.8740 0.8742
1617.000000 0.8744 0.8746 0.8750 0.8754 0.8758
1622.000000 0.8762 0.8766 0.8768 0.8769 0.8771
1627.000000 0.8772 0.8774 0.8777 0.8780 0.8783
1632.000000 0.8786 0.8789 0.8792 0.8795 0.8797
1637.000000 0.8800 0.8802 0.8802 0.8802 0.8802
1642.000000 0.8802 0.8802 0.8802 0.8802 0.8803
1647.000000 0.8803 0.8803 0.8803 0.8803 0.8803
1652.000000 0.8803 0.8803 0.8803 0.8803 0.8804
1657.000000 0.8804 0.8804 0.8804 0.8804 0.8804
1662.000000 0.8804 0.8804 0.8804 0.8804 0.8804
1667.000000 0.8805 0.8805 0.8805 0.8805 0.8805
1672.000000 0.8805 0.8805 0.8800 0.8796 0.8791
1677.000000 0.8787 0.8782 0.8781 0.8781 0.8780
1682.000000 0.8779 0.8778 0.8777 0.8776 0.8775
1687.000000 0.8773 0.8772 0.8771 0.8771 0.8771
1692.000000 0.8770 0.8770 0.8770 0.8769 0.8769
1697.000000 0.8770 0.8771 0.8772 0.8774 0.8775
1702.000000 0.8776 0.8777 0.8776 0.8775 0.8775
1707.000000 0.8774 0.8773 0.8772 0.8771 0.8770
1712.000000 0.8770 0.8770 0.8770 0.8771 0.8771
1717.000000 0.8771 0.8771 0.8771 0.8773 0.8774
1722.000000 0.8775 0.8773 0.8772 0.8771 0.8770
1727.000000 0.8769 0.8768 0.8766 0.8765 0.8764
1732.000000 0.8763 0.8762 0.8761 0.8759 0.8758
1737.000000 0.8757 0.8759 0.8761 0.8763 0.8765
1742.000000 0.8768 0.8769 0.8768 0.8768 0.8767
1747.000000 0.8766 0.8767 0.8769 0.8771 0.8772
1752.000000 0.8774 0.8775 0.8777 0.8779 0.8781
1757.000000 0.8784 0.8786 0.8784 0.8781 0.8779
1762.000000 0.8778 0.8783 0.8777 0.8777 0.8776
1767.000000 0.8776 0.8770 0.8759 0.8753 0.8753
1772.000000 0.8753 0.8754 0.8756 0.8759 0.8761
1777.000000 0.8761 0.8761 0.8762 0.8763 0.8764
1782.000000 0.8766 0.8767 0.8768 0.8770 0.8770
1787.000000 0.8771 0.8772 0.8772 0.8773 0.8773
1792.000000 0.8774 0.8775 0.8777 0.8779 0.8781
1797.000000 0.8784 0.8786 0.8788 0.8790 0.8792
1802.000000 0.8794 0.8794 0.8794 0.8793 0.8793
1807.000000 0.8793 0.8792 0.8792 0.8792 0.8791
1812.000000 0.8790 0.8788 0.8787 0.8786 0.8785
1817.000000 0.8783 0.8782 0.8781 0.8780 0.8778
1822.000000 0.8777 0.8778 0.8778 0.8779 0.8780
1827.000000 0.8781 0.8781 0.8782 0.8783 0.8784
1832.000000 0.8784 0.8785 0.8786 0.8787 0.8787
1837.000000 0.8788 0.8789 0.8789 0.8790 0.8791
1842.000000 0.8791 0.8792 0.8792 0.8793 0.8793
1847.000000 0.8794 0.8794 0.8795 0.8794 0.8794
1852.000000 0.8793 0.8792 0.8791 0.8791 0.8790
1857.000000 0.8789 0.8788 0.8788 0.8788 0.8788
1862.000000 0.8788 0.8789 0.8789 0.8790 0.8791
1867.000000 0.8792 0.8793 0.8795 0.8796 0.8797
1872.000000 0.8798 0.8799 0.8800 0.8801 0.8803
1877.000000 0.8804 0.8805 0.8806 0.8806 0.8806
1882.000000 0.8806 0.8806 0.8806 0.8806 0.8806
1887.000000 0.8806 0.8806 0.8806 0.8807 0.8807
1892.000000 0.8807 0.8807 0.8807 0.8808 0.8808
1897.000000 0.8808 0.8809 0.8809 0.8810 0.8810
1902.000000 0.8810 0.8811 0.8811 0.8811 0.8812
1907.000000 0.8812 0.8812 0.8812 0.8811 0.8811
1912.000000 0.8811 0.8811 0.8811 0.8810 0.8810
1917.000000 0.8810 0.8810 0.8810 0.8809 0.8809
1922.000000 0.8809 0.8809 0.8809 0.8808 0.8808
1927.000000 0.8808 0.8808 0.8808 0.8807 0.8807
1932.000000 0.8807 0.8806 0.8805 0.8804 0.8803
1937.000000 0.8803 0.8802 0.8801 0.8800 0.8799
1942.000000 0.8798 0.8797 0.8795 0.8793 0.8791
1947.000000 0.8789 0.8788 0.8786 0.8784 0.8782
1952.000000 0.8780 0.8778 0.8772 0.8764 0.8757
1957.000000 0.8749 0.8738 0.8726 0.8736 0.8767
1962.000000 0.8798 0.8816 0.8817 0.8814 0.8811
1967.000000 0.8809 0.8808 0.8807 0.8807 0.8807
1972.000000 0.8807 0.8807 0.8807 0.8809 0.8812
1977.000000 0.8814 0.8817 0.8818 0.8820 0.8822
1982.000000 0.8824 0.8826 0.8828 0.8830 0.8831
1987.000000 0.8832 0.8833 0.8833 0.8834 0.8835
1992.000000 0.8835 0.8835 0.8835 0.8834 0.8833
1997.000000 0.8832 0.8832 0.8831 0.8830 0.8829
2002.000000 0.8828 0.8827 0.8826 0.8824 0.8823
2007.000000 0.8822 0.8821 0.8820 0.8819 0.8817
2012.000000 0.8816 0.8815 0.8814 0.8812 0.8811
2017.000000 0.8810 0.8809 0.8808 0.8807 0.8805
2022.000000 0.8803 0.8801 0.8800 0.8798 0.8797
2027.000000 0.8795 0.8794 0.8792 0.8791 0.8789
2032.000000 0.8787 0.8785 0.8784 0.8782 0.8781
2037.000000 0.8779 0.8778 0.8776 0.8774 0.8771
2042.000000 0.8769 0.8766 0.8764 0.8762 0.8760
2047.000000 0.8757 0.8755 0.8752 0.8750 0.8748
2052.000000 0.8746 0.8746 0.8746 0.8746 0.8747
2057.000000 0.8747 0.8747 0.8753 0.8759 0.8766
2062.000000 0.8774 0.8775 0.8776 0.8775 0.8775
2067.000000 0.8771 0.8768 0.8764 0.8760 0.8752
2072.000000 0.8745 0.8737 0.8730 0.8721 0.8713
2077.000000 0.8704 0.8696 0.8693 0.8691 0.8689
2082.000000 0.8688 0.8687 0.8687 0.8688 0.8690
2087.000000 0.8691 0.8693 0.8694 0.8696 0.8697
2092.000000 0.8698 0.8697 0.8696 0.8695 0.8695
2097.000000 0.8694 0.8694 0.8693 0.8693 0.8692
2102.000000 0.8692 0.8690 0.8688 0.8680 0.8672
2107.000000 0.8661 0.8650 0.8634 0.8619 0.8602
2112.000000 0.8585 0.8556 0.8528 0.8495 0.8462
2117.000000 0.8426 0.8390 0.8354 0.8318 0.8281
2122.000000 0.8244 0.8206 0.8169 0.8133 0.8098
2127.000000 0.8062 0.8027 0.8008 0.7990 0.7971
2132.000000 0.7952 0.7934 0.7916 0.7902 0.7889
2137.000000 0.7882 0.7876 0.7915 0.7866 0.7994
2142.000000 0.8034 0.8073 0.8113 0.8131 0.8150
2147.000000 0.8132 0.8168 0.8074 0.8035 0.7996
2152.000000 0.7957 0.7917 0.7878 0.7839 0.7800
2157.000000 0.7760 0.7721 0.7717 0.7705 0.7763
2162.000000 0.7814 0.7879 0.7944 0.8009 0.8075
2167.000000 0.8140 0.8205 0.8270 0.8336 0.8401
2172.000000 0.8467 0.8532 0.8597 0.8659 0.8721
2177.000000 0.8755 0.8789 0.8801 0.8813 0.8820
2182.000000 0.8827 0.8834 0.8841 0.8846 0.8851
2187.000000 0.8854 0.8857 0.8859 0.8862 0.8864
2192.000000 0.8867 0.8868 0.8870 0.8870 0.8871
2197.000000 0.8872 0.8873 0.8873 0.8873 0.8873
2202.000000 0.8873 0.8873 0.8873 0.8873 0.8873
2207.000000 0.8873 0.8874 0.8874 0.8874 0.8873
2212.000000 0.8873 0.8873 0.8873 0.8872 0.8872
2217.000000 0.8872 0.8872 0.8872 0.8872 0.8871
2222.000000 0.8871 0.8871 0.8871 0.8870 0.8870
2227.000000 0.8870 0.8870 0.8869 0.8869 0.8869
2232.000000 0.8869 0.8868 0.8868 0.8867 0.8867
2237.000000 0.8867 0.8867 0.8866 0.8866 0.8865
2242.000000 0.8865 0.8864 0.8864 0.8863 0.8863
2247.000000 0.8863 0.8863 0.8862 0.8862 0.8861
2252.000000 0.8861 0.8860 0.8860 0.8859 0.8858
2257.000000 0.8857 0.8856 0.8855 0.8855 0.8854
2262.000000 0.8853 0.8852 0.8851 0.8850 0.8849
2267.000000 0.8848 0.8848 0.8847 0.8846 0.8845
2272.000000 0.8844 0.8843 0.8842 0.8840 0.8839
2277.000000 0.8837 0.8835 0.8833 0.8831 0.8829
2282.000000 0.8827 0.8825 0.8823 0.8821 0.8820
2287.000000 0.8818 0.8816 0.8814 0.8813 0.8811
2292.000000 0.8809 0.8807 0.8806 0.8804 0.8803
2297.000000 0.8801 0.8799 0.8797 0.8796 0.8794
2302.000000 0.8792 0.8790 0.8789 0.8787 0.8786
2307.000000 0.8784 0.8782 0.8781 0.8780 0.8779
2312.000000 0.8778 0.8777 0.8776 0.8775 0.8775
2317.000000 0.8774 0.8773 0.8772 0.8771 0.8770
2322.000000 0.8769 0.8768 0.8767 0.8768 0.8769
2327.000000 0.8770 0.8771 0.8776 0.8781 0.8788
2332.000000 0.8796 0.8804 0.8812 0.8817 0.8822
2337.000000 0.8824 0.8826 0.8826 0.8826 0.8825
2342.000000 0.8825 0.8824 0.8824 0.8823 0.8823
2347.000000 0.8822 0.8821 0.8820 0.8819 0.8818
2352.000000 0.8818 0.8817 0.8816 0.8815 0.8815
2357.000000 0.8814 0.8814 0.8813 0.8813 0.8813
2362.000000 0.8813 0.8812 0.8812 0.8811 0.8811
2367.000000 0.8811 0.8811 0.8810 0.8810 0.8810
2372.000000 0.8810 0.8809 0.8809 0.8809 0.8809
2377.000000 0.8809 0.8809 0.8810 0.8811 0.8812
2382.000000 0.8813 0.8814 0.8815 0.8815 0.8816
2387.000000 0.8816 0.8816 0.8813 0.8811 0.8807
2392.000000 0.8804 0.8800 0.8797 0.8795 0.8793
2397.000000 0.8791 0.8789 0.8787 0.8786 0.8787
2402.000000 0.8788 0.8788 0.8789 0.8789 0.8790
2407.000000 0.8791 0.8792 0.8792 0.8793 0.8793
2412.000000 0.8794 0.8794 0.8795 0.8795 0.8795
2417.000000 0.8795 0.8795 0.8795 0.8795 0.8795
2422.000000 0.8795 0.8795 0.8795 0.8795 0.8795
2427.000000 0.8795 0.8795 0.8795 0.8795 0.8795
2432.000000 0.8795 0.8796 0.8797 0.8798 0.8799
2437.000000 0.8800 0.8801 0.8801 0.8802 0.8803
2442.000000 0.8804 0.8805 0.8806 0.8807 0.8808
2447.000000 0.8809 0.8810 0.8810 0.8811 0.8812
2452.000000 0.8813 0.8813 0.8814 0.8814 0.8815
2457.000000 0.8815 0.8816 0.8816 0.8816 0.8816
2462.000000 0.8817 0.8817 0.8818 0.8818 0.8819
2467.000000 0.8819 0.8819 0.8819 0.8820 0.8820
2472.000000 0.8821 0.8821 0.8822 0.8822 0.8822
2477.000000 0.8822 0.8823 0.8823 0.8824 0.8824
2482.000000 0.8825 0.8825 0.8825 0.8825 0.8826
2487.000000 0.8826 0.8827 0.8827 0.8827 0.8827
2492.000000 0.8828 0.8828 0.8829 0.8829 0.8830
2497.000000 0.8830 0.8830 0.8830 0.8831 0.8831
2502.000000 0.8832 0.8832 0.8833 0.8833 0.8833
2507.000000 0.8833 0.8833 0.8833 0.8833 0.8832
2512.000000 0.8832 0.8832 0.8832 0.8831 0.8831
2517.000000 0.8831 0.8831 0.8830 0.8830 0.8830
2522.000000 0.8830 0.8830 0.8830 0.8829 0.8829
2527.000000 0.8829 0.8829 0.8828 0.8828 0.8828
2532.000000 0.8828 0.8827 0.8827 0.8827 0.8827
2537.000000 0.8827 0.8828 0.8828 0.8828 0.8828
2542.000000 0.8828 0.8828 0.8828 0.8828 0.8828
2547.000000 0.8828 0.8828 0.8828 0.8828 0.8828
2552.000000 0.8828 0.8828 0.8828 0.8828 0.8828
2557.000000 0.8828 0.8828 0.8828 0.8828 0.8827
2562.000000 0.8827 0.8827 0.8827 0.8826 0.8826
2567.000000 0.8825 0.8825 0.8825 0.8825 0.8824
2572.000000 0.8824 0.8823 0.8823 0.8822 0.8822
2577.000000 0.8822 0.8822 0.8822 0.8822 0.8822
2582.000000 0.8822 0.8822 0.8822 0.8822 0.8822
2587.000000 0.8822 0.8822 0.8822 0.8822 0.8822
2592.000000 0.8822 0.8822 0.8823 0.8823 0.8824
2597.000000 0.8825 0.8826 0.8826 0.8827 0.8827
2602.000000 0.8828 0.8828 0.8829 0.8829 0.8830
2607.000000 0.8831 0.8832 0.8832 0.8833 0.8833
2612.000000 0.8834 0.8834 0.8835 0.8835 0.8836
2617.000000 0.8836 0.8837 0.8837 0.8838 0.8838
2622.000000 0.8839 0.8839 0.8840 0.8840 0.8841
2627.000000 0.8841 0.8842 0.8842 0.8843 0.8843
2632.000000 0.8844 0.8843 0.8842 0.8841 0.8840
2637.000000 0.8839 0.8839 0.8838 0.8837 0.8836
2642.000000 0.8836 0.8835 0.8834 0.8833 0.8833
2647.000000 0.8832 0.8831 0.8830 0.8829 0.8829
2652.000000 0.8829 0.8828 0.8828 0.8827 0.8827
2657.000000 0.8826 0.8826 0.8825 0.8825 0.8825
2662.000000 0.8825 0.8824 0.8824 0.8823 0.8823
2667.000000 0.8822 0.8822 0.8821 0.8820 0.8819
2672.000000 0.8818 0.8816 0.8815 0.8813 0.8812
2677.000000 0.8811 0.8810 0.8808 0.8807 0.8805
2682.000000 0.8804 0.8803 0.8802 0.8800 0.8799
2687.000000 0.8797 0.8795 0.8793 0.8791 0.8789
2692.000000 0.8787 0.8784 0.8782 0.8780 0.8778
2697.000000 0.8776 0.8774 0.8772 0.8770 0.8772
2702.000000 0.8774 0.8776 0.8779 0.8782 0.8785
2707.000000 0.8788 0.8792 0.8794 0.8796 0.8793
2712.000000 0.8790 0.8786 0.8783 0.8778 0.8773
2717.000000 0.8768 0.8763 0.8758 0.8753 0.8747
2722.000000 0.8742 0.8737 0.8732 0.8727 0.8722
2727.000000 0.8717 0.8712 0.8705 0.8698 0.8690
2732.000000 0.8683 0.8675 0.8668 0.8658 0.8648
2737.000000 0.8637 0.8627 0.8619 0.8611 0.8607
2742.000000 0.8604 0.8600 0.8597 0.8594 0.8591
2747.000000 0.8587 0.8584 0.8580 0.8576 0.8572
2752.000000 0.8569 0.8565 0.8561 0.8557 0.8554
2757.000000 0.8552 0.8550 0.8552 0.8554 0.8556
2762.000000 0.8558 0.8560 0.8563 0.8569 0.8575
2767.000000 0.8584 0.8593 0.8605 0.8617 0.8633
2772.000000 0.8650 0.8661 0.8672 0.8671 0.8671
2777.000000 0.8670 0.8669 0.8662 0.8655 0.8647
2782.000000 0.8640 0.8631 0.8622 0.8611 0.8601
2787.000000 0.8590 0.8579 0.8565 0.8552 0.8536
2792.000000 0.8521 0.8505 0.8489 0.8469 0.8450
2797.000000 0.8422 0.8395 0.8363 0.8331 0.8299
2802.000000 0.8267 0.8237 0.8208 0.8178 0.8148
2807.000000 0.8120 0.8093 0.8090 0.8087 0.8083
2812.000000 0.8080 0.8080 0.8081 0.8081 0.8082
2817.000000 0.8082 0.8083 0.8089 0.8095 0.8106
2822.000000 0.8118 0.8117 0.8117 0.8095 0.8074
2827.000000 0.8046 0.8019 0.7983 0.7947 0.7911
2832.000000 0.7876 0.7855 0.7835 0.7837 0.7840
2837.000000 0.7845 0.7850 0.7854 0.7859 0.7864
2842.000000 0.7869 0.7873 0.7878 0.7883 0.7888
2847.000000 0.7888 0.7888 0.7888 0.7888 0.7883
2852.000000 0.7879 0.7861 0.7844 0.7820 0.7796
2857.000000 0.7757 0.7719 0.7671 0.7623 0.7575
2862.000000 0.7528 0.7443 0.7359 0.7174 0.6990
2867.000000 0.6834 0.6678 0.6642 0.6607 0.6596
2872.000000 0.6586 0.6582 0.6579 0.6587 0.6596
2877.000000 0.6616 0.6637 0.6657 0.6678 0.6698
2882.000000 0.6719 0.6726 0.6733 0.6720 0.6707
2887.000000 0.6655 0.6604 0.6552 0.6501 0.6449
2892.000000 0.6397 0.6390 0.6384 0.6388 0.6393
2897.000000 0.6406 0.6420 0.6470 0.6520 0.6593
2902.000000 0.6666 0.6739 0.6812 0.6844 0.6876
2907.000000 0.6891 0.6906 0.6909 0.6912 0.6912
2912.000000 0.6912 0.6906 0.6901 0.6875 0.6849
2917.000000 0.6817 0.6786 0.6637 0.6488 0.6320
2922.000000 0.6152 0.5983 0.5815 0.5587 0.5359
2927.000000 0.5268 0.5178 0.5087 0.4996 0.4905
2932.000000 0.4814 0.4789 0.4741 0.4948 0.5133
2937.000000 0.5253 0.5373 0.5391 0.5410 0.5451
2942.000000 0.5493 0.5644 0.6024 0.5914 0.6032
2947.000000 0.5996 0.5961 0.5605 0.5250 0.5008
2952.000000 0.4767 0.4858 0.4949 0.5088 0.5227
2957.000000 0.5178 0.5130 0.5060 0.4991 0.4921
2962.000000 0.4852 0.4845 0.4792 0.5088 0.5339
2967.000000 0.5589 0.5840 0.6090 0.6341 0.6381
2972.000000 0.6421 0.6438 0.6455 0.6471 0.6487
2977.000000 0.6499 0.6512 0.6531 0.6551 0.6572
2982.000000 0.6593 0.6623 0.6654 0.6686 0.6719
2987.000000 0.6745 0.6771 0.6796 0.6822 0.6847
2992.000000 0.6873 0.6898 0.6924 0.6949 0.6974
2997.000000 0.6997 0.7021 0.7042 0.7063 0.7084
3002.000000 0.7105 0.7126 0.7147 0.7166 0.7186
3007.000000 0.7203 0.7220 0.7237 0.7255 0.7272
3012.000000 0.7289 0.7307 0.7326 0.7345 0.7364
3017.000000 0.7382 0.7401 0.7420 0.7440 0.7461
3022.000000 0.7483 0.7504 0.7526 0.7547 0.7569
3027.000000 0.7593 0.7617 0.7641 0.7666 0.7683
3032.000000 0.7701 0.7718 0.7735 0.7752 0.7769
3037.000000 0.7785 0.7802 0.7824 0.7847 0.7875
3042.000000 0.7904 0.7933 0.7963 0.7993 0.8023
3047.000000 0.8047 0.8071 0.8083 0.8096 0.8109
3052.000000 0.8122 0.8136 0.8150 0.8164 0.8178
3057.000000 0.8191 0.8205 0.8218 0.8231 0.8244
3062.000000 0.8257 0.8269 0.8282 0.8297 0.8312
3067.000000 0.8327 0.8342 0.8357 0.8372 0.8387
3072.000000 0.8402 0.8416 0.8431 0.8445 0.8460
3077.000000 0.8474 0.8488 0.8501 0.8514 0.8527
3082.000000 0.8540 0.8553 0.8566 0.8577 0.8588
3087.000000 0.8597 0.8606 0.8615 0.8624 0.8633
3092.000000 0.8642 0.8651 0.8660 0.8669 0.8678
3097.000000 0.8684 0.8690 0.8695 0.8701 0.8706
3102.000000 0.8712 0.8717 0.8722 0.8727 0.8733
3107.000000 0.8737 0.8741 0.8744 0.8748 0.8752
3112.000000 0.8756 0.8759 0.8763 0.8766 0.8770
3117.000000 0.8773 0.8777 0.8780 0.8783 0.8785
3122.000000 0.8787 0.8788 0.8790 0.8792 0.8794
3127.000000 0.8795 0.8797 0.8798 0.8800 0.8802
3132.000000 0.8804 0.8805 0.8807 0.8809 0.8811
3137.000000 0.8812 0.8814 0.8816 0.8818 0.8818
3142.000000 0.8819 0.8820 0.8821 0.8822 0.8823
3147.000000 0.8823 0.8824 0.8825 0.8826 0.8827
3152.000000 0.8828 0.8828 0.8829 0.8830 0.8831
3157.000000 0.8832 0.8833 0.8833 0.8834 0.8835
3162.000000 0.8836 0.8836 0.8837 0.8837 0.8838
3167.000000 0.8838 0.8839 0.8840 0.8841 0.8841
3172.000000 0.8842 0.8842 0.8843 0.8844 0.8845
3177.000000 0.8845 0.8843 0.8846 0.8847 0.8847
3182.000000 0.8847 0.8847 0.8848 0.8848 0.8848
3187.000000 0.8848 0.8849 0.8849 0.8849 0.8849
3192.000000 0.8850 0.8850 0.8850 0.8850 0.8850
3197.000000 0.8850 0.8851 0.8851 0.8851 0.8851
3202.000000 0.8851 0.8850 0.8850 0.8849 0.8849
3207.000000 0.8848 0.8848 0.8847 0.8847 0.8846
3212.000000 0.8846 0.8845 0.8845 0.8844 0.8844
3217.000000 0.8843 0.8843 0.8842 0.8842 0.8841
3222.000000 0.8841 0.8840 0.8840 0.8839 0.8839
3227.000000 0.8838 0.8838 0.8837 0.8837 0.8835
3232.000000 0.8834 0.8832 0.8831 0.8829 0.8827
3237.000000 0.8825 0.8824 0.8822 0.8821 0.8819
3242.000000 0.8818 0.8816 0.8814 0.8812 0.8811
3247.000000 0.8809 0.8808 0.8806 0.8805 0.8803
3252.000000 0.8801 0.8799 0.8797 0.8794 0.8791
3257.000000 0.8788 0.8785 0.8782 0.8779 0.8776
3262.000000 0.8773 0.8766 0.8760 0.8753 0.8747
3267.000000 0.8741 0.8735 0.8728 0.8722 0.8715
3272.000000 0.8709 0.8699 0.8690 0.8674 0.8659
3277.000000 0.8643 0.8628 0.8608 0.8589 0.8564
3282.000000 0.8539 0.8508 0.8478 0.8440 0.8403
3287.000000 0.8366 0.8329 0.8291 0.8253 0.8214
3292.000000 0.8176 0.8138 0.8100 0.8049 0.7998
3297.000000 0.7938 0.7879 0.7729 0.7580 0.7503
3302.000000 0.7426 0.7219 0.7013 0.6784 0.6556
3307.000000 0.6328 0.6100 0.5871 0.5643 0.5414
3312.000000 0.5186 0.4957 0.4729 0.4500 0.4272
3317.000000 0.4044 0.3816 0.3587 0.3359 0.3130
3322.000000 0.2902 0.2805 0.2724 0.2746 0.2783
3327.000000 0.2978 0.3174 0.3369 0.3565 0.3761
3332.000000 0.3957 0.4152 0.4348 0.4543 0.4739
3337.000000 0.4935 0.5309 0.5206 0.5281 0.4833
3342.000000 0.4385 0.3937 0.3489 0.3041 0.2593
3347.000000 0.2554 0.2516 0.2621 0.2513 0.3179
3352.000000 0.3631 0.4174 0.4717 0.4775 0.4833
3357.000000 0.4960 0.5088 0.5346 0.5604 0.5862
3362.000000 0.6120 0.6378 0.6636 0.6894 0.7152
3367.000000 0.7409 0.7667 0.7914 0.8162 0.8241
3372.000000 0.8321 0.8389 0.8457 0.8506 0.8555
3377.000000 0.8571 0.8587 0.8592 0.8598 0.8598
3382.000000 0.8599 0.8599 0.8600 0.8600 0.8601
3387.000000 0.8602 0.8603 0.8604 0.8605 0.8606
3392.000000 0.8607 0.8609 0.8611 0.8614 0.8618
3397.000000 0.8624 0.8631 0.8646 0.8661 0.8685
3402.000000 0.8710 0.8739 0.8769 0.8791 0.8813
3407.000000 0.8831 0.8850 0.8856 0.8862 0.8868
3412.000000 0.8874 0.8876 0.8878 0.8880 0.8883
3417.000000 0.8885 0.8887 0.8889 0.8892 0.8893
3422.000000 0.8895 0.8896 0.8898 0.8899 0.8901
3427.000000 0.8902 0.8904 0.8905 0.8907 0.8908
3432.000000 0.8910 0.8911 0.8913 0.8912 0.8912
3437.000000 0.8912 0.8912 0.8912 0.8912 0.8911
3442.000000 0.8911 0.8911 0.8911 0.8910 0.8910
3447.000000 0.8910 0.8910 0.8910 0.8910 0.8909
3452.000000 0.8908 0.8907 0.8907 0.8906 0.8906
3457.000000 0.8905 0.8905 0.8904 0.8904 0.8903
3462.000000 0.8902 0.8901 0.8901 0.8900 0.8900
3467.000000 0.8899 0.8899 0.8899 0.8900 0.8900
3472.000000 0.8900 0.8900 0.8901 0.8901 0.8901
3477.000000 0.8901 0.8902 0.8902 0.8902 0.8902
3482.000000 0.8903 0.8903 0.8903 0.8903 0.8903
3487.000000 0.8903 0.8904 0.8904 0.8904 0.8903
3492.000000 0.8903 0.8903 0.8903 0.8903 0.8903
3497.000000 0.8903 0.8903 0.8903 0.8903 0.8902
3502.000000 0.8902 0.8902 0.8902 0.8902 0.8902
3507.000000 0.8902 0.8902 0.8902 0.8902 0.8901
3512.000000 0.8901 0.8901 0.8901 0.8900 0.8900
3517.000000 0.8899 0.8898 0.8897 0.8897 0.8896
3522.000000 0.8896 0.8895 0.8894 0.8893 0.8893
3527.000000 0.8892 0.8892 0.8891 0.8891 0.8890
3532.000000 0.8889 0.8888 0.8888 0.8887 0.8887
3537.000000 0.8886 0.8886 0.8885 0.8884 0.8883
3542.000000 0.8883 0.8882 0.8881 0.8880 0.8879
3547.000000 0.8877 0.8876 0.8875 0.8874 0.8873
3552.000000 0.8872 0.8871 0.8870 0.8869 0.8868
3557.000000 0.8867 0.8853 0.8865 0.8864 0.8862
3562.000000 0.8861 0.8860 0.8859 0.8858 0.8857
3567.000000 0.8856 0.8855 0.8854 0.8853 0.8852
3572.000000 0.8851 0.8849 0.8848 0.8846 0.8845
3577.000000 0.8843 0.8842 0.8840 0.8839 0.8838
3582.000000 0.8837 0.8835 0.8834 0.8832 0.8831
3587.000000 0.8829 0.8828 0.8826 0.8825 0.8823
3592.000000 0.8822 0.8820 0.8819 0.8817 0.8816
3597.000000 0.8814 0.8813 0.8812 0.8811 0.8809
3602.000000 0.8808 0.8807 0.8806 0.8805 0.8804
3607.000000 0.8802 0.8801 0.8800 0.8799 0.8797
3612.000000 0.8796 0.8795 0.8794 0.8793 0.8792
3617.000000 0.8790 0.8789 0.8788 0.8787 0.8786
3622.000000 0.8786 0.8785 0.8785 0.8785 0.8785
3627.000000 0.8784 0.8784 0.8784 0.8784 0.8783
3632.000000 0.8783 0.8782 0.8782 0.8782 0.8782
3637.000000 0.8781 0.8781 0.8781 0.8781 0.8780
3642.000000 0.8780 0.8779 0.8779 0.8778 0.8777
3647.000000 0.8776 0.8776 0.8775 0.8774 0.8773
3652.000000 0.8773 0.8772 0.8771 0.8770 0.8770
3657.000000 0.8770 0.8770 0.8771 0.8772 0.8772
3662.000000 0.8773 0.8774 0.8775 0.8776 0.8777
3667.000000 0.8778 0.8779 0.8780 0.8781 0.8783
3672.000000 0.8785 0.8787 0.8790 0.8793 0.8796
3677.000000 0.8798 0.8800 0.8797 0.8794 0.8790
3682.000000 0.8787 0.8784 0.8782 0.8784 0.8786
3687.000000 0.8787 0.8789 0.8790 0.8792 0.8794
3692.000000 0.8797 0.8801 0.8806 0.8810 0.8814
3697.000000 0.8818 0.8822 0.8826 0.8831 0.8835
3702.000000 0.8839 0.8843 0.8848 0.8850 0.8853
3707.000000 0.8855 0.8857 0.8859 0.8861 0.8863
3712.000000 0.8865 0.8867 0.8869 0.8870 0.8872
3717.000000 0.8872 0.8872 0.8872 0.8872 0.8872
3722.000000 0.8873 0.8873 0.8873 0.8873 0.8873
3727.000000 0.8872 0.8872 0.8872 0.8872 0.8872
3732.000000 0.8872 0.8871 0.8871 0.8871 0.8871
3737.000000 0.8871 0.8871 0.8870 0.8870 0.8870
3742.000000 0.8870 0.8870 0.8870 0.8870 0.8871
3747.000000 0.8871 0.8871 0.8871 0.8872 0.8872
3752.000000 0.8872 0.8872 0.8873 0.8873 0.8873
3757.000000 0.8873 0.8874 0.8874 0.8874 0.8874
3762.000000 0.8874 0.8874 0.8875 0.8875 0.8875
3767.000000 0.8875 0.8875 0.8875 0.8875 0.8875
3772.000000 0.8875 0.8875 0.8875 0.8874 0.8874
3777.000000 0.8873 0.8873 0.8872 0.8872 0.8871
3782.000000 0.8871 0.8870 0.8870 0.8869 0.8868
3787.000000 0.8867 0.8866 0.8865 0.8864 0.8863
3792.000000 0.8862 0.8861 0.8860 0.8859 0.8858
3797.000000 0.8857 0.8857
##END=
