##TITLE=ETHANE, 1,2-DIBROMO-1,1-DICHLORO-
##JCAMP-DX=4.24
##DATA TYPE=INFRARED SPECTRUM
##CLASS=COBLENTZ III
##ORIGIN=DOW CHEMICAL COMPANY
##OWNER=COBLENTZ SOCIETY
Collection (C) 2018 copyright by the U.S. Secretary of Commerce
on behalf of the United States of America. All rights reserved.
##DATE=1961/07/31
##NAMES=1,2-dibromo-1,1-dichloroethane
##CAS REGISTRY NO=75-81-0
##MOLFORM=C2 H2 Br2 Cl2
##SOURCE REFERENCE=COBLENTZ NO. 10021
##$NIST SOURCE=COBLENTZ
##$NIST IMAGE=cob10021
##SPECTROMETER/DATA SYSTEM=DOW KBr FOREPRISM-GRATING
##INSTRUMENT PARAMETERS=BLAZED AT 3.5, 12.0, 20.0 MICRON, CHANGED AT 5.0, 7.5, 14.9 MICRON
##STATE=SOLUTION (10% IN CCl4 FOR 3800-1333, AND 10% IN CS2 FOR 1333-440 CM^-^1)
##PATH LENGTH=0.011, 0.011 CM
$$SPECTRAL CONTAMINATION DUE TO CCl4 AROUND 1550, AND CS2 AROUND 855 CM^-^1
##SAMPLING PROCEDURE=TRANSMISSION
##RESOLUTION=4
##DATA PROCESSING=DIGITIZED BY NIST FROM HARD COPY (FROM TWO SEGMENTS)
##XUNITS=1/CM
##YUNITS=TRANSMITTANCE
##XFACTOR=1.000000
##YFACTOR=1
##DELTAX=0.870038
##FIRSTX=441.762
##LASTX=3792.28
##FIRSTY=0.848
##MAXX=3792.28
##MINX=441.762
##MAXY=1.00789
##MINY=0.159028
##NPOINTS=3852
##XYDATA=(X++(Y..Y))
441.762000 0.8480 0.8480 0.8480 0.8500 0.8500
446.112191 0.8500 0.8510 0.8510 0.8530 0.8540
450.462383 0.8540 0.8540 0.8540 0.8540 0.8570
454.812574 0.8570 0.8570 0.8580 0.8580 0.8590
459.162765 0.8620 0.8650 0.8630 0.8590 0.8580
463.512957 0.8580 0.8580 0.8580 0.8590 0.8590
467.863148 0.8610 0.8610 0.8620 0.8620 0.8610
472.213339 0.8610 0.8590 0.8580 0.8550 0.8540
476.563530 0.8530 0.8510 0.8400 0.8320 0.8230
480.913722 0.8160 0.8060 0.7950 0.7801 0.7651
485.263913 0.7480 0.7250 0.7000 0.6770 0.6760
489.614104 0.6770 0.6969 0.7189 0.7777 0.8188
493.964296 0.8480 0.8770 0.8910 0.8950 0.8960
498.314487 0.9020 0.9070 0.9100 0.9140 0.9140
502.664678 0.9150 0.9170 0.9180 0.9180 0.9190
507.014870 0.9220 0.9230 0.9260 0.9260 0.9260
511.365061 0.9260 0.9270 0.9290 0.9270 0.9270
515.715252 0.9260 0.9260 0.9260 0.9270 0.9290
520.065443 0.9300 0.9300 0.9300 0.9250 0.9190
524.415635 0.9120 0.9060 0.9000 0.8920 0.8820
528.765826 0.8420 0.8140 0.7860 0.7511 0.6702
533.116017 0.6401 0.6400 0.6460 0.6759 0.7068
537.466209 0.8480 0.8720 0.9150 0.9290 0.9330
541.816400 0.9360 0.9410 0.9410 0.9420 0.9450
546.166591 0.9460 0.9490 0.9510 0.9530 0.9550
550.516783 0.9530 0.9520 0.9550 0.9560 0.9570
554.866974 0.9560 0.9560 0.9570 0.9570 0.9570
559.217165 0.9570 0.9590 0.9570 0.9550 0.9530
563.567356 0.9530 0.9550 0.9560 0.9560 0.9570
567.917548 0.9570 0.9590 0.9600 0.9600 0.9570
572.267739 0.9560 0.9590 0.9590 0.9610 0.9610
576.617930 0.9600 0.9600 0.9600 0.9600 0.9560
580.968122 0.9550 0.9550 0.9570 0.9590 0.9560
585.318313 0.9550 0.9510 0.9490 0.9490 0.9490
589.668504 0.9510 0.9510 0.9510 0.9510 0.9490
594.018696 0.9490 0.9480 0.9460 0.9450 0.9450
598.368887 0.9440 0.9410 0.9380 0.9360 0.9310
602.719078 0.9290 0.9250 0.9190 0.9150 0.9140
607.069269 0.9100 0.9030 0.8920 0.8880 0.8720
611.419461 0.8690 0.8540 0.8480 0.8341 0.8231
615.769652 0.8160 0.8100 0.7930 0.7680 0.7450
620.119843 0.7001 0.6820 0.6232 0.5752 0.5272
624.470035 0.4770 0.4090 0.3301 0.3150 0.2232
628.820226 0.2230 0.2499 0.3665 0.5930 0.6388
633.170417 0.7380 0.7740 0.7940 0.8060 0.8100
637.520609 0.8120 0.8120 0.8120 0.8060 0.8040
641.870800 0.7970 0.7940 0.7890 0.7830 0.7780
646.220991 0.7710 0.7590 0.7421 0.7251 0.6991
650.571182 0.6720 0.6570 0.6120 0.5780 0.5630
654.921374 0.5460 0.5041 0.4512 0.4122 0.3423
659.271565 0.2190 0.2080 0.2080 0.2350 0.2100
663.621756 0.2080 0.2040 0.2498 0.3815 0.5224
667.971948 0.5250 0.5260 0.5230 0.4960 0.4631
672.322139 0.4421 0.3722 0.3023 0.2871 0.2611
676.672330 0.2580 0.2590 0.2780 0.3020 0.3489
681.022522 0.4019 0.4319 0.6014 0.6568 0.7058
685.372713 0.7310 0.7490 0.7630 0.7740 0.7800
689.722904 0.7850 0.7890 0.7930 0.7950 0.7970
694.073095 0.8020 0.8040 0.8050 0.8050 0.8050
698.423287 0.7910 0.7760 0.7521 0.7261 0.7061
702.773478 0.6680 0.6090 0.5570 0.5180 0.4781
707.123669 0.3932 0.3142 0.2652 0.2321 0.2280
711.473861 0.2680 0.3020 0.3419 0.4159 0.5557
715.824052 0.6796 0.7358 0.7609 0.7819 0.8039
720.174243 0.8160 0.8190 0.8200 0.8200 0.8200
724.524435 0.8200 0.8210 0.8210 0.8160 0.8080
728.874626 0.7950 0.7900 0.7720 0.7600 0.7440
733.224817 0.7230 0.6931 0.6631 0.6231 0.5822
737.575008 0.5630 0.5380 0.5120 0.4571 0.3981
741.925200 0.3781 0.3760 0.3800 0.4099 0.4458
746.275391 0.5780 0.6200 0.6850 0.7230 0.7440
750.625582 0.7610 0.7670 0.7750 0.7790 0.7870
754.975774 0.7950 0.7980 0.8050 0.8120 0.8130
759.325965 0.8130 0.8010 0.7980 0.7930 0.7821
763.676156 0.7640 0.7510 0.7410 0.7260 0.7020
768.026348 0.6840 0.6391 0.6081 0.5801 0.5561
772.376539 0.5330 0.5080 0.4690 0.4211 0.3671
776.726730 0.3191 0.3170 0.3180 0.3300 0.3549
781.076921 0.3890 0.4130 0.4470 0.5678 0.6039
785.427113 0.6309 0.6729 0.6999 0.7169 0.7598
789.777304 0.7820 0.8050 0.8290 0.8580 0.8730
794.127495 0.8780 0.8820 0.8910 0.8920 0.8960
798.477687 0.9020 0.9120 0.9150 0.9190 0.9190
802.827878 0.9210 0.9230 0.9250 0.9260 0.9290
807.178069 0.9290 0.9300 0.9330 0.9340 0.9400
811.528261 0.9410 0.9410 0.9420 0.9480 0.9490
815.878452 0.9490 0.9520 0.9530 0.9530 0.9550
820.228643 0.9570 0.9560 0.9530 0.9510 0.9490
824.578835 0.9460 0.9460 0.9460 0.9440 0.9410
828.929026 0.9380 0.9380 0.9360 0.9360 0.9340
833.279217 0.9330 0.9260 0.9220 0.9190 0.9120
837.629408 0.9110 0.9080 0.8970 0.8870 0.8770
841.979600 0.8700 0.8610 0.8470 0.8400 0.8310
846.329791 0.8200 0.8130 0.8010 0.7950 0.7860
850.679982 0.7760 0.7720 0.7650 0.7650 0.7670
855.030174 0.7670 0.7680 0.7710 0.7740 0.7750
859.380365 0.7780 0.7790 0.7800 0.7820 0.7830
863.730556 0.7850 0.7890 0.7910 0.7930 0.7950
868.080748 0.7980 0.8050 0.8100 0.8140 0.8200
872.430939 0.8240 0.8290 0.8350 0.8420 0.8500
876.781130 0.8510 0.8530 0.8590 0.8630 0.8680
881.131321 0.8700 0.8700 0.8720 0.8720 0.8740
885.481513 0.8770 0.8770 0.8780 0.8780 0.8740
889.831704 0.8720 0.8690 0.8630 0.8570 0.8480
894.181895 0.8350 0.8250 0.8100 0.7890 0.7740
898.532087 0.7521 0.7261 0.6882 0.6133 0.5822
902.882278 0.5490 0.4630 0.4020 0.3061 0.2311
907.232469 0.1941 0.2269 0.2509 0.2779 0.3138
911.582661 0.2760 0.2470 0.1900 0.1590 0.1800
915.932852 0.2738 0.5942 0.6419 0.7566 0.7998
920.283043 0.8420 0.8500 0.8620 0.8730 0.8800
924.633234 0.8910 0.8930 0.8970 0.9000 0.9070
928.983426 0.9180 0.9230 0.9330 0.9410 0.9440
933.333617 0.9480 0.9510 0.9530 0.9550 0.9560
937.683808 0.9560 0.9570 0.9570 0.9590 0.9600
942.034000 0.9600 0.9610 0.9610 0.9630 0.9630
946.384191 0.9640 0.9680 0.9700 0.9710 0.9710
950.734382 0.9710 0.9710 0.9700 0.9700 0.9700
955.084574 0.9700 0.9710 0.9710 0.9710 0.9720
959.434765 0.9760 0.9780 0.9780 0.9790 0.9800
963.784956 0.9820 0.9820 0.9800 0.9800 0.9790
968.135147 0.9780 0.9780 0.9800 0.9820 0.9820
972.485339 0.9820 0.9800 0.9800 0.9790 0.9790
976.835530 0.9790 0.9800 0.9800 0.9820 0.9830
981.185721 0.9830 0.9830 0.9830 0.9820 0.9800
985.535913 0.9800 0.9790 0.9790 0.9790 0.9790
989.886104 0.9790 0.9790 0.9800 0.9820 0.9830
994.236295 0.9830 0.9830 0.9820 0.9790 0.9790
998.586487 0.9780 0.9780 0.9780 0.9780 0.9780
1002.936678 0.9780 0.9780 0.9780 0.9780 0.9790
1007.286869 0.9790 0.9790 0.9790 0.9820 0.9820
1011.637060 0.9800 0.9780 0.9760 0.9720 0.9720
1015.987252 0.9710 0.9700 0.9680 0.9650 0.9640
1020.337443 0.9610 0.9590 0.9570 0.9570 0.9570
1024.687634 0.9550 0.9550 0.9530 0.9530 0.9520
1029.037826 0.9490 0.9480 0.9460 0.9450 0.9420
1033.388017 0.9360 0.9310 0.9260 0.9150 0.9110
1037.738208 0.9020 0.8930 0.8910 0.8621 0.8481
1042.088400 0.8310 0.8120 0.7790 0.7560 0.7231
1046.438591 0.7180 0.7190 0.7260 0.7370 0.7599
1050.788782 0.7830 0.7970 0.8200 0.8580 0.8910
1055.138973 0.9110 0.9220 0.9360 0.9420 0.9510
1059.489165 0.9550 0.9590 0.9570 0.9560 0.9550
1063.839356 0.9560 0.9630 0.9640 0.9650 0.9640
1068.189547 0.9640 0.9640 0.9650 0.9670 0.9670
1072.539739 0.9680 0.9680 0.9700 0.9700 0.9710
1076.889930 0.9720 0.9740 0.9750 0.9750 0.9760
1081.240121 0.9760 0.9780 0.9780 0.9790 0.9820
1085.590313 0.9820 0.9820 0.9820 0.9820 0.9820
1089.940504 0.9820 0.9820 0.9830 0.9820 0.9820
1094.290695 0.9800 0.9790 0.9790 0.9790 0.9790
1098.640886 0.9820 0.9820 0.9780 0.9780 0.9790
1102.991078 0.9860 0.9890 0.9950 0.9930 0.9900
1107.341269 0.9900 0.9900 0.9910 0.9940 0.9940
1111.691460 0.9910 0.9910 0.9910 0.9910 0.9910
1116.041652 0.9900 0.9900 0.9910 0.9910 0.9910
1120.391843 0.9900 0.9900 0.9890 0.9830 0.9790
1124.742034 0.9780 0.9830 0.9860 0.9870 0.9890
1129.092226 0.9890 0.9860 0.9860 0.9860 0.9860
1133.442417 0.9850 0.9850 0.9850 0.9830 0.9790
1137.792608 0.9780 0.9780 0.9780 0.9780 0.9780
1142.142800 0.9820 0.9790 0.9760 0.9750 0.9750
1146.492991 0.9720 0.9720 0.9720 0.9710 0.9680
1150.843182 0.9670 0.9670 0.9670 0.9650 0.9640
1155.193373 0.9630 0.9610 0.9590 0.9570 0.9570
1159.543565 0.9550 0.9530 0.9530 0.9450 0.9410
1163.893756 0.9370 0.9310 0.9220 0.9120 0.9060
1168.243947 0.8920 0.8800 0.8531 0.8211 0.7971
1172.594139 0.7750 0.7000 0.6770 0.6510 0.5782
1176.944330 0.5750 0.5750 0.5969 0.6458 0.6948
1181.294521 0.7440 0.7910 0.8200 0.9059 0.9210
1185.644713 0.9310 0.9360 0.9410 0.9460 0.9530
1189.994904 0.9560 0.9610 0.9630 0.9630 0.9630
1194.345095 0.9610 0.9600 0.9600 0.9600 0.9630
1198.695286 0.9640 0.9650 0.9700 0.9720 0.9720
1203.045478 0.9750 0.9750 0.9750 0.9750 0.9750
1207.395669 0.9760 0.9760 0.9760 0.9700 0.9700
1211.745860 0.9680 0.9650 0.9640 0.9630 0.9630
1216.096052 0.9570 0.9450 0.9440 0.9440 0.9360
1220.446243 0.9260 0.9180 0.9110 0.9000 0.8881
1224.796434 0.8690 0.8530 0.8350 0.8210 0.8000
1229.146626 0.7721 0.7401 0.7041 0.6662 0.6013
1233.496817 0.5360 0.5140 0.5140 0.5250 0.6019
1237.847008 0.6389 0.6769 0.8116 0.8738 0.8889
1242.197199 0.8970 0.9110 0.9110 0.9120 0.9170
1246.547391 0.9210 0.9300 0.9360 0.9400 0.9410
1250.897582 0.9460 0.9460 0.9490 0.9510 0.9530
1255.247773 0.9530 0.9550 0.9550 0.9550 0.9560
1259.597965 0.9590 0.9610 0.9610 0.9600 0.9600
1263.948156 0.9590 0.9590 0.9600 0.9640 0.9670
1268.298347 0.9680 0.9700 0.9720 0.9720 0.9670
1272.648539 0.9680 0.9700 0.9750 0.9750 0.9760
1276.998730 0.9710 0.9700 0.9700 0.9680 0.9680
1281.348921 0.9670 0.9670 0.9710 0.9710 0.9680
1285.699112 0.9670 0.9700 0.9700 0.9710 0.9710
1290.049304 0.9720 0.9720 0.9720 0.9720 0.9720
1294.399495 0.9760 0.9760 0.9750 0.9750 0.9750
1298.749686 0.9760 0.9760 0.9720 0.9720 0.9700
1303.099878 0.9670 0.9670 0.9680 0.9700 0.9700
1307.450069 0.9700 0.9700 0.9700 0.9670 0.9670
1311.800260 0.9680 0.9700 0.9710 0.9710 0.9710
1316.150452 0.9720 0.9740 0.9750 0.9760 0.9720
1320.500643 0.9710 0.9710 0.9710 0.9720 0.9740
1324.850834 0.9740 0.9700 0.9670 0.9650 0.9650
1329.201025 0.9680 0.9700 0.9710 0.9710 0.9740
1333.551217 0.9760 0.9780 0.9780 0.9780 0.9780
1337.901408 0.9760 0.9700 0.9680 0.9680 0.9700
1342.251599 0.9710 0.9720 0.9720 0.9740 0.9750
1346.601791 0.9760 0.9750 0.9740 0.9720 0.9710
1350.951982 0.9710 0.9710 0.9710 0.9710 0.9670
1355.302173 0.9640 0.9600 0.9560 0.9550 0.9530
1359.652365 0.9510 0.9520 0.9560 0.9560 0.9590
1364.002556 0.9610 0.9630 0.9640 0.9650 0.9670
1368.352747 0.9680 0.9700 0.9700 0.9700 0.9700
1372.702938 0.9650 0.9650 0.9710 0.9710 0.9720
1377.053130 0.9760 0.9760 0.9780 0.9740 0.9720
1381.403321 0.9740 0.9740 0.9760 0.9780 0.9760
1385.753512 0.9720 0.9700 0.9700 0.9710 0.9720
1390.103704 0.9760 0.9760 0.9760 0.9780 0.9780
1394.453895 0.9760 0.9750 0.9720 0.9700 0.9650
1398.804086 0.9630 0.9590 0.9550 0.9480 0.9450
1403.154278 0.9380 0.9330 0.9181 0.9120 0.9040
1407.504469 0.8770 0.8570 0.8170 0.7910 0.6582
1411.854660 0.6500 0.6311 0.7057 0.7638 0.8864
1416.204851 0.9110 0.9210 0.9260 0.9300 0.9310
1420.555043 0.9370 0.9420 0.9450 0.9460 0.9460
1424.905234 0.9490 0.9510 0.9530 0.9560 0.9530
1429.255425 0.9530 0.9560 0.9570 0.9570 0.9570
1433.605617 0.9590 0.9590 0.9590 0.9570 0.9560
1437.955808 0.9560 0.9560 0.9610 0.9650 0.9670
1442.305999 0.9650 0.9640 0.9610 0.9570 0.9560
1446.656191 0.9560 0.9560 0.9560 0.9560 0.9550
1451.006382 0.9530 0.9550 0.9560 0.9560 0.9560
1455.356573 0.9560 0.9550 0.9550 0.9530 0.9530
1459.706764 0.9530 0.9520 0.9520 0.9510 0.9490
1464.056956 0.9490 0.9450 0.9440 0.9420 0.9410
1468.407147 0.9380 0.9370 0.9340 0.9310 0.9300
1472.757338 0.9290 0.9290 0.9290 0.9270 0.9260
1477.107530 0.9260 0.9260 0.9260 0.9260 0.9250
1481.457721 0.9220 0.9210 0.9190 0.9170 0.9150
1485.807912 0.9120 0.9110 0.9030 0.8950 0.8920
1490.158104 0.8890 0.8840 0.8820 0.8820 0.8810
1494.508295 0.8810 0.8740 0.8690 0.8510 0.8480
1498.858486 0.8470 0.8460 0.8400 0.8360 0.8340
1503.208678 0.8250 0.8170 0.8100 0.7900 0.7750
1507.558869 0.7650 0.7640 0.7630 0.7610 0.7600
1511.909060 0.7600 0.7590 0.7560 0.7480 0.7450
1516.259251 0.7410 0.7290 0.7230 0.7220 0.7150
1520.609443 0.7070 0.6950 0.6910 0.6890 0.6890
1524.959634 0.6870 0.6840 0.6780 0.6740 0.6700
1529.309825 0.6680 0.6650 0.6550 0.6470 0.6320
1533.660017 0.6170 0.6020 0.5970 0.5940 0.5890
1538.010208 0.5750 0.5610 0.5450 0.5290 0.5170
1542.360399 0.5150 0.5140 0.5120 0.5120 0.5110
1546.710591 0.5110 0.5070 0.5060 0.5060 0.5060
1551.060782 0.5070 0.5110 0.5120 0.5140 0.5250
1555.410973 0.5600 0.5610 0.5640 0.5790 0.5970
1559.761164 0.6010 0.5970 0.5950 0.5940 0.5950
1564.111356 0.6020 0.6170 0.6290 0.6320 0.6400
1568.461547 0.6500 0.6540 0.6630 0.6650 0.6650
1572.811738 0.6660 0.6700 0.6770 0.6800 0.6810
1577.161930 0.6820 0.6820 0.6840 0.6850 0.6870
1581.512121 0.6890 0.6910 0.6910 0.6950 0.6960
1585.862312 0.6990 0.7070 0.7100 0.7180 0.7230
1590.212504 0.7310 0.7370 0.7440 0.7520 0.7610
1594.562695 0.7710 0.7750 0.7760 0.7790 0.7890
1598.912886 0.8010 0.8140 0.8310 0.8460 0.8530
1603.263077 0.8550 0.8630 0.8700 0.8780 0.8870
1607.613269 0.8910 0.8930 0.8990 0.9070 0.9110
1611.963460 0.9120 0.9140 0.9150 0.9180 0.9220
1616.313651 0.9230 0.9250 0.9250 0.9250 0.9260
1620.663843 0.9270 0.9270 0.9290 0.9290 0.9290
1625.014034 0.9290 0.9290 0.9290 0.9310 0.9310
1629.364225 0.9300 0.9290 0.9250 0.9250 0.9230
1633.714417 0.9230 0.9230 0.9190 0.9180 0.9150
1638.064608 0.9150 0.9180 0.9180 0.9190 0.9210
1642.414799 0.9210 0.9220 0.9220 0.9250 0.9290
1646.764990 0.9310 0.9310 0.9330 0.9360 0.9410
1651.115182 0.9460 0.9480 0.9490 0.9490 0.9490
1655.465373 0.9490 0.9480 0.9480 0.9510 0.9520
1659.815564 0.9550 0.9570 0.9570 0.9570 0.9560
1664.165756 0.9560 0.9590 0.9610 0.9640 0.9640
1668.515947 0.9650 0.9650 0.9640 0.9640 0.9670
1672.866138 0.9680 0.9700 0.9700 0.9710 0.9710
1677.216330 0.9680 0.9670 0.9670 0.9700 0.9710
1681.566521 0.9710 0.9710 0.9710 0.9720 0.9750
1685.916712 0.9750 0.9710 0.9720 0.9750 0.9780
1690.266903 0.9800 0.9800 0.9780 0.9780 0.9700
1694.617095 0.9700 0.9760 0.9780 0.9780 0.9740
1698.967286 0.9740 0.9760 0.9750 0.9750 0.9750
1703.317477 0.9750 0.9740 0.9740 0.9750 0.9750
1707.667669 0.9750 0.9740 0.9740 0.9740 0.9740
1712.017860 0.9740 0.9780 0.9780 0.9740 0.9720
1716.368051 0.9740 0.9750 0.9760 0.9780 0.9780
1720.718243 0.9790 0.9780 0.9790 0.9800 0.9860
1725.068434 0.9860 0.9790 0.9790 0.9780 0.9780
1729.418625 0.9780 0.9800 0.9800 0.9780 0.9780
1733.768816 0.9750 0.9720 0.9720 0.9720 0.9720
1738.119008 0.9740 0.9760 0.9790 0.9800 0.9800
1742.469199 0.9800 0.9820 0.9830 0.9830 0.9820
1746.819390 0.9800 0.9800 0.9800 0.9820 0.9780
1751.169582 0.9800 0.9800 0.9800 0.9820 0.9800
1755.519773 0.9800 0.9780 0.9760 0.9790 0.9790
1759.869964 0.9790 0.9790 0.9780 0.9780 0.9740
1764.220156 0.9740 0.9760 0.9780 0.9780 0.9780
1768.570347 0.9780 0.9800 0.9820 0.9830 0.9850
1772.920538 0.9870 0.9890 0.9890 0.9860 0.9820
1777.270729 0.9790 0.9780 0.9780 0.9780 0.9790
1781.620921 0.9790 0.9790 0.9800 0.9820 0.9800
1785.971112 0.9800 0.9790 0.9780 0.9760 0.9760
1790.321303 0.9750 0.9670 0.9670 0.9700 0.9720
1794.671495 0.9720 0.9750 0.9740 0.9750 0.9760
1799.021686 0.9750 0.9760 0.9790 0.9790 0.9790
1803.371877 0.9780 0.9780 0.9780 0.9760 0.9760
1807.722069 0.9750 0.9750 0.9750 0.9760 0.9780
1812.072260 0.9760 0.9760 0.9750 0.9750 0.9750
1816.422451 0.9760 0.9760 0.9780 0.9790 0.9790
1820.772642 0.9800 0.9800 0.9830 0.9830 0.9800
1825.122834 0.9800 0.9800 0.9830 0.9830 0.9780
1829.473025 0.9710 0.9710 0.9720 0.9720 0.9720
1833.823216 0.9720 0.9720 0.9710 0.9710 0.9710
1838.173408 0.9720 0.9760 0.9760 0.9780 0.9780
1842.523599 0.9780 0.9750 0.9740 0.9750 0.9760
1846.873790 0.9790 0.9790 0.9790 0.9790 0.9740
1851.223982 0.9740 0.9760 0.9760 0.9760 0.9760
1855.574173 0.9760 0.9750 0.9720 0.9720 0.9710
1859.924364 0.9710 0.9720 0.9740 0.9760 0.9760
1864.274556 0.9760 0.9760 0.9750 0.9750 0.9760
1868.624747 0.9760 0.9760 0.9750 0.9740 0.9720
1872.974938 0.9710 0.9710 0.9750 0.9780 0.9790
1877.325129 0.9790 0.9800 0.9820 0.9820 0.9830
1881.675321 0.9820 0.9820 0.9790 0.9780 0.9780
1886.025512 0.9760 0.9790 0.9800 0.9790 0.9820
1890.375703 0.9830 0.9850 0.9830 0.9830 0.9830
1894.725895 0.9830 0.9850 0.9860 0.9870 0.9860
1899.076086 0.9830 0.9800 0.9790 0.9780 0.9780
1903.426277 0.9780 0.9790 0.9790 0.9790 0.9790
1907.776469 0.9800 0.9800 0.9800 0.9790 0.9790
1912.126660 0.9790 0.9790 0.9790 0.9790 0.9760
1916.476851 0.9760 0.9790 0.9790 0.9800 0.9800
1920.827042 0.9850 0.9860 0.9860 0.9860 0.9860
1925.177234 0.9860 0.9850 0.9850 0.9850 0.9850
1929.527425 0.9850 0.9850 0.9830 0.9830 0.9860
1933.877616 0.9860 0.9820 0.9790 0.9790 0.9790
1938.227808 0.9790 0.9790 0.9790 0.9790 0.9800
1942.577999 0.9820 0.9820 0.9820 0.9820 0.9820
1946.928190 0.9830 0.9850 0.9850 0.9870 0.9870
1951.278382 0.9850 0.9820 0.9820 0.9820 0.9790
1955.628573 0.9820 0.9830 0.9870 0.9910 1.0000
1959.978764 0.9980 0.9830 0.9790 0.9820 0.9800
1964.328955 0.9800 0.9800 0.9790 0.9760 0.9720
1968.679147 0.9720 0.9740 0.9780 0.9790 0.9780
1973.029338 0.9750 0.9740 0.9740 0.9780 0.9790
1977.379529 0.9790 0.9790 0.9790 0.9780 0.9790
1981.729721 0.9790 0.9790 0.9790 0.9800 0.9790
1986.079912 0.9790 0.9760 0.9561 0.9789 0.9999
1990.430103 1.0000 0.9910 0.9900 0.9890 0.9860
1994.780295 0.9830 0.9750 0.9790 0.9900 0.9910
1999.130486 0.9910 0.9910 0.9920 0.9930 0.9930
2003.480677 0.9930 0.9930 0.9930 0.9930 0.9930
2007.830868 0.9930 0.9930 0.9900 0.9870 0.9831
2012.181060 0.9791 0.9790 0.9790 0.9858 0.9928
2016.531251 0.9900 0.9870 0.9870 0.9870 0.9880
2020.881442 0.9890 0.9915 0.9940 0.9940 0.9940
2025.231634 0.9945 0.9950 0.9950 0.9950 0.9950
2029.581825 0.9950 0.9974 0.9999 1.0010 1.0020
2033.932016 1.0035 1.0050 1.0050 1.0050 1.0045
2038.282208 1.0040 1.0030 1.0020 1.0010 1.0000
2042.632399 0.9976 0.9951 0.9945 0.9940 0.9935
2046.982590 0.9930 0.9920 0.9910 0.9920 0.9930
2051.332781 0.9930 0.9930 0.9920 0.9910 0.9910
2055.682973 0.9910 0.9910 0.9910 0.9900 0.9890
2060.033164 0.9890 0.9890 0.9880 0.9870 0.9870
2064.383355 0.9870 0.9870 0.9870 0.9880 0.9890
2068.733547 0.9900 0.9910 0.9910 0.9910 0.9905
2073.083738 0.9900 0.9905 0.9910 0.9920 0.9930
2077.433929 0.9930 0.9930 0.9935 0.9940 0.9926
2081.784121 0.9911 0.9886 0.9861 0.9855 0.9850
2086.134312 0.9841 0.9830 0.9830 0.9830 0.9844
2090.484503 0.9859 0.9865 0.9870 0.9870 0.9870
2094.834694 0.9870 0.9870 0.9870 0.9870 0.9828
2099.184886 0.9783 0.9817 0.9857 0.9883 0.9908
2103.535077 0.9929 0.9949 0.9950 0.9950 0.9950
2107.885268 0.9950 0.9974 0.9999 0.9977 0.9952
2112.235460 0.9941 0.9931 0.9930 0.9930 0.9921
2116.585651 0.9911 0.9910 0.9910 0.9910 0.9910
2120.935842 0.9919 0.9929 0.9930 0.9930 0.9935
2125.286034 0.9940 0.9959 0.9979 0.9989 0.9999
2129.636225 1.0005 1.0010 1.0010 1.0010 1.0005
2133.986416 1.0000 0.9991 0.9981 0.9966 0.9951
2138.336607 0.9927 0.9902 0.9895 0.9890 0.9890
2142.686799 0.9890 0.9890 0.9890 0.9890 0.9890
2147.036990 0.9890 0.9890 0.9895 0.9900 0.9923
2151.387181 0.9948 0.9959 0.9969 0.9975 0.9980
2155.737373 0.9980 0.9980 0.9989 0.9999 1.0000
2160.087564 1.0000 1.0000 1.0000 0.9991 0.9981
2164.437755 0.9966 0.9951 0.9950 0.9950 0.9945
2168.787947 0.9940 0.9940 0.9940 0.9940 0.9940
2173.138138 0.9940 0.9940 0.9940 0.9940 0.9945
2177.488329 0.9950 0.9973 0.9998 1.0000 1.0000
2181.838521 0.9977 0.9952 0.9945 0.9940 0.9936
2186.188712 0.9931 0.9917 0.9902 0.9904 0.9909
2190.538903 0.9923 0.9939 0.9940 0.9940 0.9940
2194.889094 0.9940 0.9940 0.9940 0.9940 0.9940
2199.239286 0.9944 0.9949 0.9950 0.9950 0.9950
2203.589477 0.9950 0.9950 0.9950 0.9950 0.9950
2207.939668 0.9946 0.9941 0.9936 0.9931 0.9921
2212.289860 0.9911 0.9901 0.9891 0.9890 0.9890
2216.640051 0.9890 0.9890 0.9894 0.9899 0.9904
2220.990242 0.9909 0.9919 0.9929 0.9930 0.9930
2225.340434 0.9930 0.9930 0.9930 0.9930 0.9930
2229.690625 0.9930 0.9930 0.9930 0.9930 0.9930
2234.040816 0.9930 0.9930 0.9930 0.9930 0.9930
2238.391007 0.9930 0.9930 0.9930 0.9921 0.9911
2242.741199 0.9906 0.9901 0.9896 0.9891 0.9890
2247.091390 0.9890 0.9877 0.9862 0.9847 0.9832
2251.441581 0.9826 0.9821 0.9811 0.9801 0.9800
2255.791773 0.9800 0.9809 0.9819 0.9820 0.9820
2260.141964 0.9824 0.9829 0.9839 0.9849 0.9850
2264.492155 0.9850 0.9841 0.9831 0.9830 0.9830
2268.842347 0.9826 0.9821 0.9811 0.9801 0.9791
2273.192538 0.9781 0.9771 0.9761 0.9760 0.9760
2277.542729 0.9760 0.9760 0.9756 0.9751 0.9737
2281.892920 0.9722 0.9720 0.9720 0.9716 0.9711
2286.243112 0.9710 0.9710 0.9706 0.9701 0.9700
2290.593303 0.9700 0.9700 0.9700 0.9692 0.9682
2294.943494 0.9680 0.9680 0.9680 0.9680 0.9680
2299.293686 0.9680 0.9676 0.9671 0.9653 0.9633
2303.643877 0.9622 0.9612 0.9593 0.9573 0.9566
2307.994068 0.9561 0.9564 0.9569 0.9624 0.9689
2312.344260 0.9700 0.9700 0.9670 0.9635 0.9622
2316.694451 0.9612 0.9610 0.9610 0.9648 0.9693
2321.044642 0.9733 0.9773 0.9788 0.9798 0.9812
2325.394833 0.9827 0.9826 0.9821 0.9808 0.9793
2329.745025 0.9898 1.0029 1.0050 1.0050 1.0037
2334.095216 1.0023 1.0012 1.0002 0.9979 0.9954
2338.445407 0.9917 0.9877 0.9854 0.9834 0.9801
2342.795599 0.9766 0.9756 0.9751 0.9750 0.9750
2347.145790 0.9746 0.9741 0.9723 0.9703 0.9688
2351.495981 0.9673 0.9670 0.9670 0.9674 0.9679
2355.846173 0.9688 0.9698 0.9704 0.9709 0.9714
2360.196364 0.9719 0.9732 0.9747 0.9754 0.9759
2364.546555 0.9760 0.9760 0.9760 0.9760 0.9768
2368.896746 0.9778 0.9788 0.9798 0.9812 0.9827
2373.246938 0.9842 0.9857 0.9872 0.9887 0.9894
2377.597129 0.9899 0.9896 0.9891 0.9894 0.9899
2381.947320 0.9912 0.9927 0.9930 0.9930 0.9934
2386.297512 0.9939 0.9944 0.9949 0.9946 0.9941
2390.647703 0.9928 0.9913 0.9910 0.9910 0.9906
2394.997894 0.9901 0.9900 0.9900 0.9900 0.9900
2399.348086 0.9900 0.9900 0.9900 0.9900 0.9900
2403.698277 0.9900 0.9900 0.9900 0.9900 0.9900
2408.048468 0.9900 0.9900 0.9904 0.9909 0.9910
2412.398659 0.9910 0.9910 0.9910 0.9906 0.9901
2416.748851 0.9896 0.9891 0.9890 0.9890 0.9894
2421.099042 0.9899 0.9904 0.9909 0.9910 0.9910
2425.449233 0.9918 0.9928 0.9934 0.9939 0.9967
2429.799425 1.0002 1.0010 1.0010 1.0006 1.0001
2434.149616 0.9973 0.9937 0.9922 0.9912 0.9902
2438.499807 0.9892 0.9882 0.9872 0.9870 0.9870
2442.849999 0.9870 0.9870 0.9870 0.9870 0.9870
2447.200190 0.9870 0.9870 0.9870 0.9870 0.9870
2451.550381 0.9878 0.9888 0.9890 0.9890 0.9882
2455.900572 0.9872 0.9866 0.9861 0.9860 0.9860
2460.250764 0.9856 0.9851 0.9850 0.9850 0.9850
2464.600955 0.9850 0.9854 0.9859 0.9860 0.9860
2468.951146 0.9864 0.9869 0.9882 0.9897 0.9912
2473.301338 0.9927 0.9930 0.9930 0.9930 0.9930
2477.651529 0.9922 0.9912 0.9910 0.9910 0.9921
2482.001720 0.9936 0.9944 0.9949 0.9950 0.9950
2486.351912 0.9942 0.9932 0.9930 0.9930 0.9922
2490.702103 0.9912 0.9906 0.9901 0.9904 0.9909
2495.052294 0.9910 0.9910 0.9910 0.9910 0.9910
2499.402485 0.9910 0.9917 0.9927 0.9930 0.9930
2503.752677 0.9930 0.9930 0.9930 0.9930 0.9922
2508.102868 0.9913 0.9910 0.9910 0.9917 0.9927
2512.453059 0.9937 0.9947 0.9969 0.9993 0.9978
2516.803251 0.9948 0.9966 1.0001 1.0010 1.0010
2521.153442 0.9999 0.9984 0.9969 0.9954 0.9950
2525.503633 0.9950 0.9950 0.9950 0.9950 0.9950
2529.853825 0.9950 0.9950 0.9957 0.9967 0.9974
2534.204016 0.9979 0.9987 0.9997 1.0000 1.0000
2538.554207 1.0000 1.0000 0.9989 0.9974 0.9959
2542.904399 0.9944 0.9940 0.9940 0.9940 0.9940
2547.254590 0.9936 0.9931 0.9934 0.9939 0.9940
2551.604781 0.9940 0.9929 0.9914 0.9910 0.9910
2555.954972 0.9910 0.9910 0.9910 0.9910 0.9917
2560.305164 0.9927 0.9923 0.9913 0.9910 0.9910
2564.655355 0.9910 0.9910 0.9910 0.9910 0.9910
2569.005546 0.9910 0.9910 0.9910 0.9910 0.9910
2573.355738 0.9906 0.9901 0.9900 0.9900 0.9900
2577.705929 0.9900 0.9889 0.9874 0.9866 0.9861
2582.056120 0.9864 0.9869 0.9870 0.9870 0.9877
2586.406312 0.9887 0.9890 0.9890 0.9893 0.9898
2590.756503 0.9904 0.9909 0.9921 0.9936 0.9940
2595.106694 0.9940 0.9944 0.9949 0.9957 0.9967
2599.456885 0.9970 0.9970 0.9949 0.9919 0.9907
2603.807077 0.9902 0.9900 0.9900 0.9903 0.9908
2608.157268 0.9917 0.9927 0.9930 0.9930 0.9930
2612.507459 0.9930 0.9930 0.9930 0.9933 0.9938
2616.857651 0.9940 0.9940 0.9940 0.9940 0.9961
2621.207842 0.9991 1.0000 1.0000 0.9993 0.9983
2625.558033 0.9977 0.9972 0.9963 0.9953 0.9947
2629.908225 0.9942 0.9923 0.9898 0.9883 0.9873
2634.258416 0.9867 0.9862 0.9857 0.9852 0.9850
2638.608607 0.9850 0.9843 0.9833 0.9837 0.9847
2642.958798 0.9850 0.9850 0.9864 0.9884 0.9893
2647.308990 0.9898 0.9903 0.9908 0.9910 0.9910
2651.659181 0.9907 0.9902 0.9900 0.9900 0.9900
2656.009372 0.9900 0.9900 0.9900 0.9900 0.9900
2660.359564 0.9900 0.9900 0.9903 0.9908 0.9910
2664.709755 0.9910 0.9917 0.9927 0.9930 0.9930
2669.059946 0.9930 0.9930 0.9923 0.9913 0.9910
2673.410138 0.9910 0.9910 0.9910 0.9910 0.9910
2677.760329 0.9910 0.9910 0.9910 0.9910 0.9917
2682.110520 0.9927 0.9933 0.9938 0.9943 0.9948
2686.460711 0.9947 0.9942 0.9940 0.9940 0.9940
2690.810903 0.9940 0.9943 0.9948 0.9947 0.9942
2695.161094 0.9937 0.9932 0.9930 0.9930 0.9933
2699.511285 0.9938 0.9940 0.9940 0.9937 0.9932
2703.861477 0.9924 0.9914 0.9907 0.9902 0.9900
2708.211668 0.9900 0.9900 0.9900 0.9900 0.9900
2712.561859 0.9900 0.9900 0.9903 0.9908 0.9907
2716.912051 0.9902 0.9900 0.9900 0.9903 0.9908
2721.262242 0.9910 0.9910 0.9910 0.9910 0.9910
2725.612433 0.9910 0.9910 0.9910 0.9910 0.9910
2729.962624 0.9910 0.9910 0.9910 0.9910 0.9910
2734.312816 0.9910 0.9910 0.9910 0.9910 0.9910
2738.663007 0.9910 0.9910 0.9916 0.9926 0.9933
2743.013198 0.9938 0.9940 0.9940 0.9940 0.9940
2747.363390 0.9940 0.9940 0.9940 0.9940 0.9950
2751.713581 0.9964 0.9973 0.9978 0.9980 0.9980
2756.063772 0.9967 0.9948 0.9940 0.9940 0.9937
2760.413964 0.9932 0.9930 0.9930 0.9930 0.9930
2764.764155 0.9933 0.9938 0.9940 0.9940 0.9940
2769.114346 0.9940 0.9940 0.9940 0.9940 0.9940
2773.464537 0.9952 0.9972 0.9980 0.9980 0.9968
2777.814729 0.9948 0.9937 0.9932 0.9930 0.9930
2782.164920 0.9924 0.9914 0.9910 0.9910 0.9916
2786.515111 0.9926 0.9930 0.9930 0.9930 0.9930
2790.865303 0.9933 0.9938 0.9949 0.9964 0.9973
2795.215494 0.9978 0.9980 0.9980 0.9977 0.9972
2799.565685 0.9958 0.9938 0.9918 0.9898 0.9881
2803.915877 0.9866 0.9857 0.9852 0.9850 0.9850
2808.266068 0.9850 0.9850 0.9862 0.9882 0.9893
2812.616259 0.9898 0.9900 0.9900 0.9900 0.9900
2816.966450 0.9903 0.9908 0.9907 0.9902 0.9900
2821.316642 0.9900 0.9903 0.9908 0.9916 0.9926
2825.666833 0.9930 0.9930 0.9933 0.9938 0.9940
2830.017024 0.9940 0.9928 0.9908 0.9900 0.9900
2834.367216 0.9903 0.9908 0.9910 0.9910 0.9910
2838.717407 0.9910 0.9916 0.9926 0.9924 0.9914
2843.067598 0.9916 0.9926 0.9930 0.9930 0.9933
2847.417790 0.9938 0.9940 0.9940 0.9937 0.9932
2851.767981 0.9924 0.9914 0.9910 0.9910 0.9910
2856.118172 0.9910 0.9907 0.9902 0.9900 0.9900
2860.468364 0.9900 0.9900 0.9900 0.9900 0.9900
2864.818555 0.9900 0.9900 0.9900 0.9900 0.9900
2869.168746 0.9903 0.9908 0.9916 0.9926 0.9933
2873.518937 0.9938 0.9940 0.9940 0.9940 0.9940
2877.869129 0.9940 0.9940 0.9940 0.9940 0.9940
2882.219320 0.9940 0.9940 0.9940 0.9940 0.9940
2886.569511 0.9940 0.9940 0.9957 0.9987 1.0000
2890.919703 1.0000 0.9992 0.9977 0.9964 0.9954
2895.269894 0.9950 0.9950 0.9950 0.9950 0.9950
2899.620085 0.9950 0.9950 0.9950 0.9947 0.9942
2903.970277 0.9929 0.9909 0.9897 0.9892 0.9884
2908.320468 0.9874 0.9870 0.9870 0.9870 0.9870
2912.670659 0.9870 0.9870 0.9870 0.9870 0.9875
2917.020850 0.9885 0.9893 0.9898 0.9897 0.9892
2921.371042 0.9890 0.9890 0.9882 0.9867 0.9868
2925.721233 0.9883 0.9890 0.9890 0.9890 0.9890
2930.071424 0.9890 0.9890 0.9890 0.9890 0.9890
2934.421616 0.9890 0.9890 0.9890 0.9890 0.9890
2938.771807 0.9890 0.9890 0.9890 0.9890 0.9885
2943.121998 0.9875 0.9865 0.9855 0.9845 0.9835
2947.472190 0.9830 0.9830 0.9827 0.9822 0.9815
2951.822381 0.9805 0.9790 0.9770 0.9747 0.9722
2956.172572 0.9689 0.9649 0.9609 0.9569 0.9476
2960.522763 0.9336 0.9191 0.9041 0.8970 0.8970
2964.872955 0.8975 0.8985 0.9003 0.9028 0.9050
2969.223146 0.9070 0.9103 0.9148 0.9190 0.9230
2973.573337 0.9337 0.9509 0.9622 0.9681 0.9723
2977.923529 0.9748 0.9760 0.9760 0.9768 0.9783
2982.273720 0.9793 0.9798 0.9800 0.9800 0.9797
2986.623911 0.9792 0.9793 0.9798 0.9805 0.9815
2990.974103 0.9823 0.9828 0.9838 0.9853 0.9863
2995.324294 0.9868 0.9870 0.9870 0.9870 0.9870
2999.674485 0.9875 0.9885 0.9893 0.9898 0.9900
3004.024676 0.9900 0.9900 0.9900 0.9898 0.9893
3008.374868 0.9883 0.9867 0.9845 0.9815 0.9795
3012.725059 0.9785 0.9775 0.9765 0.9757 0.9753
3017.075250 0.9723 0.9668 0.9603 0.9528 0.9453
3021.425442 0.9378 0.9318 0.9273 0.9245 0.9235
3025.775633 0.9237 0.9252 0.9268 0.9283 0.9302
3030.125824 0.9327 0.9350 0.9370 0.9405 0.9455
3034.476016 0.9492 0.9517 0.9537 0.9552 0.9570
3038.826207 0.9590 0.9612 0.9637 0.9676 0.9731
3043.176398 0.9770 0.9790 0.9800 0.9800 0.9805
3047.526589 0.9815 0.9822 0.9827 0.9835 0.9845
3051.876781 0.9850 0.9850 0.9852 0.9857 0.9860
3056.226972 0.9860 0.9860 0.9860 0.9860 0.9860
3060.577163 0.9862 0.9867 0.9880 0.9900 0.9910
3064.927355 0.9910 0.9910 0.9910 0.9908 0.9903
3069.277546 0.9893 0.9878 0.9870 0.9870 0.9877
3073.627737 0.9892 0.9900 0.9900 0.9902 0.9907
3077.977929 0.9910 0.9910 0.9915 0.9925 0.9932
3082.328120 0.9937 0.9940 0.9940 0.9940 0.9940
3086.678311 0.9938 0.9933 0.9930 0.9930 0.9930
3091.028502 0.9930 0.9930 0.9930 0.9930 0.9930
3095.378694 0.9930 0.9930 0.9923 0.9908 0.9900
3099.728885 0.9900 0.9909 0.9929 0.9940 0.9940
3104.079076 0.9938 0.9933 0.9930 0.9930 0.9930
3108.429268 0.9930 0.9926 0.9916 0.9910 0.9910
3112.779459 0.9910 0.9910 0.9910 0.9910 0.9910
3117.129650 0.9910 0.9915 0.9925 0.9935 0.9944
3121.479842 0.9950 0.9950 0.9948 0.9943 0.9940
3125.830033 0.9940 0.9938 0.9933 0.9930 0.9930
3130.180224 0.9930 0.9930 0.9930 0.9930 0.9932
3134.530415 0.9937 0.9942 0.9947 0.9950 0.9950
3138.880607 0.9950 0.9950 0.9948 0.9943 0.9938
3143.230798 0.9933 0.9930 0.9930 0.9930 0.9930
3147.580989 0.9930 0.9930 0.9930 0.9930 0.9926
3151.931181 0.9916 0.9910 0.9910 0.9910 0.9910
3156.281372 0.9910 0.9910 0.9910 0.9910 0.9908
3160.631563 0.9903 0.9900 0.9900 0.9900 0.9900
3164.981755 0.9900 0.9900 0.9900 0.9900 0.9900
3169.331946 0.9900 0.9900 0.9900 0.9898 0.9893
3173.682137 0.9890 0.9890 0.9884 0.9869 0.9858
3178.032328 0.9853 0.9846 0.9836 0.9830 0.9830
3182.382520 0.9830 0.9830 0.9830 0.9830 0.9830
3186.732711 0.9830 0.9830 0.9830 0.9830 0.9830
3191.082902 0.9828 0.9823 0.9820 0.9820 0.9816
3195.433094 0.9806 0.9798 0.9793 0.9790 0.9790
3199.783285 0.9788 0.9783 0.9782 0.9787 0.9788
3204.133476 0.9783 0.9780 0.9780 0.9780 0.9780
3208.483668 0.9780 0.9780 0.9780 0.9780 0.9776
3212.833859 0.9766 0.9760 0.9760 0.9760 0.9760
3217.184050 0.9760 0.9760 0.9760 0.9760 0.9758
3221.534242 0.9753 0.9750 0.9750 0.9750 0.9750
3225.884433 0.9750 0.9750 0.9748 0.9743 0.9740
3230.234624 0.9740 0.9740 0.9740 0.9740 0.9740
3234.584815 0.9740 0.9740 0.9742 0.9747 0.9750
3238.935007 0.9750 0.9742 0.9722 0.9702 0.9682
3243.285198 0.9666 0.9656 0.9648 0.9643 0.9640
3247.635389 0.9640 0.9640 0.9640 0.9640 0.9640
3251.985581 0.9640 0.9640 0.9640 0.9640 0.9640
3256.335772 0.9640 0.9640 0.9640 0.9640 0.9640
3260.685963 0.9640 0.9640 0.9640 0.9640 0.9638
3265.036155 0.9633 0.9626 0.9616 0.9603 0.9583
3269.386346 0.9568 0.9563 0.9560 0.9560 0.9560
3273.736537 0.9560 0.9560 0.9560 0.9560 0.9560
3278.086728 0.9560 0.9560 0.9560 0.9560 0.9558
3282.436920 0.9553 0.9550 0.9550 0.9550 0.9550
3286.787111 0.9546 0.9536 0.9530 0.9530 0.9534
3291.137302 0.9544 0.9550 0.9550 0.9552 0.9557
3295.487494 0.9558 0.9553 0.9550 0.9550 0.9550
3299.837685 0.9550 0.9546 0.9536 0.9523 0.9503
3304.187876 0.9488 0.9483 0.9476 0.9466 0.9460
3308.538068 0.9460 0.9464 0.9474 0.9480 0.9480
3312.888259 0.9482 0.9487 0.9490 0.9490 0.9488
3317.238450 0.9483 0.9477 0.9467 0.9458 0.9453
3321.588641 0.9445 0.9430 0.9420 0.9420 0.9418
3325.938833 0.9413 0.9412 0.9417 0.9423 0.9433
3330.289024 0.9440 0.9440 0.9437 0.9427 0.9420
3334.639215 0.9420 0.9420 0.9420 0.9420 0.9420
3338.989407 0.9417 0.9407 0.9397 0.9387 0.9378
3343.339598 0.9373 0.9368 0.9363 0.9360 0.9360
3347.689789 0.9355 0.9340 0.9327 0.9317 0.9310
3352.039981 0.9310 0.9308 0.9303 0.9300 0.9300
3356.390172 0.9298 0.9293 0.9290 0.9290 0.9287
3360.740363 0.9277 0.9267 0.9257 0.9250 0.9250
3365.090554 0.9247 0.9237 0.9230 0.9230 0.9227
3369.440746 0.9217 0.9207 0.9197 0.9188 0.9183
3373.790937 0.9175 0.9160 0.9148 0.9143 0.9142
3378.141128 0.9147 0.9150 0.9150 0.9144 0.9124
3382.491320 0.9104 0.9084 0.9072 0.9077 0.9083
3386.841511 0.9093 0.9100 0.9100 0.9100 0.9100
3391.191702 0.9102 0.9107 0.9110 0.9110 0.9110
3395.541894 0.9110 0.9108 0.9103 0.9097 0.9087
3399.892085 0.9083 0.9093 0.9103 0.9113 0.9123
3404.242276 0.9133 0.9140 0.9140 0.9140 0.9140
3408.592467 0.9140 0.9140 0.9140 0.9140 0.9140
3412.942659 0.9140 0.9140 0.9140 0.9140 0.9140
3417.292850 0.9140 0.9140 0.9140 0.9140 0.9141
3421.643041 0.9146 0.9150 0.9150 0.9150 0.9150
3425.993233 0.9149 0.9143 0.9142 0.9147 0.9155
3430.343424 0.9170 0.9182 0.9186 0.9194 0.9209
3434.693615 0.9221 0.9226 0.9234 0.9249 0.9267
3439.043807 0.9292 0.9313 0.9323 0.9330 0.9330
3443.393998 0.9330 0.9330 0.9330 0.9330 0.9330
3447.744189 0.9330 0.9331 0.9336 0.9340 0.9340
3452.094380 0.9343 0.9353 0.9363 0.9373 0.9383
3456.444572 0.9393 0.9403 0.9413 0.9423 0.9433
3460.794763 0.9443 0.9453 0.9460 0.9460 0.9463
3465.144954 0.9473 0.9481 0.9486 0.9490 0.9490
3469.495146 0.9490 0.9490 0.9494 0.9509 0.9521
3473.845337 0.9526 0.9530 0.9530 0.9529 0.9524
3478.195528 0.9521 0.9526 0.9533 0.9543 0.9551
3482.545720 0.9556 0.9560 0.9560 0.9560 0.9560
3486.895911 0.9560 0.9560 0.9561 0.9566 0.9567
3491.246102 0.9557 0.9550 0.9550 0.9551 0.9556
3495.596293 0.9560 0.9560 0.9561 0.9566 0.9573
3499.946485 0.9583 0.9591 0.9596 0.9600 0.9600
3504.296676 0.9600 0.9600 0.9600 0.9600 0.9600
3508.646867 0.9600 0.9601 0.9606 0.9613 0.9622
3512.997059 0.9631 0.9636 0.9639 0.9634 0.9631
3517.347250 0.9636 0.9644 0.9659 0.9671 0.9676
3521.697441 0.9684 0.9699 0.9715 0.9735 0.9754
3526.047633 0.9769 0.9780 0.9780 0.9781 0.9786
3530.397824 0.9790 0.9790 0.9786 0.9771 0.9760
3534.748015 0.9760 0.9759 0.9754 0.9750 0.9750
3539.098206 0.9750 0.9750 0.9750 0.9750 0.9751
3543.448398 0.9756 0.9762 0.9772 0.9781 0.9786
3547.798589 0.9790 0.9790 0.9790 0.9790 0.9790
3552.148780 0.9790 0.9790 0.9790 0.9790 0.9790
3556.498972 0.9791 0.9796 0.9802 0.9812 0.9821
3560.849163 0.9826 0.9832 0.9842 0.9850 0.9850
3565.199354 0.9851 0.9856 0.9860 0.9860 0.9855
3569.549546 0.9835 0.9818 0.9808 0.9799 0.9794
3573.899737 0.9790 0.9790 0.9793 0.9808 0.9823
3578.249928 0.9838 0.9851 0.9856 0.9863 0.9878
3582.600120 0.9890 0.9890 0.9888 0.9878 0.9870
3586.950311 0.9870 0.9869 0.9864 0.9860 0.9860
3591.300502 0.9860 0.9860 0.9859 0.9854 0.9850
3595.650693 0.9850 0.9850 0.9850 0.9850 0.9850
3600.000885 0.9850 0.9850 0.9851 0.9856 0.9861
3604.351076 0.9866 0.9870 0.9870 0.9872 0.9882
3608.701267 0.9890 0.9890 0.9890 0.9890 0.9890
3613.051459 0.9890 0.9890 0.9890 0.9888 0.9878
3617.401650 0.9870 0.9870 0.9872 0.9882 0.9891
3621.751841 0.9896 0.9900 0.9900 0.9901 0.9906
3626.102033 0.9910 0.9910 0.9910 0.9910 0.9913
3630.452224 0.9928 0.9943 0.9958 0.9971 0.9976
3634.802415 0.9982 0.9992 1.0000 1.0000 1.0000
3639.152606 1.0000 1.0000 1.0000 1.0000 1.0000
3643.502798 1.0000 1.0000 1.0000 1.0000 0.9998
3647.852989 0.9988 0.9980 0.9980 0.9979 0.9974
3652.203180 0.9970 0.9970 0.9970 0.9970 0.9970
3656.553372 0.9970 0.9970 0.9970 0.9970 0.9970
3660.903563 0.9971 0.9976 0.9983 0.9998 1.0010
3665.253754 1.0010 1.0010 1.0010 1.0010 1.0010
3669.603946 1.0009 1.0004 1.0000 1.0000 1.0000
3673.954137 1.0000 0.9998 0.9988 0.9980 0.9980
3678.304328 0.9979 0.9974 0.9970 0.9970 0.9968
3682.654519 0.9958 0.9945 0.9915 0.9888 0.9878
3687.004711 0.9870 0.9870 0.9869 0.9864 0.9860
3691.354902 0.9860 0.9860 0.9860 0.9861 0.9866
3695.705093 0.9872 0.9882 0.9897 0.9937 0.9970
3700.055285 0.9970 0.9968 0.9958 0.9949 0.9944
3704.405476 0.9939 0.9934 0.9930 0.9930 0.9930
3708.755667 0.9930 0.9930 0.9930 0.9931 0.9936
3713.105859 0.9945 0.9975 1.0000 1.0000 0.9995
3717.456050 0.9965 0.9938 0.9923 0.9909 0.9904
3721.806241 0.9899 0.9894 0.9890 0.9890 0.9890
3726.156432 0.9890 0.9891 0.9896 0.9901 0.9906
3730.506624 0.9910 0.9910 0.9910 0.9910 0.9910
3734.856815 0.9910 0.9911 0.9921 0.9930 0.9930
3739.207006 0.9931 0.9936 0.9941 0.9946 0.9952
3743.557198 0.9961 0.9971 0.9976 0.9980 0.9980
3747.907389 0.9981 0.9991 1.0000 1.0000 1.0000
3752.257580 1.0000 0.9999 0.9989 0.9980 0.9980
3756.607772 0.9979 0.9974 0.9970 0.9970 0.9969
3760.957963 0.9959 0.9950 0.9950 0.9949 0.9944
3765.308154 0.9940 0.9940 0.9941 0.9946 0.9950
3769.658345 0.9950 0.9950 0.9950 0.9950 0.9950
3774.008537 0.9951 0.9961 0.9970 0.9970 0.9971
3778.358728 0.9976 0.9981 0.9991 1.0001 1.0006
3782.708919 1.0011 1.0016 1.0022 1.0037 1.0051
3787.059111 1.0056 1.0061 1.0071 1.0079 1.0069
3791.409302 1.0061 1.0071
##END=
