##TITLE=TRIMETHYLVINYLSILANE
##JCAMP-DX=4.24
##DATA TYPE=INFRARED SPECTRUM
##CLASS=COBLENTZ III
##ORIGIN=DOW CORNING CORP.
##OWNER=COBLENTZ SOCIETY
Collection (C) 2018 copyright by the U.S. Secretary of Commerce
on behalf of the United States of America. All rights reserved.
##DATE=1965/01/15
##NAMES=trimethyl(vinyl)silane
##CAS REGISTRY NO=754-05-2
##MOLFORM=C5 H12 Si
##BP=55 C
##SOURCE REFERENCE=COBLENTZ NO. 5533
##$NIST SOURCE=COBLENTZ
##$NIST IMAGE=cob5533
##SPECTROMETER/DATA SYSTEM=PERKIN-ELMER 521 (GRATING)
##INSTRUMENT PARAMETERS=FILTERS AT 3150, 2500, 2000, 1150, 700, 410. GRATING CHANGES: 2000, 630 CM^-^1
##STATE=SOLUTION (10% IN CCl4 FOR 3800-1000, 5% IN CS2 FOR 1300-400, AND 10% IN CCl4 FOR 600-210 CM^-^1)
##PATH LENGTH=0.011 CM, 0.011 CM, AND 0.020 CM
##SAMPLING PROCEDURE=TRANSMISSION
##RESOLUTION=2
##DATA PROCESSING=DIGITIZED BY NIST FROM HARD COPY (FROM TWO SEGMENTS)
##XUNITS=1/CM
##YUNITS=TRANSMITTANCE
##XFACTOR=1.000000
##YFACTOR=1
##DELTAX=0.938418
##FIRSTX=210.44
##LASTX=3795.2
##FIRSTY=0.937
##MAXX=3795.2
##MINX=210.44
##MAXY=0.947
##MINY=0.022
##NPOINTS=3821
##XYDATA=(X++(Y..Y))
210.440000 0.9370 0.9360 0.9340 0.9340 0.9370
215.132091 0.9360 0.9340 0.9340 0.9340 0.9340
219.824181 0.9340 0.9360 0.9360 0.9360 0.9360
224.516272 0.9360 0.9360 0.9340 0.9340 0.9340
229.208362 0.9330 0.9330 0.9330 0.9320 0.9320
233.900453 0.9320 0.9320 0.9320 0.9320 0.9330
238.592544 0.9330 0.9340 0.9340 0.9360 0.9360
243.284634 0.9370 0.9370 0.9370 0.9370 0.9370
247.976725 0.9370 0.9370 0.9370 0.9370 0.9360
252.668816 0.9360 0.9360 0.9360 0.9360 0.9360
257.360906 0.9360 0.9360 0.9360 0.9360 0.9360
262.052997 0.9360 0.9360 0.9360 0.9360 0.9360
266.745087 0.9360 0.9360 0.9360 0.9360 0.9360
271.437178 0.9360 0.9360 0.9340 0.9340 0.9340
276.129269 0.9340 0.9340 0.9340 0.9340 0.9340
280.821359 0.9340 0.9340 0.9340 0.9340 0.9330
285.513450 0.9330 0.9340 0.9340 0.9340 0.9360
290.205540 0.9360 0.9370 0.9370 0.9370 0.9380
294.897631 0.9380 0.9380 0.9380 0.9380 0.9380
299.589722 0.9380 0.9370 0.9370 0.9360 0.9340
304.281812 0.9330 0.9330 0.9330 0.9320 0.9320
308.973903 0.9320 0.9310 0.9310 0.9310 0.9300
313.665994 0.9290 0.9290 0.9270 0.9270 0.9260
318.358084 0.9260 0.9250 0.9250 0.9240 0.9230
323.050175 0.9220 0.9170 0.9130 0.9080 0.9040
327.742265 0.9000 0.9010 0.8980 0.8940 0.8900
332.434356 0.8880 0.8870 0.8870 0.8860 0.8840
337.126447 0.8810 0.8790 0.8740 0.8670 0.8610
341.818537 0.8530 0.8440 0.8360 0.8260 0.8160
346.510628 0.8030 0.7900 0.7651 0.7451 0.7201
351.202719 0.7000 0.6630 0.5470 0.5290 0.5050
355.894809 0.4830 0.4601 0.4520 0.4380 0.4370
360.586900 0.4730 0.5080 0.5100 0.5519 0.5939
365.278990 0.6429 0.6829 0.7189 0.7499 0.7739
369.971081 0.7840 0.7950 0.8120 0.8250 0.8370
374.663172 0.8450 0.8520 0.8580 0.8630 0.8680
379.355262 0.8720 0.8740 0.8740 0.8770 0.8800
384.047353 0.8820 0.8860 0.8900 0.8900 0.8910
388.739443 0.8930 0.8930 0.8940 0.8950 0.8950
393.431534 0.8960 0.8970 0.8970 0.8980 0.9000
398.123625 0.9000 0.9010 0.9020 0.9020 0.9030
402.815715 0.9030 0.9030 0.9020 0.9030 0.9030
407.507806 0.9030 0.9020 0.9010 0.9010 0.9000
412.199897 0.9000 0.8980 0.8980 0.8970 0.8970
416.891987 0.8980 0.9010 0.9030 0.9050 0.9050
421.584078 0.9040 0.9040 0.9040 0.9040 0.9030
426.276168 0.9030 0.9030 0.9030 0.9040 0.9040
430.968259 0.9050 0.9050 0.9060 0.9060 0.9080
435.660350 0.9090 0.9100 0.9110 0.9120 0.9130
440.352440 0.9130 0.9130 0.9130 0.9120 0.9130
445.044531 0.9130 0.9130 0.9130 0.9130 0.9130
449.736621 0.9120 0.9100 0.9100 0.9090 0.9080
454.428712 0.9060 0.9050 0.9050 0.9040 0.9030
459.120803 0.9020 0.9000 0.9000 0.8980 0.8970
463.812893 0.8960 0.8950 0.8940 0.8940 0.8930
468.504984 0.8910 0.8900 0.8890 0.8870 0.8860
473.197075 0.8840 0.8830 0.8810 0.8800 0.8790
477.889165 0.8770 0.8740 0.8700 0.8660 0.8620
482.581256 0.8590 0.8540 0.8510 0.8500 0.8470
487.273346 0.8440 0.8370 0.8310 0.8270 0.8101
491.965437 0.7970 0.7890 0.7830 0.7730 0.7630
496.657528 0.7540 0.7390 0.7231 0.7081 0.6911
501.349618 0.6760 0.6610 0.6450 0.6300 0.6180
506.041709 0.6080 0.5462 0.5161 0.4433 0.4261
510.733800 0.4060 0.3870 0.3670 0.3060 0.2820
515.425890 0.2580 0.2341 0.2101 0.1861 0.1860
520.117981 0.1950 0.2380 0.2750 0.3150 0.3530
524.810071 0.3750 0.4359 0.4879 0.5309 0.5629
529.502162 0.5950 0.6290 0.6700 0.6800 0.7130
534.194253 0.7290 0.7480 0.7620 0.7750 0.7860
538.886343 0.7880 0.7960 0.8030 0.8090 0.8160
543.578434 0.8220 0.8260 0.8320 0.8370 0.8410
548.270524 0.8460 0.8500 0.8530 0.8560 0.8600
552.962615 0.8620 0.8650 0.8670 0.8680 0.8690
557.654706 0.8700 0.8720 0.8730 0.8740 0.8740
562.346796 0.8750 0.8750 0.8760 0.8760 0.8770
567.038887 0.8770 0.8770 0.8770 0.8770 0.8770
571.730978 0.8770 0.8770 0.8760 0.8760 0.8750
576.423068 0.8740 0.8730 0.8720 0.8700 0.8680
581.115159 0.8630 0.8610 0.8610 0.8600 0.8600
585.807249 0.8600 0.8620 0.8670 0.8690 0.8830
590.499340 0.8900 0.8950 0.8970 0.8980 0.9000
595.191431 0.9010 0.9020 0.9030 0.9030 0.9040
599.883521 0.9040 0.9050 0.9050 0.9060 0.9080
604.575612 0.9080 0.9090 0.9090 0.9100 0.9110
609.267702 0.9110 0.9110 0.9110 0.9110 0.9120
613.959793 0.9120 0.9120 0.9120 0.9120 0.9120
618.651884 0.9120 0.9120 0.9120 0.9120 0.9110
623.343974 0.9110 0.9110 0.9100 0.9100 0.9100
628.036065 0.9090 0.9090 0.9080 0.9080 0.9080
632.728156 0.9060 0.9050 0.9040 0.9030 0.9020
637.420246 0.9010 0.9000 0.9000 0.8980 0.8970
642.112337 0.8960 0.8950 0.8910 0.8910 0.8900
646.804427 0.8880 0.8860 0.8810 0.8720 0.8630
651.496518 0.8580 0.8530 0.8470 0.8400 0.8310
656.188609 0.8130 0.8020 0.7960 0.7880 0.7721
660.880699 0.6950 0.6670 0.6400 0.6130 0.5870
665.572790 0.5331 0.5061 0.4801 0.4680 0.4252
670.264880 0.4251 0.5150 0.5160 0.5600 0.6030
674.956971 0.6050 0.6240 0.6439 0.6669 0.6819
679.649062 0.6820 0.6740 0.6530 0.6260 0.6220
684.341152 0.5940 0.5441 0.5171 0.4901 0.4681
689.033243 0.4360 0.4361 0.5060 0.5240 0.5380
693.725334 0.5510 0.5979 0.6429 0.6689 0.6999
698.417424 0.7180 0.7370 0.7520 0.7650 0.7700
703.109515 0.7750 0.7830 0.7910 0.7970 0.8030
707.801605 0.8060 0.8110 0.8150 0.8180 0.8200
712.493696 0.8220 0.8220 0.8220 0.8220 0.8220
717.185787 0.8190 0.8180 0.8180 0.8160 0.8150
721.877877 0.8120 0.8110 0.8100 0.8100 0.8090
726.569968 0.8090 0.8080 0.8040 0.8020 0.7930
731.262059 0.7870 0.7820 0.7720 0.7650 0.7590
735.954149 0.7510 0.7390 0.7310 0.6720 0.6510
740.646240 0.6300 0.6100 0.5891 0.5481 0.4962
745.338330 0.4589 0.4190 0.3820 0.3060 0.2680
750.030421 0.2310 0.1931 0.1551 0.1550 0.1929
754.722512 0.2321 0.2720 0.3090 0.3450 0.3800
759.414602 0.4030 0.4040 0.4589 0.5428 0.5899
764.106693 0.6370 0.6590 0.6700 0.6790 0.7040
768.798783 0.7170 0.7310 0.7380 0.7460 0.7470
773.490874 0.7510 0.7520 0.7630 0.7750 0.7790
778.182965 0.7790 0.7800 0.7800 0.7800 0.7800
782.875055 0.7790 0.7790 0.7700 0.7670 0.7620
787.567146 0.7590 0.7550 0.7530 0.7500 0.7450
792.259237 0.7440 0.7430 0.7410 0.7400 0.7390
796.951327 0.7380 0.7230 0.6971 0.6800 0.6651
801.643418 0.6580 0.6470 0.6400 0.6360 0.6250
806.335508 0.6180 0.6110 0.6050 0.5970 0.5840
811.027599 0.5250 0.5170 0.5050 0.4760 0.4560
815.719690 0.4330 0.4190 0.4060 0.3940 0.2694
820.411780 0.2500 0.2300 0.2100 0.1900 0.1700
825.103871 0.0812 0.0690 0.0590 0.0480 0.0311
829.795961 0.0240 0.0230 0.0220 0.0220 0.0230
834.488052 0.0240 0.0290 0.0330 0.0380 0.0430
839.180143 0.0470 0.0500 0.0520 0.0520 0.0510
843.872233 0.0510 0.0480 0.0480 0.0470 0.0460
848.564324 0.0450 0.0440 0.0430 0.0430 0.0440
853.256415 0.0450 0.0480 0.0520 0.0550 0.0620
857.948505 0.0690 0.0870 0.0970 0.1060 0.1470
862.640596 0.1480 0.1750 0.2009 0.2269 0.2529
867.332686 0.2801 0.3120 0.3451 0.4400 0.4830
872.024777 0.5300 0.5440 0.5550 0.5670 0.5949
876.716868 0.6030 0.6120 0.6390 0.6510 0.6580
881.408958 0.6590 0.6760 0.6870 0.6970 0.7119
886.101049 0.7200 0.7270 0.7330 0.7410 0.7520
890.793139 0.7650 0.7730 0.7800 0.7810 0.7880
895.485230 0.7910 0.7940 0.7980 0.8020 0.8050
900.177321 0.8090 0.8120 0.8130 0.8160 0.8170
904.869411 0.8170 0.8180 0.8180 0.8190 0.8190
909.561502 0.8190 0.8190 0.8190 0.8190 0.8180
914.253593 0.8180 0.8180 0.8170 0.8160 0.8150
918.945683 0.8120 0.8100 0.8060 0.8020 0.7980
923.637774 0.7940 0.7890 0.7840 0.7790 0.7690
928.329864 0.7590 0.7470 0.7320 0.7160 0.6971
933.021955 0.6790 0.6600 0.6460 0.6300 0.6130
937.714046 0.5950 0.5750 0.4244 0.4031 0.3821
942.406136 0.3609 0.3200 0.2690 0.2590 0.2410
947.098227 0.2390 0.2410 0.2679 0.3149 0.3598
951.790318 0.5481 0.5890 0.6300 0.6660 0.6970
956.482408 0.7310 0.7580 0.7700 0.7820 0.8089
961.174499 0.8180 0.8310 0.8330 0.8380 0.8400
965.866589 0.8470 0.8540 0.8560 0.8580 0.8590
970.558680 0.8600 0.8610 0.8610 0.8610 0.8610
975.250771 0.8610 0.8600 0.8590 0.8590 0.8560
979.942861 0.8530 0.8510 0.8480 0.8460 0.8400
984.634952 0.8330 0.8290 0.8190 0.8130 0.8090
989.327042 0.7719 0.7190 0.7010 0.6820 0.6650
994.019133 0.6430 0.6200 0.5981 0.5761 0.5322
998.711224 0.4819 0.4290 0.3770 0.2740 0.2230
1003.403314 0.2230 0.2739 0.3009 0.3259 0.3788
1008.095405 0.4760 0.4770 0.5240 0.5690 0.6549
1012.787496 0.6690 0.6870 0.7010 0.7120 0.7230
1017.479586 0.7330 0.7430 0.7530 0.7630 0.7690
1022.171677 0.7750 0.7880 0.7910 0.7960 0.8020
1026.863767 0.8090 0.8150 0.8220 0.8260 0.8370
1031.555858 0.8380 0.8500 0.8550 0.8590 0.8610
1036.247949 0.8620 0.8630 0.8650 0.8660 0.8700
1040.940039 0.8720 0.8730 0.8740 0.8790 0.8810
1045.632130 0.8860 0.8880 0.8890 0.8890 0.8900
1050.324220 0.8900 0.8900 0.8900 0.8900 0.8900
1055.016311 0.8900 0.8910 0.8930 0.8940 0.8940
1059.708402 0.8950 0.8950 0.8950 0.8950 0.8950
1064.400492 0.8960 0.8970 0.8980 0.9000 0.9020
1069.092583 0.9030 0.9040 0.9060 0.9090 0.9110
1073.784674 0.9120 0.9120 0.9130 0.9150 0.9160
1078.476764 0.9170 0.9180 0.9190 0.9200 0.9220
1083.168855 0.9230 0.9240 0.9240 0.9250 0.9250
1087.860945 0.9250 0.9260 0.9260 0.9260 0.9260
1092.553036 0.9260 0.9260 0.9250 0.9250 0.9240
1097.245127 0.9240 0.9230 0.9230 0.9220 0.9200
1101.937217 0.9180 0.9160 0.9130 0.9120 0.9110
1106.629308 0.9100 0.9090 0.9080 0.9050 0.9030
1111.321399 0.9020 0.9010 0.9010 0.9010 0.9010
1116.013489 0.9020 0.9030 0.9050 0.9080 0.9110
1120.705580 0.9180 0.9190 0.9200 0.9200 0.9230
1125.397670 0.9240 0.9250 0.9250 0.9250 0.9250
1130.089761 0.9260 0.9260 0.9260 0.9260 0.9260
1134.781852 0.9260 0.9250 0.9240 0.9240 0.9230
1139.473942 0.9230 0.9220 0.9220 0.9220 0.9200
1144.166033 0.9200 0.9190 0.9190 0.9190 0.9180
1148.858123 0.9180 0.9180 0.9170 0.9170 0.9170
1153.550214 0.9170 0.9160 0.9160 0.9150 0.9130
1158.242305 0.9130 0.9120 0.9100 0.9090 0.9090
1162.934395 0.9080 0.9080 0.9060 0.9060 0.9050
1167.626486 0.9040 0.9040 0.9030 0.9030 0.9010
1172.318577 0.9020 0.9020 0.9020 0.9020 0.9020
1177.010667 0.9020 0.9020 0.9020 0.9020 0.9020
1181.702758 0.9020 0.9020 0.9020 0.9020 0.9020
1186.394848 0.9020 0.9020 0.9020 0.9010 0.9010
1191.086939 0.9010 0.9010 0.9010 0.9000 0.9000
1195.779030 0.9000 0.9000 0.8980 0.8960 0.8960
1200.471120 0.8940 0.8930 0.8900 0.8880 0.8860
1205.163211 0.8820 0.8800 0.8770 0.8750 0.8730
1209.855301 0.8660 0.8610 0.8580 0.8540 0.8510
1214.547392 0.8470 0.8390 0.8360 0.8300 0.8240
1219.239483 0.8170 0.8110 0.8050 0.7980 0.7930
1223.931573 0.7880 0.7610 0.7430 0.7200 0.6960
1228.623664 0.6720 0.6470 0.6250 0.6060 0.5930
1233.315755 0.5330 0.5100 0.4870 0.4580 0.4200
1238.007845 0.3031 0.2790 0.2371 0.1951 0.1531
1242.699936 0.0689 0.0300 0.0301 0.0940 0.1740
1247.392026 0.2530 0.2950 0.3359 0.3520 0.4188
1252.084117 0.4970 0.5040 0.5040 0.5050 0.5060
1256.776208 0.5060 0.5130 0.5200 0.5879 0.6548
1261.468298 0.6560 0.6620 0.6630 0.6650 0.6660
1266.160389 0.6670 0.6680 0.6680 0.6690 0.6700
1270.852479 0.6720 0.6740 0.6760 0.6760 0.6790
1275.544570 0.6860 0.7000 0.7090 0.7340 0.7609
1280.236661 0.7700 0.7800 0.7940 0.8020 0.8090
1284.928751 0.8130 0.8220 0.8300 0.8330 0.8440
1289.620842 0.8440 0.8440 0.8440 0.8440 0.8440
1294.312933 0.8440 0.8440 0.8440 0.8440 0.8440
1299.005023 0.8440 0.8440 0.8440 0.8440 0.8430
1303.697114 0.8430 0.8430 0.8430 0.8430 0.8430
1308.389204 0.8430 0.8430 0.8430 0.8430 0.8430
1313.081295 0.8430 0.8430 0.8430 0.8410 0.8410
1317.773386 0.8400 0.8400 0.8390 0.8380 0.8370
1322.465476 0.8360 0.8330 0.8320 0.8310 0.8300
1327.157567 0.8290 0.8260 0.8220 0.8180 0.8150
1331.849658 0.8130 0.8120 0.8110 0.8110 0.8110
1336.541748 0.8100 0.8100 0.8090 0.8060 0.8030
1341.233839 0.8030 0.8020 0.8020 0.8030 0.8030
1345.925929 0.8030 0.8020 0.8000 0.7970 0.7960
1350.618020 0.7960 0.7960 0.7950 0.7950 0.7940
1355.310111 0.7910 0.7890 0.7840 0.7810 0.7730
1360.002201 0.7690 0.7670 0.7660 0.7660 0.7650
1364.694292 0.7660 0.7660 0.7660 0.7650 0.7630
1369.386382 0.7610 0.7600 0.7580 0.7550 0.7530
1374.078473 0.7510 0.7480 0.7460 0.7440 0.7430
1378.770564 0.7400 0.7320 0.7270 0.7240 0.7170
1383.462654 0.7050 0.7030 0.7000 0.6960 0.6930
1388.154745 0.6700 0.6400 0.6300 0.6060 0.5950
1392.846836 0.5830 0.5720 0.5610 0.5380 0.5000
1397.538926 0.4700 0.4430 0.3012 0.2681 0.2361
1402.231017 0.2019 0.1689 0.1370 0.1370 0.1630
1406.923107 0.1980 0.2000 0.2509 0.3019 0.3269
1411.615198 0.3531 0.4022 0.5130 0.5400 0.5530
1416.307289 0.5650 0.5870 0.6050 0.6230 0.6390
1420.999379 0.6520 0.6630 0.6740 0.6820 0.6960
1425.691470 0.7040 0.7100 0.7110 0.7120 0.7120
1430.383560 0.7120 0.7120 0.7110 0.7100 0.7090
1435.075651 0.7060 0.7020 0.7000 0.7000 0.7010
1439.767742 0.7010 0.7020 0.7020 0.7030 0.7080
1444.459832 0.7090 0.7100 0.7160 0.7190 0.7230
1449.151923 0.7250 0.7270 0.7300 0.7310 0.7330
1453.844014 0.7370 0.7390 0.7440 0.7470 0.7530
1458.536104 0.7590 0.7670 0.7720 0.7750 0.7790
1463.228195 0.7810 0.7910 0.7950 0.7960 0.7970
1467.920285 0.7980 0.8030 0.8080 0.8120 0.8220
1472.612376 0.8360 0.8400 0.8430 0.8470 0.8500
1477.304467 0.8530 0.8580 0.8590 0.8600 0.8610
1481.996557 0.8620 0.8630 0.8650 0.8660 0.8670
1486.688648 0.8680 0.8680 0.8680 0.8690 0.8690
1491.380738 0.8700 0.8720 0.8720 0.8720 0.8720
1496.072829 0.8720 0.8720 0.8720 0.8720 0.8720
1500.764920 0.8720 0.8720 0.8720 0.8720 0.8720
1505.457010 0.8720 0.8720 0.8730 0.8730 0.8730
1510.149101 0.8730 0.8730 0.8720 0.8700 0.8700
1514.841192 0.8700 0.8690 0.8690 0.8690 0.8690
1519.533282 0.8690 0.8700 0.8700 0.8700 0.8700
1524.225373 0.8730 0.8760 0.8820 0.8870 0.8910
1528.917463 0.8940 0.8980 0.9050 0.9090 0.9100
1533.609554 0.9110 0.9130 0.9130 0.9180 0.9220
1538.301645 0.9250 0.9270 0.9300 0.9310 0.9300
1542.993735 0.9300 0.9310 0.9300 0.9300 0.9300
1547.685826 0.9290 0.9290 0.9270 0.9260 0.9260
1552.377917 0.9250 0.9240 0.9230 0.9230 0.9220
1557.070007 0.9200 0.9180 0.9180 0.9180 0.9170
1561.762098 0.9170 0.9160 0.9150 0.9150 0.9130
1566.454188 0.9120 0.9120 0.9110 0.9080 0.9040
1571.146279 0.8980 0.8950 0.8930 0.8900 0.8890
1575.838370 0.8880 0.8880 0.8870 0.8860 0.8830
1580.530460 0.8800 0.8750 0.8680 0.8660 0.8610
1585.222551 0.8510 0.8390 0.8300 0.8270 0.8030
1589.914641 0.7649 0.7470 0.7310 0.7130 0.7090
1594.606732 0.6950 0.6950 0.7250 0.7699 0.7810
1599.298823 0.7901 0.8231 0.8530 0.8670 0.8770
1603.990913 0.8810 0.8810 0.8820 0.8840 0.8860
1608.683004 0.8870 0.8880 0.8900 0.8910 0.8930
1613.375095 0.8940 0.8940 0.8940 0.8940 0.8940
1618.067185 0.8940 0.8940 0.8940 0.8940 0.8940
1622.759276 0.8930 0.8940 0.8940 0.8940 0.8940
1627.451366 0.8940 0.8940 0.8950 0.8960 0.8960
1632.143457 0.8960 0.8960 0.8960 0.8970 0.8970
1636.835548 0.8970 0.8970 0.8970 0.8970 0.8970
1641.527638 0.8970 0.8960 0.8950 0.8960 0.8970
1646.219729 0.8970 0.8980 0.8980 0.9000 0.9000
1650.911819 0.9000 0.9000 0.9000 0.9000 0.9000
1655.603910 0.9000 0.9000 0.9000 0.9000 0.9000
1660.296001 0.9000 0.9000 0.9000 0.9010 0.9010
1664.988091 0.9010 0.9010 0.9010 0.9020 0.9020
1669.680182 0.9020 0.9020 0.9020 0.9020 0.9020
1674.372273 0.9020 0.9020 0.9020 0.9020 0.9020
1679.064363 0.9020 0.9020 0.9020 0.9020 0.9020
1683.756454 0.9020 0.9030 0.9030 0.9030 0.9030
1688.448544 0.9040 0.9040 0.9040 0.9040 0.9040
1693.140635 0.9040 0.9040 0.9040 0.9040 0.9040
1697.832726 0.9040 0.9040 0.9040 0.9040 0.9040
1702.524816 0.9040 0.9040 0.9040 0.9040 0.9040
1707.216907 0.9040 0.9040 0.9050 0.9050 0.9050
1711.908998 0.9050 0.9050 0.9050 0.9050 0.9050
1716.601088 0.9050 0.9050 0.9050 0.9050 0.9050
1721.293179 0.9040 0.9040 0.9040 0.9040 0.9040
1725.985269 0.9040 0.9040 0.9040 0.9030 0.9040
1730.677360 0.9040 0.9040 0.9040 0.9040 0.9040
1735.369451 0.9040 0.9040 0.9040 0.9040 0.9040
1740.061541 0.9040 0.9050 0.9050 0.9050 0.9050
1744.753632 0.9050 0.9050 0.9050 0.9050 0.9050
1749.445722 0.9050 0.9050 0.9050 0.9050 0.9050
1754.137813 0.9050 0.9050 0.9050 0.9050 0.9050
1758.829904 0.9050 0.9050 0.9050 0.9050 0.9050
1763.521994 0.9060 0.9060 0.9060 0.9060 0.9060
1768.214085 0.9080 0.9080 0.9080 0.9080 0.9080
1772.906176 0.9080 0.9080 0.9080 0.9080 0.9080
1777.598266 0.9080 0.9080 0.9080 0.9080 0.9080
1782.290357 0.9080 0.9080 0.9080 0.9080 0.9090
1786.982447 0.9090 0.9090 0.9090 0.9090 0.9090
1791.674538 0.9090 0.9090 0.9090 0.9090 0.9090
1796.366629 0.9090 0.9090 0.9080 0.9080 0.9080
1801.058719 0.9080 0.9080 0.9080 0.9080 0.9080
1805.750810 0.9080 0.9080 0.9080 0.9060 0.9060
1810.442900 0.9060 0.9050 0.9050 0.9050 0.9040
1815.134991 0.9030 0.9030 0.9020 0.9010 0.9000
1819.827082 0.8970 0.8970 0.8960 0.8950 0.8940
1824.519172 0.8930 0.8910 0.8890 0.8870 0.8830
1829.211263 0.8810 0.8790 0.8790 0.8770 0.8790
1833.903354 0.8830 0.8880 0.8880 0.8900 0.8910
1838.595444 0.8930 0.8940 0.8940 0.8940 0.8940
1843.287535 0.8940 0.8940 0.8940 0.8940 0.8940
1847.979625 0.8940 0.8940 0.8940 0.8940 0.8940
1852.671716 0.8940 0.8940 0.8940 0.8940 0.8940
1857.363807 0.8940 0.8950 0.8950 0.8960 0.8960
1862.055897 0.8970 0.8970 0.8980 0.9000 0.9010
1866.747988 0.9020 0.9020 0.9030 0.9030 0.9040
1871.440078 0.9030 0.9030 0.9000 0.8950 0.8940
1876.132169 0.8910 0.8910 0.8900 0.8900 0.8890
1880.824260 0.8890 0.8880 0.8880 0.8870 0.8830
1885.516350 0.8820 0.8810 0.8810 0.8810 0.8790
1890.208441 0.8760 0.8700 0.8660 0.8610 0.8580
1894.900532 0.8540 0.8500 0.8450 0.8380 0.8290
1899.592622 0.8230 0.8160 0.8090 0.8030 0.7960
1904.284713 0.7900 0.7870 0.7830 0.7820 0.7830
1908.976803 0.7880 0.7950 0.8020 0.8090 0.8170
1913.668894 0.8260 0.8340 0.8380 0.8510 0.8520
1918.360985 0.8520 0.8520 0.8530 0.8550 0.8550
1923.053075 0.8560 0.8590 0.8600 0.8620 0.8630
1927.745166 0.8630 0.8630 0.8630 0.8630 0.8620
1932.437257 0.8600 0.8610 0.8600 0.8590 0.8580
1937.129347 0.8560 0.8550 0.8550 0.8580 0.8600
1941.821438 0.8610 0.8650 0.8660 0.8660 0.8670
1946.513528 0.8680 0.8700 0.8720 0.8730 0.8740
1951.205619 0.8760 0.8770 0.8790 0.8770 0.8810
1955.897710 0.8820 0.8820 0.8830 0.8830 0.8860
1960.589800 0.8870 0.8880 0.8890 0.8910 0.8910
1965.281891 0.8910 0.8930 0.8930 0.8940 0.8940
1969.973981 0.8940 0.8950 0.8950 0.8960 0.8960
1974.666072 0.8960 0.8960 0.8960 0.8970 0.8980
1979.358163 0.8980 0.8980 0.8980 0.8980 0.8980
1984.050253 0.8980 0.8960 0.8960 0.8960 0.8960
1988.742344 0.8960 0.8960 0.8960 0.8960 0.8960
1993.434435 0.8960 0.8970 0.8970 0.8980 0.9000
1998.126525 0.9010 0.9020 0.9040 0.9040 0.9040
2002.818616 0.9050 0.9060 0.9075 0.9090 0.9095
2007.510706 0.9101 0.9116 0.9131 0.9141 0.9150
2012.202797 0.9155 0.9160 0.9165 0.9170 0.9175
2016.894888 0.9180 0.9186 0.9191 0.9196 0.9201
2021.586978 0.9211 0.9221 0.9226 0.9229 0.9224
2026.279069 0.9221 0.9226 0.9230 0.9230 0.9231
2030.971159 0.9236 0.9240 0.9240 0.9241 0.9246
2035.663250 0.9250 0.9250 0.9250 0.9250 0.9250
2040.355341 0.9250 0.9250 0.9250 0.9250 0.9250
2045.047431 0.9250 0.9250 0.9249 0.9244 0.9239
2049.739522 0.9234 0.9229 0.9224 0.9220 0.9220
2054.431613 0.9217 0.9207 0.9200 0.9200 0.9198
2059.123703 0.9193 0.9190 0.9190 0.9188 0.9183
2063.815794 0.9180 0.9180 0.9178 0.9173 0.9170
2068.507884 0.9170 0.9168 0.9163 0.9160 0.9160
2073.199975 0.9154 0.9138 0.9130 0.9130 0.9128
2077.892066 0.9123 0.9120 0.9120 0.9118 0.9113
2082.584156 0.9110 0.9110 0.9107 0.9102 0.9100
2087.276247 0.9100 0.9100 0.9100 0.9100 0.9100
2091.968338 0.9103 0.9108 0.9110 0.9110 0.9113
2096.660428 0.9118 0.9123 0.9128 0.9130 0.9130
2101.352519 0.9136 0.9146 0.9150 0.9150 0.9153
2106.044609 0.9158 0.9163 0.9168 0.9173 0.9178
2110.736700 0.9183 0.9188 0.9193 0.9198 0.9207
2115.428791 0.9217 0.9224 0.9229 0.9234 0.9239
2120.120881 0.9244 0.9249 0.9254 0.9259 0.9264
2124.812972 0.9269 0.9270 0.9270 0.9270 0.9270
2129.505062 0.9278 0.9288 0.9290 0.9290 0.9290
2134.197153 0.9290 0.9294 0.9299 0.9300 0.9300
2138.889244 0.9300 0.9300 0.9304 0.9309 0.9310
2143.581334 0.9310 0.9310 0.9310 0.9310 0.9310
2148.273425 0.9310 0.9310 0.9310 0.9310 0.9310
2152.965516 0.9310 0.9310 0.9310 0.9310 0.9310
2157.657606 0.9310 0.9310 0.9310 0.9310 0.9310
2162.349697 0.9310 0.9310 0.9310 0.9310 0.9310
2167.041787 0.9315 0.9320 0.9320 0.9320 0.9320
2171.733878 0.9320 0.9320 0.9320 0.9320 0.9320
2176.425969 0.9320 0.9320 0.9320 0.9320 0.9320
2181.118059 0.9320 0.9320 0.9320 0.9320 0.9320
2185.810150 0.9320 0.9321 0.9326 0.9330 0.9330
2190.502240 0.9330 0.9330 0.9330 0.9330 0.9330
2195.194331 0.9330 0.9330 0.9330 0.9330 0.9330
2199.886422 0.9331 0.9336 0.9340 0.9340 0.9340
2204.578512 0.9340 0.9339 0.9334 0.9330 0.9330
2209.270603 0.9330 0.9330 0.9330 0.9330 0.9330
2213.962694 0.9330 0.9330 0.9330 0.9330 0.9330
2218.654784 0.9330 0.9330 0.9330 0.9330 0.9330
2223.346875 0.9330 0.9330 0.9330 0.9330 0.9330
2228.038965 0.9328 0.9323 0.9320 0.9320 0.9320
2232.731056 0.9320 0.9316 0.9306 0.9300 0.9300
2237.423147 0.9298 0.9293 0.9286 0.9276 0.9270
2242.115237 0.9270 0.9268 0.9263 0.9260 0.9260
2246.807328 0.9258 0.9253 0.9248 0.9242 0.9240
2251.499418 0.9240 0.9237 0.9232 0.9227 0.9222
2256.191509 0.9215 0.9205 0.9197 0.9192 0.9187
2260.883600 0.9182 0.9174 0.9164 0.9157 0.9152
2265.575690 0.9144 0.9134 0.9136 0.9146 0.9153
2270.267781 0.9158 0.9166 0.9176 0.9183 0.9188
2274.959872 0.9203 0.9223 0.9237 0.9247 0.9267
2279.651962 0.9292 0.9303 0.9309 0.9314 0.9319
2284.344053 0.9320 0.9320 0.9320 0.9320 0.9320
2289.036143 0.9320 0.9324 0.9329 0.9341 0.9356
2293.728234 0.9364 0.9369 0.9378 0.9388 0.9398
2298.420325 0.9408 0.9422 0.9437 0.9448 0.9458
2303.112415 0.9460 0.9460 0.9460 0.9460 0.9460
2307.804506 0.9460 0.9460 0.9460 0.9460 0.9460
2312.496597 0.9464 0.9469 0.9470 0.9470 0.9470
2317.188687 0.9470 0.9470 0.9470 0.9470 0.9470
2321.880778 0.9470 0.9470 0.9470 0.9470 0.9470
2326.572868 0.9470 0.9470 0.9470 0.9470 0.9470
2331.264959 0.9465 0.9460 0.9460 0.9460 0.9460
2335.957050 0.9460 0.9460 0.9460 0.9455 0.9450
2340.649140 0.9450 0.9450 0.9450 0.9450 0.9450
2345.341231 0.9450 0.9445 0.9440 0.9440 0.9440
2350.033321 0.9440 0.9439 0.9434 0.9430 0.9430
2354.725412 0.9430 0.9430 0.9430 0.9430 0.9428
2359.417503 0.9418 0.9410 0.9410 0.9410 0.9410
2364.109593 0.9409 0.9404 0.9400 0.9400 0.9398
2368.801684 0.9388 0.9380 0.9380 0.9380 0.9380
2373.493775 0.9380 0.9380 0.9379 0.9374 0.9370
2378.185865 0.9370 0.9370 0.9370 0.9370 0.9370
2382.877956 0.9368 0.9363 0.9360 0.9360 0.9360
2387.570046 0.9360 0.9360 0.9360 0.9357 0.9346
2392.262137 0.9340 0.9340 0.9340 0.9340 0.9338
2396.954228 0.9333 0.9332 0.9337 0.9340 0.9340
2401.646318 0.9340 0.9340 0.9340 0.9340 0.9340
2406.338409 0.9340 0.9340 0.9340 0.9340 0.9340
2411.030499 0.9340 0.9340 0.9340 0.9340 0.9340
2415.722590 0.9340 0.9340 0.9340 0.9340 0.9340
2420.414681 0.9340 0.9340 0.9340 0.9340 0.9340
2425.106771 0.9340 0.9340 0.9340 0.9340 0.9340
2429.798862 0.9340 0.9340 0.9340 0.9340 0.9340
2434.490953 0.9340 0.9340 0.9340 0.9340 0.9340
2439.183043 0.9340 0.9340 0.9340 0.9340 0.9340
2443.875134 0.9340 0.9340 0.9340 0.9340 0.9340
2448.567224 0.9340 0.9340 0.9340 0.9340 0.9336
2453.259315 0.9331 0.9330 0.9330 0.9330 0.9330
2457.951406 0.9330 0.9330 0.9326 0.9321 0.9320
2462.643496 0.9320 0.9320 0.9320 0.9316 0.9311
2467.335587 0.9310 0.9310 0.9310 0.9310 0.9310
2472.027677 0.9310 0.9310 0.9310 0.9310 0.9310
2476.719768 0.9310 0.9310 0.9310 0.9310 0.9310
2481.411859 0.9310 0.9310 0.9310 0.9315 0.9320
2486.103949 0.9325 0.9330 0.9330 0.9330 0.9335
2490.796040 0.9340 0.9340 0.9340 0.9350 0.9360
2495.488131 0.9360 0.9360 0.9365 0.9370 0.9370
2500.180221 0.9370 0.9375 0.9380 0.9385 0.9390
2504.872312 0.9390 0.9390 0.9385 0.9380 0.9380
2509.564402 0.9380 0.9380 0.9380 0.9380 0.9380
2514.256493 0.9380 0.9380 0.9380 0.9380 0.9380
2518.948584 0.9380 0.9380 0.9380 0.9380 0.9380
2523.640674 0.9380 0.9380 0.9380 0.9380 0.9380
2528.332765 0.9380 0.9380 0.9380 0.9380 0.9380
2533.024856 0.9380 0.9380 0.9380 0.9380 0.9380
2537.716946 0.9380 0.9380 0.9380 0.9380 0.9379
2542.409037 0.9374 0.9370 0.9370 0.9370 0.9370
2547.101127 0.9370 0.9370 0.9370 0.9370 0.9370
2551.793218 0.9370 0.9370 0.9370 0.9370 0.9370
2556.485309 0.9368 0.9363 0.9360 0.9360 0.9360
2561.177399 0.9360 0.9360 0.9360 0.9360 0.9360
2565.869490 0.9360 0.9360 0.9360 0.9360 0.9360
2570.561580 0.9360 0.9360 0.9360 0.9360 0.9360
2575.253671 0.9355 0.9345 0.9340 0.9340 0.9337
2579.945762 0.9332 0.9330 0.9330 0.9330 0.9330
2584.637852 0.9330 0.9330 0.9330 0.9330 0.9330
2589.329943 0.9330 0.9330 0.9330 0.9330 0.9330
2594.022034 0.9330 0.9330 0.9330 0.9330 0.9330
2598.714124 0.9330 0.9330 0.9330 0.9330 0.9330
2603.406215 0.9330 0.9330 0.9330 0.9330 0.9330
2608.098305 0.9330 0.9330 0.9330 0.9330 0.9330
2612.790396 0.9330 0.9330 0.9330 0.9330 0.9334
2617.482487 0.9339 0.9336 0.9331 0.9330 0.9330
2622.174577 0.9326 0.9321 0.9320 0.9320 0.9316
2626.866668 0.9311 0.9310 0.9310 0.9306 0.9301
2631.558758 0.9300 0.9300 0.9296 0.9291 0.9282
2636.250849 0.9272 0.9266 0.9261 0.9256 0.9251
2640.942940 0.9246 0.9241 0.9236 0.9231 0.9226
2645.635030 0.9221 0.9220 0.9220 0.9220 0.9220
2650.327121 0.9220 0.9220 0.9220 0.9220 0.9225
2655.019212 0.9230 0.9230 0.9230 0.9235 0.9240
2659.711302 0.9240 0.9240 0.9240 0.9240 0.9240
2664.403393 0.9240 0.9240 0.9240 0.9235 0.9230
2669.095483 0.9230 0.9230 0.9235 0.9240 0.9235
2673.787574 0.9230 0.9235 0.9240 0.9240 0.9240
2678.479665 0.9245 0.9250 0.9250 0.9250 0.9250
2683.171755 0.9251 0.9256 0.9260 0.9260 0.9260
2687.863846 0.9260 0.9260 0.9260 0.9260 0.9260
2692.555937 0.9260 0.9260 0.9260 0.9260 0.9260
2697.248027 0.9260 0.9260 0.9260 0.9259 0.9254
2701.940118 0.9250 0.9250 0.9250 0.9250 0.9250
2706.632208 0.9250 0.9249 0.9244 0.9240 0.9240
2711.324299 0.9240 0.9240 0.9238 0.9233 0.9230
2716.016390 0.9230 0.9230 0.9230 0.9230 0.9230
2720.708480 0.9230 0.9230 0.9230 0.9230 0.9230
2725.400571 0.9230 0.9224 0.9209 0.9200 0.9200
2730.092661 0.9198 0.9193 0.9190 0.9190 0.9190
2734.784752 0.9190 0.9190 0.9190 0.9188 0.9183
2739.476843 0.9180 0.9180 0.9180 0.9180 0.9180
2744.168933 0.9180 0.9178 0.9172 0.9170 0.9170
2748.861024 0.9170 0.9170 0.9167 0.9162 0.9157
2753.553115 0.9152 0.9144 0.9134 0.9124 0.9114
2758.245205 0.9096 0.9071 0.9045 0.9020 0.8998
2762.937296 0.8978 0.8961 0.8946 0.8937 0.8932
2767.629386 0.8924 0.8914 0.8910 0.8910 0.8903
2772.321477 0.8893 0.8887 0.8882 0.8860 0.8830
2777.013568 0.8799 0.8769 0.8746 0.8726 0.8702
2781.705658 0.8677 0.8652 0.8627 0.8605 0.8585
2786.397749 0.8561 0.8536 0.8507 0.8477 0.8447
2791.089839 0.8417 0.8383 0.8347 0.8304 0.8259
2795.781930 0.8222 0.8187 0.8172 0.8162 0.8164
2800.474021 0.8169 0.8191 0.8216 0.8237 0.8257
2805.166111 0.8282 0.8307 0.8319 0.8329 0.8334
2809.858202 0.8339 0.8340 0.8340 0.8340 0.8340
2814.550293 0.8340 0.8340 0.8335 0.8330 0.8325
2819.242383 0.8320 0.8315 0.8310 0.8305 0.8300
2823.934474 0.8276 0.8250 0.8235 0.8220 0.8195
2828.626564 0.8170 0.8160 0.8150 0.8130 0.8110
2833.318655 0.8095 0.8080 0.8064 0.8049 0.8013
2838.010746 0.7979 0.7959 0.7938 0.7913 0.7887
2842.702836 0.7857 0.7830 0.7830 0.7829 0.7819
2847.394927 0.7809 0.7799 0.7786 0.7756 0.7729
2852.087017 0.7724 0.7719 0.7709 0.7700 0.7700
2856.779108 0.7698 0.7682 0.7664 0.7634 0.7604
2861.471199 0.7574 0.7545 0.7520 0.7494 0.7469
2866.163289 0.7449 0.7444 0.7428 0.7378 0.7334
2870.855380 0.7309 0.7285 0.7265 0.7243 0.7218
2875.547471 0.7194 0.7174 0.7143 0.7088 0.7025
2880.239561 0.6944 0.6862 0.6777 0.6693 0.6613
2884.931652 0.6533 0.6452 0.6322 0.6101 0.5871
2889.623742 0.5625 0.5425 0.5305 0.5181 0.5050
2894.315833 0.4921 0.4794 0.4670 0.4549 0.4480
2899.007924 0.4480 0.4539 0.4675 0.4813 0.4953
2903.700014 0.5094 0.5235 0.5343 0.5413 0.5483
2908.392105 0.5554 0.5648 0.5769 0.5860 0.5920
2913.084196 0.5973 0.6019 0.6045 0.6055 0.6068
2917.776286 0.6083 0.6090 0.6090 0.6087 0.6082
2922.468377 0.6049 0.5993 0.5941 0.5891 0.5752
2927.160467 0.5551 0.5389 0.5254 0.5164 0.5103
2931.852558 0.5043 0.4982 0.4921 0.4861 0.4693
2936.544649 0.4467 0.4184 0.3873 0.3693 0.3577
2941.236739 0.3383 0.3152 0.2997 0.2876 0.2721
2945.928830 0.2550 0.2454 0.2389 0.2122 0.1775
2950.620920 0.1628 0.1557 0.1487 0.1417 0.1350
2955.313011 0.1285 0.1216 0.1145 0.0898 0.0602
2960.005102 0.0532 0.0522 0.0524 0.0529 0.0559
2964.697192 0.0594 0.0625 0.0655 0.0689 0.0724
2969.389283 0.0819 0.0926 0.1032 0.1137 0.1326
2974.081374 0.1527 0.1987 0.2479 0.2967 0.3454
2978.773464 0.3505 0.3510 0.4135 0.4818 0.5181
2983.465555 0.5517 0.5859 0.6200 0.6225 0.6230
2988.157645 0.6273 0.6319 0.6428 0.6539 0.6545
2992.849736 0.6550 0.6565 0.6580 0.6580 0.6579
2997.541827 0.6514 0.6448 0.6383 0.6318 0.6258
3002.233917 0.6197 0.6137 0.6076 0.6011 0.5946
3006.926008 0.5891 0.5840 0.5840 0.5847 0.5918
3011.618098 0.5988 0.6058 0.6128 0.6193 0.6259
3016.310189 0.6330 0.6398 0.6459 0.6524 0.6620
3021.002280 0.6719 0.6840 0.6956 0.7051 0.7132
3025.694370 0.7142 0.7150 0.7150 0.7150 0.7150
3030.386461 0.7148 0.7138 0.7116 0.7056 0.6994
3035.078552 0.6929 0.6865 0.6804 0.6740 0.6665
3039.770642 0.6576 0.6450 0.6292 0.6051 0.5821
3044.462733 0.5618 0.5441 0.5321 0.5194 0.5053
3049.154823 0.4912 0.4772 0.4631 0.4490 0.4350
3053.846914 0.4209 0.4072 0.3942 0.3860 0.3860
3058.539005 0.3918 0.4069 0.4302 0.4664 0.5025
3063.231095 0.5385 0.5909 0.6647 0.7169 0.7415
3067.923186 0.7575 0.7630 0.7683 0.7733 0.7793
3072.615277 0.7863 0.7948 0.8049 0.8112 0.8137
3077.307367 0.8172 0.8218 0.8265 0.8316 0.8358
3081.999458 0.8394 0.8424 0.8449 0.8474 0.8499
3086.691548 0.8516 0.8526 0.8533 0.8538 0.8546
3091.383639 0.8556 0.8569 0.8584 0.8596 0.8606
3096.075730 0.8616 0.8626 0.8636 0.8646 0.8650
3100.767820 0.8650 0.8653 0.8658 0.8663 0.8668
3105.459911 0.8670 0.8670 0.8670 0.8670 0.8670
3110.152001 0.8670 0.8670 0.8670 0.8670 0.8670
3114.844092 0.8674 0.8679 0.8684 0.8689 0.8690
3119.536183 0.8690 0.8694 0.8699 0.8700 0.8700
3124.228273 0.8708 0.8718 0.8720 0.8720 0.8724
3128.920364 0.8729 0.8734 0.8739 0.8744 0.8749
3133.612455 0.8754 0.8759 0.8764 0.8769 0.8783
3138.304545 0.8798 0.8809 0.8819 0.8820 0.8820
3142.996636 0.8825 0.8830 0.8830 0.8830 0.8835
3147.688726 0.8840 0.8840 0.8840 0.8849 0.8859
3152.380817 0.8865 0.8870 0.8870 0.8870 0.8870
3157.072908 0.8870 0.8870 0.8870 0.8870 0.8870
3161.764998 0.8870 0.8870 0.8865 0.8859 0.8844
3166.457089 0.8830 0.8820 0.8810 0.8805 0.8800
3171.149179 0.8795 0.8789 0.8774 0.8759 0.8749
3175.841270 0.8737 0.8707 0.8679 0.8669 0.8660
3180.533361 0.8660 0.8661 0.8671 0.8684 0.8709
3185.225451 0.8732 0.8747 0.8761 0.8766 0.8776
3189.917542 0.8811 0.8845 0.8870 0.8891 0.8896
3194.609633 0.8901 0.8906 0.8915 0.8935 0.8954
3199.301723 0.8969 0.8986 0.9011 0.9034 0.9049
3203.993814 0.9067 0.9092 0.9109 0.9104 0.9101
3208.685904 0.9106 0.9111 0.9117 0.9122 0.9127
3213.377995 0.9133 0.9143 0.9152 0.9157 0.9162
3218.070086 0.9167 0.9172 0.9177 0.9182 0.9187
3222.762176 0.9190 0.9190 0.9192 0.9197 0.9200
3227.454267 0.9200 0.9200 0.9200 0.9204 0.9214
3232.146357 0.9220 0.9220 0.9220 0.9220 0.9220
3236.838448 0.9220 0.9220 0.9220 0.9222 0.9227
3241.530539 0.9232 0.9238 0.9243 0.9248 0.9253
3246.222629 0.9258 0.9260 0.9260 0.9263 0.9268
3250.914720 0.9276 0.9286 0.9290 0.9290 0.9293
3255.606811 0.9298 0.9300 0.9300 0.9300 0.9300
3260.298901 0.9300 0.9300 0.9300 0.9300 0.9300
3264.990992 0.9300 0.9300 0.9300 0.9300 0.9300
3269.683082 0.9300 0.9300 0.9300 0.9300 0.9300
3274.375173 0.9300 0.9300 0.9300 0.9300 0.9300
3279.067264 0.9300 0.9300 0.9300 0.9300 0.9300
3283.759354 0.9300 0.9300 0.9300 0.9300 0.9300
3288.451445 0.9300 0.9300 0.9300 0.9300 0.9300
3293.143536 0.9300 0.9300 0.9300 0.9300 0.9300
3297.835626 0.9296 0.9291 0.9294 0.9299 0.9300
3302.527717 0.9300 0.9300 0.9300 0.9300 0.9300
3307.219807 0.9300 0.9300 0.9300 0.9300 0.9300
3311.911898 0.9300 0.9300 0.9300 0.9305 0.9310
3316.603989 0.9310 0.9310 0.9310 0.9310 0.9315
3321.296079 0.9320 0.9320 0.9320 0.9320 0.9320
3325.988170 0.9325 0.9330 0.9330 0.9330 0.9330
3330.680260 0.9330 0.9335 0.9340 0.9340 0.9340
3335.372351 0.9340 0.9340 0.9340 0.9340 0.9340
3340.064442 0.9341 0.9351 0.9360 0.9360 0.9360
3344.756532 0.9360 0.9360 0.9360 0.9360 0.9360
3349.448623 0.9360 0.9360 0.9358 0.9348 0.9340
3354.140714 0.9340 0.9340 0.9340 0.9340 0.9340
3358.832804 0.9340 0.9340 0.9340 0.9340 0.9342
3363.524895 0.9352 0.9356 0.9341 0.9331 0.9336
3368.216985 0.9340 0.9340 0.9340 0.9340 0.9340
3372.909076 0.9340 0.9343 0.9353 0.9360 0.9360
3377.601167 0.9360 0.9360 0.9360 0.9360 0.9360
3382.293257 0.9360 0.9360 0.9360 0.9360 0.9360
3386.985348 0.9360 0.9360 0.9360 0.9360 0.9360
3391.677438 0.9360 0.9360 0.9360 0.9360 0.9360
3396.369529 0.9360 0.9360 0.9360 0.9360 0.9360
3401.061620 0.9360 0.9362 0.9367 0.9370 0.9370
3405.753710 0.9368 0.9363 0.9355 0.9345 0.9340
3410.445801 0.9340 0.9340 0.9340 0.9340 0.9340
3415.137892 0.9340 0.9340 0.9340 0.9340 0.9340
3419.829982 0.9340 0.9340 0.9340 0.9346 0.9356
3424.522073 0.9360 0.9360 0.9360 0.9360 0.9360
3429.214163 0.9360 0.9354 0.9344 0.9340 0.9340
3433.906254 0.9340 0.9340 0.9340 0.9340 0.9340
3438.598345 0.9340 0.9340 0.9340 0.9336 0.9331
3443.290435 0.9330 0.9330 0.9330 0.9330 0.9330
3447.982526 0.9330 0.9330 0.9330 0.9330 0.9330
3452.674616 0.9330 0.9330 0.9330 0.9330 0.9330
3457.366707 0.9330 0.9330 0.9330 0.9330 0.9330
3462.058798 0.9330 0.9330 0.9330 0.9330 0.9330
3466.750888 0.9330 0.9330 0.9330 0.9330 0.9330
3471.442979 0.9330 0.9330 0.9330 0.9330 0.9330
3476.135070 0.9330 0.9330 0.9330 0.9330 0.9330
3480.827160 0.9330 0.9330 0.9330 0.9330 0.9330
3485.519251 0.9330 0.9330 0.9330 0.9330 0.9330
3490.211341 0.9330 0.9330 0.9330 0.9330 0.9330
3494.903432 0.9330 0.9335 0.9340 0.9335 0.9330
3499.595523 0.9330 0.9330 0.9330 0.9330 0.9330
3504.287613 0.9330 0.9325 0.9320 0.9320 0.9319
3508.979704 0.9314 0.9310 0.9310 0.9310 0.9310
3513.671795 0.9310 0.9310 0.9310 0.9310 0.9310
3518.363885 0.9310 0.9309 0.9304 0.9300 0.9300
3523.055976 0.9300 0.9300 0.9300 0.9300 0.9299
3527.748066 0.9294 0.9290 0.9290 0.9290 0.9290
3532.440157 0.9290 0.9290 0.9290 0.9290 0.9290
3537.132248 0.9290 0.9290 0.9290 0.9287 0.9277
3541.824338 0.9270 0.9270 0.9270 0.9270 0.9270
3546.516429 0.9270 0.9268 0.9263 0.9260 0.9260
3551.208519 0.9260 0.9260 0.9260 0.9260 0.9258
3555.900610 0.9253 0.9250 0.9250 0.9250 0.9250
3560.592701 0.9248 0.9243 0.9240 0.9240 0.9238
3565.284791 0.9233 0.9230 0.9230 0.9228 0.9223
3569.976882 0.9220 0.9220 0.9220 0.9220 0.9220
3574.668973 0.9220 0.9223 0.9228 0.9230 0.9230
3579.361063 0.9233 0.9238 0.9240 0.9240 0.9240
3584.053154 0.9240 0.9240 0.9240 0.9240 0.9240
3588.745244 0.9240 0.9240 0.9240 0.9240 0.9240
3593.437335 0.9240 0.9240 0.9240 0.9240 0.9240
3598.129426 0.9240 0.9240 0.9240 0.9240 0.9240
3602.821516 0.9240 0.9240 0.9240 0.9240 0.9240
3607.513607 0.9240 0.9240 0.9240 0.9240 0.9236
3612.205697 0.9231 0.9230 0.9230 0.9230 0.9230
3616.897788 0.9226 0.9221 0.9220 0.9220 0.9212
3621.589879 0.9202 0.9200 0.9200 0.9200 0.9200
3626.281969 0.9192 0.9182 0.9167 0.9152 0.9150
3630.974060 0.9150 0.9141 0.9131 0.9130 0.9130
3635.666151 0.9130 0.9130 0.9121 0.9111 0.9110
3640.358241 0.9110 0.9105 0.9100 0.9100 0.9100
3645.050332 0.9100 0.9100 0.9100 0.9100 0.9100
3649.742422 0.9100 0.9100 0.9100 0.9100 0.9100
3654.434513 0.9100 0.9100 0.9100 0.9100 0.9100
3659.126604 0.9100 0.9105 0.9110 0.9110 0.9110
3663.818694 0.9110 0.9110 0.9110 0.9110 0.9115
3668.510785 0.9120 0.9125 0.9130 0.9130 0.9131
3673.202876 0.9141 0.9151 0.9156 0.9160 0.9160
3677.894966 0.9161 0.9166 0.9171 0.9176 0.9180
3682.587057 0.9180 0.9180 0.9180 0.9180 0.9180
3687.279147 0.9179 0.9174 0.9169 0.9164 0.9160
3691.971238 0.9160 0.9159 0.9154 0.9148 0.9138
3696.663329 0.9129 0.9124 0.9120 0.9120 0.9119
3701.355419 0.9114 0.9107 0.9097 0.9086 0.9070
3706.047510 0.9060 0.9060 0.9060 0.9060 0.9060
3710.739600 0.9060 0.9060 0.9060 0.9063 0.9073
3715.431691 0.9080 0.9080 0.9080 0.9080 0.9076
3720.123782 0.9066 0.9054 0.9039 0.9028 0.9023
3724.815872 0.9018 0.9013 0.9008 0.9003 0.8993
3729.507963 0.8978 0.8966 0.8955 0.8941 0.8921
3734.200054 0.8910 0.8910 0.8910 0.8910 0.8910
3738.892144 0.8910 0.8910 0.8910 0.8910 0.8910
3743.584235 0.8921 0.8941 0.8955 0.8965 0.8973
3748.276325 0.8978 0.8988 0.9003 0.9013 0.9018
3752.968416 0.9023 0.9028 0.9033 0.9038 0.9043
3757.660507 0.9048 0.9053 0.9058 0.9066 0.9076
3762.352597 0.9083 0.9088 0.9093 0.9098 0.9103
3767.044688 0.9108 0.9113 0.9118 0.9120 0.9120
3771.736778 0.9120 0.9120 0.9120 0.9120 0.9120
3776.428869 0.9120 0.9120 0.9120 0.9120 0.9120
3781.120960 0.9120 0.9120 0.9120 0.9120 0.9124
3785.813050 0.9129 0.9130 0.9130 0.9126 0.9121
3790.505141 0.9112 0.9102 0.9071 0.9036 0.9034
3795.197232 0.9039
##END=
