##TITLE=N,N-Dimethylthioformamide
##JCAMP-DX=4.24
##DATA TYPE=INFRARED SPECTRUM
##ORIGIN=EPA-IR VAPOR PHASE LIBRARY
##OWNER=SRD/NIST
Collection (C) 2018 copyright by the U.S. Secretary of Commerce
on behalf of the United States of America. All rights reserved.
##CAS REGISTRY NO=758-16-7
##MOLFORM=C 3 H 7 N S
##$NIST SOURCE=MSDC-IR
##STATE=gas
##XUNITS=1/CM
##YUNITS=ABSORBANCE
##XFACTOR=1.
##YFACTOR=0.001
##DELTAX=1.92898
##FIRSTX=549.8
##LASTX=4000.7
##FIRSTY=0.761
##MAXX=4000.7
##MINX=549.759
##MAXY=0.06628
##MINY=0
##NPOINTS=1790
##XYDATA=(X++(Y..Y))
549.759 0.761 0.6802 0.3672 0.247 0.45889 0.4797 0.235 0.306 0.48739 0.188
569.049 0.104 0.256 0.4059 0.46255 0.224 0.291 0.4039 0.3456 0.392 0.318
588.339 0.171 0.212 0.308 0.3908 0.145 0 0.239 0.185 0.266 0.6099
607.628 0.5227 0.3898 0.41742 0.3886 0.51052 0.5978 0.6734 0.6609 0.603 0.8544
626.918 0.8644 0.5423 0.613 0.8035 0.8945 0.9565 1.0019 1.1178 1.1975 1.0509
646.208 1.1169 1.1873 1.1148 1.3112 1.2525 1.1366 1.1904 1.3276 1.3112 1.0986
665.498 1.0623 1.0204 0.7827 0.731 0.8632 0.7061 0.633 0.8815 0.797 0.3896
684.787 0.4055 0.5179 0.6312 0.752 0.6818 0.6019 0.5437 0.6596 0.7093 0.673
704.077 0.6518 0.6144 0.5585 0.5352 0.5789 0.5718 0.611 0.5844 0.5948 0.6054
723.367 0.5356 0.47165 0.559 0.7186 0.6609 0.7123 0.7733 0.7542 0.7278 0.8294
742.657 0.9435 0.8889 0.8521 0.8322 0.7755 0.8202 0.824 0.6504 0.6102 0.5375
761.947 0.5447 0.6596 0.6683 0.7454 0.702 0.6345 0.6504 0.699 0.6456 0.50572
781.236 0.582 0.6095 0.6319 0.7294 0.7769 0.6949 0.7471 0.6992 0.6566 0.7789
800.526 0.8567 0.9833 0.9187 0.9467 1.2581 1.3646 1.2703 1.3617 1.3798 1.4116
819.816 1.51 1.43 1.391 1.51 1.45 1.3625 1.55 1.69 1.56 1.43
839.106 1.48 1.4178 1.1312 1.0524 1.0686 0.9718 0.9512 0.931 0.9686 1.1208
858.395 1.1908 1.26 1.2743 1.1376 1.364 1.57 1.68 1.84 1.95 2.4
877.685 2.71 2.66 2.96 3.3 3.24 3.25 3.32 3.49 3.68 3.93
896.975 4.57 5.34 6.09 6.26 5.17 4.09 3.67 3.35 3.17 3.15
916.265 3.14 2.88 2.71 2.59 2.53 2.35 2.1 1.98 1.78 1.71
935.555 1.63 1.5 1.46 1.43 1.46 1.4022 1.3187 1.3242 1.3227 1.3463
954.844 1.4059 1.5 1.59 1.79 2.04 2.15 2.32 2.6 2.75 2.98
974.134 3.42 3.72 3.99 4.21 4.41 4.73 4.97 5.08 5.09 4.99
993.424 4.95 5.08 5.27 5.27 5.06 4.92 4.76 4.55 4.34 4.17
1012.714 4.02 3.89 3.81 3.63 3.87 4.52 4.66 4.73 4.84 5.22
1032.003 5.54 5.77 6.04 6.08 6.18 6.4 6.77 6.82 6.8 6.76
1051.293 6.62 6.71 6.88 7.1 6.91 6.83 7.12 7.21 7.06 6.96
1070.583 7.07 7.26 7.35 7.5 7.73 8.06 8.7 8.98 9.47 10.45
1089.873 10.92 11.3 12.06 13.36 15.12 16.48 17.74 19.35 21.55 23.99
1109.163 26.43 29.37 32.33 35.42 38.51 41.24 43.62 45.23 46.23 46.62
1128.452 47.26 48.59 48.99 48.87 48.73 48.27 47.38 45.17 42.24 38.78
1147.742 35.42 32.34 29.07 26.29 23.79 21.82 20.15 18.38 16.71 15.1
1167.032 13.51 12.44 11.75 10.76 9.72 8.78 8.21 7.79 7.25 7.03
1186.322 6.65 6.23 6 5.82 5.85 5.5 5.33 5.41 5.48 5.37
1205.611 5.26 5.34 5.14 4.8 4.54 4.51 4.41 4.11 4.02 4.21
1224.901 4.12 3.82 3.6 3.58 3.38 3.32 3.43 3.22 3.02 3.05
1244.191 3.01 2.77 2.69 2.68 2.61 2.6 2.56 2.6 2.69 2.66
1263.481 2.62 2.55 2.68 2.78 2.68 2.72 2.64 2.64 2.89 2.95
1282.771 2.84 2.81 2.93 2.92 2.95 3.1 3.13 3.19 3.24 3.21
1302.060 3.22 3.27 3.27 3.32 3.39 3.42 3.43 3.43 3.5 3.64
1321.350 3.79 3.87 3.96 4.09 4.28 4.48 4.68 4.93 5.27 5.62
1340.640 6.04 6.55 7.17 7.86 8.64 9.58 10.63 11.84 13.24 14.69
1359.930 16.16 17.65 19.22 20.79 22.35 24.04 25.88 27.94 30.4 33.23
1379.219 36.4 39.93 43.77 47.66 51.48 54.81 57.45 59.47 61.02 62.32
1398.509 63.53 64.71 65.66 66.24 66.28 65.48 63.41 60.2 56.53 52.22
1417.799 47.14 42.63 39.75 37.52 34.68 30.96 26.71 22.58 19.09 16.53
1437.089 14.78 13.81 13.46 13.61 14.21 15.16 16.46 17.77 19.21 20.82
1456.378 22.42 24.14 25.78 27.42 29.05 30.69 32.33 33.89 35.4 36.92
1475.668 38.23 39.36 40.25 40.93 41.51 41.99 42.44 42.91 43.4 43.91
1494.958 44.5 45.2 45.95 46.84 47.73 48.61 49.64 50.62 51.33 51.82
1514.248 52.02 51.81 51.17 50.25 48.98 47.61 46.06 44.25 42.24 40.09
1533.538 37.83 35.45 32.93 30.08 27.24 24.65 22.28 20.12 18.23 16.65
1552.827 15.37 14.18 13.19 12.3 11.47 10.78 10.16 9.61 9.1 8.63
1572.117 8.24 7.86 7.42 6.99 6.62 6.23 5.9 5.53 5.12 4.85
1591.407 4.62 4.31 4.06 3.8 3.61 3.48 3.35 3.23 3.04 2.95
1610.697 2.85 2.69 2.62 2.51 2.45 2.47 2.46 2.43 2.39 2.31
1629.986 2.26 2.25 2.25 2.21 2.19 2.15 2.1 2.06 2.01 1.95
1649.276 1.95 1.88 1.83 1.9 1.84 1.72 1.58 1.52 1.53 1.46
1668.566 1.3871 1.346 1.3262 1.2852 1.2478 1.2397 1.2296 1.1386 1.0145 1.0642
1687.856 1.1271 1.1359 1.1085 1.0725 1.0967 1.0808 1.0664 1.0912 1.0711 1.0057
1707.146 1.0225 1.0596 1.0835 1.0785 0.982 0.9009 0.8937 0.958 1.0296 1.0557
1726.435 1.0067 0.9166 0.83 0.8317 0.7821 0.7787 0.7733 0.6747 0.715 0.7453
1745.725 0.7259 0.6907 0.6444 0.6691 0.661 0.6152 0.6309 0.5936 0.5796 0.6049
1765.015 0.5887 0.6081 0.6494 0.6432 0.6152 0.6224 0.668 0.7006 0.7173 0.7382
1784.305 0.7829 0.8247 0.834 0.8678 0.8801 0.8249 0.7893 0.8015 0.8155 0.7986
1803.594 0.8248 0.8535 0.8174 0.8178 0.8155 0.7651 0.7276 0.7085 0.6728 0.6219
1822.884 0.6576 0.6684 0.6043 0.5901 0.5844 0.5517 0.5879 0.6272 0.5837 0.5241
1842.174 0.51216 0.51706 0.50507 0.5366 0.5519 0.5506 0.5393 0.5561 0.5368 0.5246
1861.464 0.5908 0.5918 0.5542 0.578 0.6168 0.6115 0.6306 0.6466 0.6275 0.5863
1880.754 0.57 0.6233 0.6608 0.6662 0.6579 0.6744 0.6851 0.6722 0.6918 0.735
1900.043 0.7214 0.7379 0.7537 0.7481 0.7888 0.7635 0.7613 0.7927 0.8182 0.8411
1919.333 0.8191 0.8171 0.8264 0.8166 0.797 0.8051 0.8505 0.8374 0.8614 0.9209
1938.623 0.9269 0.913 0.9002 0.9141 0.9254 0.9118 0.9234 0.9625 0.9998 1.0122
1957.913 1.0266 1.085 1.1274 1.1007 1.1211 1.1639 1.2185 1.2746 1.2791 1.264
1977.202 1.2539 1.2499 1.248 1.2701 1.2338 1.1934 1.1855 1.1632 1.1673 1.0833
1996.492 1.0311 1.0624 0.9928 0.9455 0.9342 0.9274 0.9122 0.8974 0.8507 0.8133
2015.782 0.8005 0.7264 0.725 0.8139 0.8483 0.8209 0.8305 0.8213 0.7926 0.7821
2035.072 0.7931 0.7946 0.747 0.7422 0.7562 0.7156 0.7149 0.7641 0.7466 0.7156
2054.362 0.6968 0.6617 0.6818 0.6858 0.6846 0.7102 0.734 0.7559 0.7222 0.6961
2073.651 0.7196 0.7183 0.6873 0.6817 0.6343 0.629 0.6339 0.6007 0.6128 0.655
2092.941 0.6687 0.6709 0.6834 0.6815 0.6585 0.6448 0.7051 0.7164 0.6841 0.6939
2112.231 0.6931 0.7031 0.6888 0.6446 0.7199 0.7984 0.7845 0.7113 0.6976 0.7643
2131.521 0.7828 0.725 0.6295 0.6181 0.5988 0.5849 0.6133 0.5683 0.5635 0.5727
2150.810 0.5642 0.5655 0.5312 0.5504 0.5609 0.51877 0.50779 0.5591 0.6168 0.5884
2170.100 0.5405 0.5711 0.6272 0.6422 0.6072 0.6668 0.7377 0.6887 0.679 0.7063
2189.390 0.7457 0.7869 0.7918 0.7933 0.8287 0.8655 0.8629 0.8663 0.9027 0.9263
2208.680 0.9185 1.008 1.0325 0.9701 0.9853 0.9559 0.9109 0.9297 0.9405 0.9217
2227.970 0.9418 0.9423 0.9312 0.889 0.8214 0.8332 0.8609 0.806 0.7516 0.7646
2247.259 0.7521 0.663 0.6427 0.6816 0.6875 0.6477 0.6266 0.6845 0.7062 0.6876
2266.549 0.6621 0.6785 0.7007 0.7163 0.7117 0.7291 0.81 0.8372 0.8408 0.824
2285.839 0.781 0.758 0.7119 0.7905 0.8693 0.905 0.9255 0.8377 0.8517 0.9226
2305.129 0.9132 0.9146 0.934 0.8793 0.8816 0.9323 0.9368 0.9009 0.8721 0.8602
2324.418 0.8919 0.9423 0.9071 0.9216 0.9323 0.8321 0.8204 0.8237 0.8405 0.8127
2343.708 0.7977 0.8566 0.7926 0.7994 0.8915 0.9057 0.8732 0.9023 0.9051 0.8308
2362.998 0.7372 0.7053 0.7419 0.7808 0.8032 0.7451 0.6843 0.7314 0.7955 0.7733
2382.288 0.7849 0.7955 0.7322 0.701 0.6976 0.6966 0.6897 0.6954 0.6964 0.6952
2401.578 0.6941 0.6905 0.7157 0.7361 0.7471 0.7501 0.7169 0.6788 0.6658 0.6834
2420.867 0.6835 0.6084 0.6325 0.6767 0.7179 0.7358 0.7198 0.7811 0.7037 0.6269
2440.157 0.6588 0.6437 0.6461 0.6751 0.6629 0.6278 0.6255 0.5803 0.5639 0.5901
2459.447 0.6163 0.67 0.6964 0.6984 0.7123 0.7513 0.7255 0.7062 0.7144 0.6746
2478.737 0.6876 0.7667 0.8156 0.7966 0.7609 0.7626 0.7544 0.7735 0.7667 0.7978
2498.026 0.826 0.7598 0.7413 0.7839 0.7529 0.7243 0.7991 0.8429 0.7766 0.7369
2517.316 0.7164 0.695 0.7049 0.6655 0.6951 0.7677 0.7607 0.7525 0.7664 0.7816
2536.606 0.7432 0.691 0.7096 0.6833 0.6635 0.7152 0.7598 0.7283 0.7108 0.6761
2555.896 0.6162 0.663 0.7213 0.6894 0.679 0.649 0.6369 0.7212 0.7292 0.707
2575.186 0.7506 0.7561 0.7156 0.7058 0.693 0.6883 0.7659 0.879 0.8311 0.8057
2594.475 0.8463 0.8913 0.9058 0.8498 0.8584 0.8484 0.8119 0.8008 0.87 0.8632
2613.765 0.8008 0.817 0.8544 0.8133 0.7892 0.8938 0.9219 0.8504 0.8847 0.9878
2633.055 0.8881 0.8294 0.9059 0.8435 0.8063 0.872 0.8932 0.8979 0.9275 0.9194
2652.345 0.9027 0.8751 0.8698 0.8849 0.8518 0.8685 0.8603 0.8752 0.9254 0.8486
2671.634 0.835 0.9013 0.9501 0.9394 0.9448 0.9284 0.8959 0.9589 0.9721 0.9446
2690.924 0.9215 0.9002 0.9202 0.9215 0.882 0.8653 0.9069 0.9518 0.9814 1.0513
2710.214 1.017 0.9564 0.9904 0.9801 0.9624 1.001 1.0225 1.0332 1.0813 1.0359
2729.504 0.9602 0.9686 1.0095 1.1202 1.1699 1.1474 1.1307 1.1485 1.2649 1.4034
2748.794 1.3887 1.3195 1.3637 1.4052 1.45 1.59 1.67 1.67 1.74 1.81
2768.083 1.83 1.81 1.92 2.1 2.09 2.22 2.44 2.47 2.57 2.84
2787.373 3.08 3.22 3.4 3.59 3.76 3.84 3.89 4.15 4.33 4.33
2806.663 4.33 4.33 4.35 4.43 4.48 4.36 4.3 4.25 4.15 4
2825.953 3.85 3.8 3.79 3.8 3.8 3.87 3.95 4.12 4.34 4.48
2845.242 4.8 5.16 5.39 5.6 5.84 6.16 6.45 6.79 7.21 7.57
2864.532 7.9 8.34 8.79 9.23 9.65 10.01 10.37 10.87 11.22 11.41
2883.822 11.74 12.08 12.3 12.53 12.99 13.4 13.69 14.06 14.58 15.11
2903.112 15.51 16.05 16.67 17.32 18.02 18.72 19.35 20.03 20.96 21.84
2922.401 22.63 23.51 24.39 25.2 25.86 26.45 26.94 27.34 27.6 27.55
2941.691 27.44 27.26 27.09 26.94 26.53 26.17 25.7 24.85 23.71 22.32
2960.981 21 19.75 18.54 17.49 16.54 15.64 14.82 14.21 13.66 13
2980.271 12.41 11.85 11.32 10.85 10.39 9.89 9.4 8.94 8.45 7.98
2999.561 7.55 7.19 6.94 6.73 6.53 6.32 6.13 5.92 5.68 5.47
3018.850 5.23 4.98 4.77 4.54 4.32 4.18 4.11 4.03 3.91 3.76
3038.140 3.52 3.38 3.33 3.26 3.13 3.02 2.88 2.84 2.8 2.63
3057.430 2.57 2.49 2.39 2.24 2.17 2.21 2.1 2.13 2.1 1.95
3076.720 1.89 1.85 1.75 1.74 1.84 1.78 1.66 1.57 1.54 1.49
3096.009 1.52 1.52 1.3941 1.3854 1.45 1.3789 1.2387 1.3272 1.43 1.4048
3115.299 1.3759 1.3234 1.2201 1.1519 1.1643 1.2162 1.1471 1.0775 1.0863 1.0276
3134.589 0.9084 0.8602 0.8865 0.8887 0.9432 1.0522 0.9357 0.9095 0.9978 0.972
3153.879 0.9703 0.8883 0.8089 0.7607 0.8074 0.9086 0.9519 0.9268 0.8744 0.7955
3173.169 0.7306 0.708 0.6739 0.7816 0.7916 0.6599 0.7278 0.8601 0.882 0.8579
3192.458 0.827 0.8076 0.7755 0.6367 0.6905 0.7659 0.6639 0.5869 0.5996 0.6779
3211.748 0.6588 0.6487 0.6764 0.6327 0.608 0.5992 0.6156 0.706 0.6467 0.5927
3231.038 0.5838 0.6552 0.7167 0.6122 0.5637 0.5742 0.6344 0.6304 0.5686 0.5369
3250.328 0.5929 0.7378 0.7145 0.5449 0.5832 0.6216 0.5381 0.632 0.6043 0.48398
3269.617 0.5505 0.5453 0.5937 0.638 0.5656 0.49243 0.5037 0.5999 0.6661 0.7521
3288.907 0.6913 0.51196 0.5523 0.6229 0.6082 0.7129 0.8007 0.8071 0.7206 0.6248
3308.197 0.5489 0.5634 0.5799 0.43033 0.41419 0.5727 0.7471 0.7537 0.6895 0.624
3327.487 0.5738 0.544 0.50925 0.51072 0.5673 0.6792 0.6622 0.6958 0.6644 0.5498
3346.777 0.51447 0.5806 0.6099 0.5297 0.5435 0.538 0.6429 0.7433 0.7256 0.693
3366.066 0.608 0.5412 0.50568 0.5787 0.653 0.6166 0.5525 0.5396 0.5489 0.5573
3385.356 0.7273 0.8158 0.6828 0.6155 0.5523 0.50266 0.5228 0.4176 0.4016 0.50284
3404.646 0.5688 0.6683 0.7468 0.6815 0.6289 0.6443 0.562 0.47903 0.49153 0.6319
3423.936 0.6272 0.458 0.5436 0.6223 0.5737 0.51806 0.47016 0.4928 0.5985 0.5909
3443.225 0.5646 0.6525 0.6338 0.7125 0.7763 0.7418 0.6256 0.46894 0.5386 0.6773
3462.515 0.7458 0.8435 0.6318 0.5275 0.6437 0.5963 0.6009 0.5539 0.6047 0.7264
3481.805 0.6123 0.49047 0.6107 0.732 0.7382 0.691 0.588 0.5875 0.652 0.6229
3501.095 0.5603 0.5426 0.50785 0.45399 0.6351 0.6471 0.3834 0.4025 0.50189 0.50385
3520.385 0.46501 0.44511 0.50688 0.555 0.5707 0.5886 0.5571 0.594 0.6436 0.5486
3539.674 0.5981 0.51923 0.4811 0.704 0.6779 0.5955 0.7096 0.7879 0.6444 0.5995
3558.964 0.6716 0.7346 0.7108 0.5917 0.5414 0.54 0.5861 0.6562 0.6365 0.597
3578.254 0.5921 0.6095 0.6252 0.49668 0.5562 0.6993 0.701 0.6398 0.616 0.7534
3597.544 0.7534 0.5998 0.51638 0.5616 0.6396 0.7299 0.7072 0.6843 0.6379 0.43805
3616.833 0.3444 0.4045 0.5345 0.5517 0.46081 0.51423 0.7643 0.7725 0.645 0.6492
3636.123 0.5669 0.5431 0.5825 0.5675 0.5622 0.5533 0.6672 0.7851 0.7991 0.7982
3655.413 0.6587 0.613 0.6319 0.6913 0.653 0.587 0.6774 0.7001 0.6096 0.51039
3674.703 0.5215 0.5585 0.5327 0.5274 0.5263 0.5525 0.6023 0.6294 0.594 0.5548
3693.993 0.5752 0.6607 0.6157 0.47358 0.49873 0.51896 0.6575 0.6074 0.5204 0.6641
3713.282 0.7018 0.6469 0.5312 0.49098 0.47196 0.47218 0.5238 0.49566 0.5439 0.552
3732.572 0.5906 0.6647 0.6965 0.6766 0.6784 0.7188 0.6995 0.7208 0.6153 0.5456
3751.862 0.5323 0.47065 0.50414 0.529 0.5322 0.6443 0.6986 0.6561 0.5774 0.5833
3771.152 0.6302 0.6052 0.5875 0.7194 0.7912 0.6835 0.6834 0.6756 0.6757 0.5356
3790.441 0.3854 0.6467 0.6979 0.5221 0.6347 0.649 0.5949 0.5577 0.5738 0.5601
3809.731 0.44972 0.5714 0.6557 0.6684 0.6822 0.6521 0.7182 0.7227 0.7217 0.6883
3829.021 0.5974 0.6518 0.7292 0.64 0.5774 0.5782 0.7284 0.7556 0.7803 0.8416
3848.311 0.8598 0.8684 0.787 0.7136 0.5997 0.6247 0.5928 0.5569 0.647 0.6818
3867.601 0.7012 0.6933 0.6847 0.7204 0.7269 0.7351 0.6028 0.614 0.6337 0.5559
3886.890 0.7505 0.8277 0.6575 0.5724 0.6899 0.8012 0.7364 0.6737 0.6943 0.763
3906.180 0.8085 0.8811 0.9017 0.7531 0.712 0.712 0.6612 0.6123 0.6222 0.6611
3925.470 0.7189 0.8802 0.8469 0.7254 0.6195 0.6287 0.5856 0.5413 0.7716 0.816
3944.760 0.7672 0.6941 0.7651 0.9137 0.974 0.9101 0.7244 0.8285 0.9155 0.86
3964.049 0.8671 0.8199 0.7919 0.8347 0.8543 0.9125 0.919 0.8043 0.7052 0.7263
3983.339 0.8172 0.921 0.8188 0.7562 0.8294 0.826 0.7871 0.7461 0.6752 0.6876
##END=
