##TITLE=HYDROGEN SULFIDE
##JCAMP-DX=4.24
##DATA TYPE=INFRARED SPECTRUM
##CLASS=COBLENTZ
##ORIGIN=DOW CHEMICAL COMPANY
##OWNER=COBLENTZ SOCIETY
Collection (C) 2018 copyright by the U.S. Secretary of Commerce
on behalf of the United States of America. All rights reserved.
##DATE=1964
##CAS REGISTRY NO=7783-06-4
##MOLFORM=H2 S
##SOURCE REFERENCE=COBLENTZ NO. 8759
##$NIST SOURCE=COBLENTZ
##$NIST IMAGE=cob8759
##SPECTROMETER/DATA SYSTEM=DOW KBr FOREPRISM
##INSTRUMENT PARAMETERS=GRATING CHANGED AT 5.0, 7.5, 15.0 MICRON
##STATE=GAS (600 mmHg DILUTED TO A TOTAL PRESSURE OF 600 mmHg WITH N2)
##PATH LENGTH=12.5 CM
##SAMPLING PROCEDURE=TRANSMISSION
##RESOLUTION=4
##DATA PROCESSING=DIGITIZED BY NIST FROM HARD COPY (FROM TWO SEGMENTS)
##XUNITS=1/CM
##YUNITS=TRANSMITTANCE
##XFACTOR=1.000000
##YFACTOR=1
##DELTAX=0.935748
##FIRSTX=457.891
##LASTX=3797.58
##FIRSTY=0.992
##MAXX=3797.58
##MINX=457.891
##MAXY=1
##MINY=0.544
##NPOINTS=3570
##XYDATA=(X++(Y..Y))
457.891000 0.9920 0.9920 0.9920 0.9920 0.9940
462.569742 0.9940 0.9940 0.9950 0.9950 0.9950
467.248485 0.9970 0.9970 0.9980 0.9980 0.9980
471.927227 0.9980 0.9980 0.9980 0.9980 0.9980
476.605970 0.9980 0.9980 0.9980 0.9980 0.9980
481.284712 0.9980 1.0000 1.0000 1.0000 1.0000
485.963455 1.0000 1.0000 1.0000 1.0000 1.0000
490.642197 1.0000 1.0000 1.0000 1.0000 1.0000
495.320940 0.9980 0.9980 0.9980 0.9970 0.9970
499.999682 0.9950 0.9950 0.9920 0.9920 0.9940
504.678424 0.9920 0.9920 0.9920 0.9920 0.9910
509.357167 0.9910 0.9910 0.9910 0.9890 0.9890
514.035909 0.9880 0.9880 0.9860 0.9850 0.9850
518.714652 0.9840 0.9840 0.9840 0.9850 0.9860
523.393394 0.9860 0.9850 0.9840 0.9840 0.9840
528.072137 0.9840 0.9840 0.9840 0.9850 0.9850
532.750879 0.9850 0.9840 0.9840 0.9820 0.9810
537.429622 0.9810 0.9810 0.9810 0.9790 0.9780
542.108364 0.9790 0.9780 0.9780 0.9780 0.9760
546.787106 0.9760 0.9760 0.9760 0.9760 0.9780
551.465849 0.9780 0.9790 0.9790 0.9790 0.9790
556.144591 0.9790 0.9810 0.9810 0.9810 0.9810
560.823334 0.9810 0.9810 0.9820 0.9840 0.9840
565.502076 0.9840 0.9850 0.9840 0.9840 0.9840
570.180819 0.9840 0.9840 0.9840 0.9840 0.9840
574.859561 0.9850 0.9850 0.9850 0.9850 0.9860
579.538304 0.9880 0.9860 0.9850 0.9850 0.9850
584.217046 0.9850 0.9860 0.9860 0.9860 0.9860
588.895788 0.9850 0.9850 0.9840 0.9840 0.9840
593.574531 0.9840 0.9840 0.9840 0.9840 0.9840
598.253273 0.9820 0.9820 0.9820 0.9820 0.9840
602.932016 0.9840 0.9840 0.9840 0.9840 0.9840
607.610758 0.9840 0.9840 0.9850 0.9860 0.9860
612.289501 0.9860 0.9860 0.9860 0.9860 0.9860
616.968243 0.9880 0.9880 0.9890 0.9890 0.9890
621.646985 0.9910 0.9910 0.9890 0.9890 0.9890
626.325728 0.9890 0.9890 0.9890 0.9890 0.9890
631.004470 0.9910 0.9910 0.9890 0.9890 0.9890
635.683213 0.9880 0.9880 0.9880 0.9880 0.9880
640.361955 0.9890 0.9880 0.9860 0.9860 0.9860
645.040698 0.9860 0.9860 0.9860 0.9860 0.9860
649.719440 0.9860 0.9890 0.9880 0.9860 0.9850
654.398183 0.9840 0.9840 0.9840 0.9840 0.9840
659.076925 0.9840 0.9840 0.9840 0.9840 0.9820
663.755667 0.9820 0.9820 0.9820 0.9820 0.9820
668.434410 0.9820 0.9820 0.9820 0.9820 0.9820
673.113152 0.9810 0.9810 0.9810 0.9790 0.9790
677.791895 0.9780 0.9780 0.9780 0.9780 0.9790
682.470637 0.9790 0.9810 0.9810 0.9810 0.9810
687.149380 0.9820 0.9840 0.9850 0.9860 0.9860
691.828122 0.9880 0.9880 0.9880 0.9880 0.9890
696.506865 0.9890 0.9910 0.9910 0.9920 0.9940
701.185607 0.9940 0.9940 0.9920 0.9920 0.9920
705.864349 0.9920 0.9940 0.9940 0.9940 0.9950
710.543092 0.9950 0.9940 0.9920 0.9920 0.9920
715.221834 0.9920 0.9910 0.9910 0.9910 0.9910
719.900577 0.9910 0.9890 0.9890 0.9880 0.9880
724.579319 0.9880 0.9860 0.9860 0.9860 0.9860
729.258062 0.9860 0.9860 0.9850 0.9840 0.9820
733.936804 0.9810 0.9810 0.9790 0.9790 0.9780
738.615547 0.9790 0.9790 0.9790 0.9780 0.9780
743.294289 0.9760 0.9760 0.9760 0.9760 0.9760
747.973031 0.9760 0.9760 0.9760 0.9760 0.9780
752.651774 0.9780 0.9790 0.9790 0.9780 0.9780
757.330516 0.9780 0.9780 0.9780 0.9780 0.9760
762.009259 0.9760 0.9760 0.9750 0.9750 0.9750
766.688001 0.9750 0.9730 0.9720 0.9710 0.9690
771.366744 0.9690 0.9680 0.9680 0.9680 0.9680
776.045486 0.9680 0.9680 0.9680 0.9680 0.9680
780.724229 0.9660 0.9660 0.9660 0.9660 0.9650
785.402971 0.9650 0.9650 0.9650 0.9630 0.9630
790.081713 0.9620 0.9620 0.9620 0.9620 0.9620
794.760456 0.9620 0.9630 0.9630 0.9630 0.9630
799.439198 0.9630 0.9630 0.9620 0.9620 0.9620
804.117941 0.9630 0.9650 0.9650 0.9650 0.9650
808.796683 0.9660 0.9660 0.9660 0.9660 0.9660
813.475426 0.9680 0.9680 0.9690 0.9690 0.9710
818.154168 0.9690 0.9690 0.9710 0.9720 0.9720
822.832911 0.9720 0.9720 0.9730 0.9730 0.9730
827.511653 0.9730 0.9750 0.9750 0.9750 0.9750
832.190395 0.9750 0.9760 0.9760 0.9760 0.9760
836.869138 0.9760 0.9780 0.9780 0.9780 0.9790
841.547880 0.9810 0.9810 0.9810 0.9790 0.9790
846.226623 0.9790 0.9790 0.9790 0.9810 0.9810
850.905365 0.9810 0.9790 0.9780 0.9780 0.9790
855.584108 0.9790 0.9790 0.9810 0.9810 0.9810
860.262850 0.9810 0.9810 0.9790 0.9790 0.9780
864.941592 0.9760 0.9760 0.9760 0.9760 0.9760
869.620335 0.9790 0.9790 0.9780 0.9780 0.9780
874.299077 0.9760 0.9760 0.9760 0.9750 0.9750
878.977820 0.9750 0.9780 0.9790 0.9790 0.9780
883.656562 0.9780 0.9780 0.9780 0.9780 0.9780
888.335305 0.9760 0.9750 0.9730 0.9730 0.9730
893.014047 0.9730 0.9730 0.9730 0.9730 0.9730
897.692790 0.9750 0.9750 0.9760 0.9760 0.9760
902.371532 0.9760 0.9760 0.9750 0.9750 0.9750
907.050274 0.9750 0.9750 0.9750 0.9760 0.9760
911.729017 0.9780 0.9790 0.9790 0.9810 0.9810
916.407759 0.9820 0.9840 0.9850 0.9840 0.9820
921.086502 0.9820 0.9820 0.9820 0.9820 0.9820
925.765244 0.9820 0.9840 0.9840 0.9860 0.9880
930.443987 0.9880 0.9880 0.9880 0.9860 0.9880
935.122729 0.9880 0.9910 0.9920 0.9950 0.9950
939.801472 0.9950 0.9950 0.9940 0.9920 0.9910
944.480214 0.9910 0.9910 0.9910 0.9910 0.9910
949.158956 0.9890 0.9890 0.9890 0.9890 0.9890
953.837699 0.9890 0.9890 0.9890 0.9890 0.9890
958.516441 0.9890 0.9920 0.9920 0.9890 0.9890
963.195184 0.9880 0.9880 0.9880 0.9880 0.9880
967.873926 0.9880 0.9910 0.9890 0.9880 0.9880
972.552669 0.9860 0.9860 0.9860 0.9860 0.9860
977.231411 0.9850 0.9850 0.9840 0.9850 0.9840
981.910154 0.9840 0.9840 0.9820 0.9840 0.9840
986.588896 0.9840 0.9840 0.9840 0.9820 0.9810
991.267638 0.9790 0.9780 0.9780 0.9780 0.9760
995.946381 0.9760 0.9760 0.9760 0.9760 0.9760
1000.625123 0.9760 0.9760 0.9760 0.9760 0.9760
1005.303866 0.9760 0.9760 0.9760 0.9760 0.9760
1009.982608 0.9760 0.9760 0.9810 0.9820 0.9820
1014.661351 0.9820 0.9820 0.9820 0.9820 0.9820
1019.340093 0.9820 0.9820 0.9810 0.9820 0.9810
1024.018836 0.9810 0.9790 0.9790 0.9790 0.9810
1028.697578 0.9810 0.9810 0.9810 0.9820 0.9840
1033.376320 0.9840 0.9840 0.9840 0.9850 0.9850
1038.055063 0.9850 0.9860 0.9880 0.9880 0.9860
1042.733805 0.9860 0.9860 0.9860 0.9860 0.9860
1047.412548 0.9860 0.9860 0.9860 0.9850 0.9840
1052.091290 0.9820 0.9810 0.9810 0.9820 0.9840
1056.770033 0.9850 0.9850 0.9850 0.9860 0.9890
1061.448775 0.9890 0.9880 0.9860 0.9840 0.9820
1066.127518 0.9790 0.9780 0.9780 0.9760 0.9750
1070.806260 0.9750 0.9780 0.9780 0.9760 0.9760
1075.485002 0.9760 0.9750 0.9730 0.9730 0.9710
1080.163745 0.9680 0.9680 0.9750 0.9750 0.9750
1084.842487 0.9730 0.9690 0.9680 0.9660 0.9650
1089.521230 0.9620 0.9600 0.9630 0.9680 0.9680
1094.199972 0.9680 0.9680 0.9690 0.9750 0.9720
1098.878715 0.9660 0.9620 0.9560 0.9550 0.9580
1103.557457 0.9590 0.9590 0.9600 0.9620 0.9600
1108.236200 0.9580 0.9470 0.9320 0.9320 0.9519
1112.914942 0.9530 0.9560 0.9600 0.9630 0.9630
1117.593684 0.9590 0.9261 0.9230 0.9200 0.9270
1122.272427 0.9430 0.9520 0.9620 0.9660 0.9660
1126.951169 0.9590 0.9520 0.9400 0.9260 0.9111
1131.629912 0.9111 0.9600 0.9630 0.9630 0.9600
1136.308654 0.9560 0.9430 0.9210 0.9210 0.9529
1140.987397 0.9550 0.9530 0.9520 0.9520 0.9500
1145.666139 0.9460 0.9320 0.9290 0.9290 0.9400
1150.344881 0.9460 0.9520 0.9620 0.9620 0.9590
1155.023624 0.9550 0.9500 0.9400 0.9390 0.9400
1159.702366 0.9520 0.9530 0.9530 0.9520 0.9470
1164.381109 0.9450 0.9450 0.9450 0.9470 0.9470
1169.059851 0.9450 0.9340 0.9290 0.9140 0.9100
1173.738594 0.9060 0.9060 0.9110 0.9240 0.9499
1178.417336 0.9560 0.9590 0.9620 0.9630 0.9650
1183.096079 0.9630 0.9620 0.9600 0.9560 0.9500
1187.774821 0.9300 0.9230 0.9210 0.9390 0.9530
1192.453563 0.9530 0.9560 0.9560 0.9161 0.8562
1197.132306 0.8561 0.8800 0.9060 0.8950 0.8900
1201.811048 0.8820 0.8900 0.8930 0.8970 0.9030
1206.489791 0.8650 0.8490 0.8350 0.8200 0.8200
1211.168533 0.8380 0.8520 0.8680 0.8999 0.8880
1215.847276 0.8680 0.8590 0.8510 0.8480 0.8450
1220.526018 0.8390 0.8330 0.8280 0.8220 0.8031
1225.204761 0.7870 0.7870 0.8160 0.8460 0.8800
1229.883503 0.8770 0.8720 0.8670 0.8610 0.8510
1234.562245 0.8429 0.7889 0.7450 0.7450 0.8230
1239.240988 0.8560 0.8610 0.8640 0.8640 0.8520
1243.919730 0.8378 0.7440 0.7441 0.8490 0.8490
1248.598473 0.7451 0.7380 0.7520 0.8068 0.8319
1253.277215 0.8389 0.7839 0.7550 0.7550 0.8170
1257.955958 0.8200 0.8260 0.8380 0.8420 0.8450
1262.634700 0.8880 0.8900 0.8900 0.8490 0.8450
1267.313443 0.8190 0.7940 0.7731 0.7501 0.7500
1271.992185 0.7930 0.8091 0.8950 0.8950 0.8910
1276.670927 0.8720 0.8540 0.8390 0.8360 0.8380
1281.349670 0.8650 0.8910 0.9140 0.9140 0.8910
1286.028412 0.8610 0.8331 0.8300 0.8290 0.7931
1290.707155 0.7729 0.7500 0.7260 0.7050 0.7050
1295.385897 0.7520 0.8419 0.9298 0.9460 0.9420
1300.064640 0.9199 0.8949 0.8429 0.8090 0.7990
1304.743382 0.7990 0.8849 0.9329 0.9450 0.9600
1309.422125 0.9599 0.9320 0.9170 0.8870 0.8620
1314.100867 0.8430 0.8250 0.8060 0.8220 0.8479
1318.779609 0.8821 0.9110 0.9230 0.9330 0.9340
1323.458352 0.9320 0.9400 0.9520 0.9530 0.9530
1328.137094 0.9530 0.9420 0.9290 0.9230 0.9060
1332.815837 0.9060 0.9270 0.9689 0.9690 0.9331
1337.494579 0.8979 0.8749 0.8490 0.8229 0.7260
1342.173322 0.7220 0.6561 0.6560 0.8037 0.9496
1346.852064 0.9500 0.9500 0.9200 0.9200 0.9390
1351.530807 0.9590 0.9620 0.9620 0.9580 0.9490
1356.209549 0.9239 0.9039 0.8610 0.8490 0.8330
1360.888291 0.8330 0.9059 0.9290 0.9290 0.8971
1365.567034 0.8720 0.8590 0.8680 0.8750 0.9340
1370.245776 0.9430 0.9600 0.9600 0.9580 0.9560
1374.924519 0.9550 0.9550 0.9550 0.9550 0.9560
1379.603261 0.9550 0.9520 0.9390 0.9360 0.9270
1384.282004 0.9291 0.9530 0.9630 0.9660 0.9580
1388.960746 0.9320 0.9060 0.9010 0.9060 0.9260
1393.639489 0.9300 0.9330 0.9340 0.9340 0.9420
1398.318231 0.9470 0.9520 0.9520 0.9560 0.9550
1402.996973 0.9530 0.9470 0.9430 0.9390 0.9320
1407.675716 0.9240 0.9210 0.9230 0.9420 0.9470
1412.354458 0.9500 0.9420 0.9340 0.9320 0.9270
1417.033201 0.9330 0.9390 0.9460 0.9470 0.9580
1421.711943 0.9590 0.9590 0.9580 0.9580 0.9530
1426.390686 0.9520 0.9500 0.9490 0.9450 0.9340
1431.069428 0.9300 0.9300 0.9420 0.9390 0.9370
1435.748170 0.9330 0.9270 0.9260 0.9270 0.9340
1440.426913 0.9430 0.9470 0.9500 0.9520 0.9520
1445.105655 0.9520 0.9520 0.9520 0.9520 0.9500
1449.784398 0.9460 0.9430 0.9420 0.9400 0.9390
1454.463140 0.9360 0.9320 0.9270 0.9170 0.9140
1459.141883 0.9170 0.9330 0.9420 0.9430 0.9430
1463.820625 0.9430 0.9420 0.9450 0.9490 0.9530
1468.499368 0.9550 0.9550 0.9420 0.9340 0.9320
1473.178110 0.9330 0.9370 0.9420 0.9470 0.9520
1477.856852 0.9550 0.9580 0.9590 0.9650 0.9530
1482.535595 0.9530 0.9600 0.9620 0.9630 0.9620
1487.214337 0.9560 0.9500 0.9470 0.9470 0.9490
1491.893080 0.9560 0.9600 0.9620 0.9590 0.9550
1496.571822 0.9450 0.9420 0.9400 0.9430 0.9530
1501.250565 0.9600 0.9630 0.9600 0.9550 0.9490
1505.929307 0.9270 0.9200 0.9210 0.9240 0.9390
1510.608050 0.9460 0.9500 0.9530 0.9530 0.9550
1515.286792 0.9550 0.9530 0.9460 0.9420 0.9400
1519.965534 0.9370 0.9270 0.9240 0.9240 0.9300
1524.644277 0.9400 0.9430 0.9400 0.9460 0.9500
1529.323019 0.9500 0.9520 0.9530 0.9520 0.9470
1534.001762 0.9430 0.9400 0.9300 0.9500 0.9400
1538.680504 0.9270 0.9000 0.8980 0.8980 0.9189
1543.359247 0.9240 0.9320 0.9360 0.9420 0.9520
1548.037989 0.9520 0.9530 0.9530 0.9530 0.9520
1552.716732 0.9470 0.9450 0.9320 0.9270 0.9230
1557.395474 0.9070 0.9000 0.9000 0.9210 0.9360
1562.074216 0.9470 0.9560 0.9560 0.9550 0.9550
1566.752959 0.9550 0.9520 0.9450 0.9430 0.9520
1571.431701 0.9550 0.9530 0.9520 0.9390 0.9300
1576.110444 0.9300 0.9370 0.9520 0.9520 0.9560
1580.789186 0.9580 0.9590 0.9590 0.9590 0.9590
1585.467929 0.9580 0.9580 0.9580 0.9580 0.9560
1590.146671 0.9550 0.9530 0.9520 0.9500 0.9500
1594.825414 0.9490 0.9490 0.9470 0.9470 0.9470
1599.504156 0.9470 0.9470 0.9460 0.9430 0.9420
1604.182898 0.9400 0.9390 0.9390 0.9360 0.9330
1608.861641 0.9320 0.9300 0.9290 0.9260 0.9210
1613.540383 0.9190 0.9080 0.9040 0.9010 0.9040
1618.219126 0.9160 0.9170 0.9170 0.9100 0.9100
1622.897868 0.9100 0.9110 0.9190 0.9200 0.9210
1627.576611 0.9240 0.9270 0.9290 0.9270 0.9270
1632.255353 0.9240 0.9140 0.9080 0.9080 0.9100
1636.934096 0.9290 0.9330 0.9370 0.9390 0.9400
1641.612838 0.9400 0.9370 0.9320 0.9230 0.9100
1646.291580 0.9080 0.9190 0.9290 0.9290 0.9230
1650.970323 0.9040 0.8940 0.8930 0.8950 0.9269
1655.649065 0.9400 0.9450 0.9500 0.9500 0.9500
1660.327808 0.9500 0.9490 0.9490 0.9470 0.9460
1665.006550 0.9430 0.9400 0.9390 0.9360 0.9340
1669.685293 0.9320 0.9300 0.9320 0.9320 0.9340
1674.364035 0.9360 0.9370 0.9400 0.9420 0.9430
1679.042777 0.9430 0.9360 0.9240 0.9140 0.9040
1683.721520 0.9061 0.9200 0.9320 0.9390 0.9400
1688.400262 0.9420 0.9450 0.9500 0.9500 0.9430
1693.079005 0.9269 0.9080 0.9060 0.9070 0.9100
1697.757747 0.9160 0.9170 0.9190 0.9260 0.9330
1702.436490 0.9360 0.9390 0.9360 0.9390 0.9420
1707.115232 0.9500 0.9500 0.9520 0.9520 0.9430
1711.793975 0.9360 0.9290 0.9230 0.9140 0.9100
1716.472717 0.9100 0.9160 0.9320 0.9430 0.9470
1721.151459 0.9490 0.9500 0.9500 0.9500 0.9500
1725.830202 0.9490 0.9460 0.9450 0.9370 0.9320
1730.508944 0.9260 0.9160 0.9100 0.9070 0.9140
1735.187687 0.9210 0.9290 0.9340 0.9340 0.9340
1739.866429 0.9360 0.9360 0.9370 0.9390 0.9390
1744.545172 0.9370 0.9330 0.9320 0.9300 0.9290
1749.223914 0.9230 0.9300 0.9340 0.9360 0.9370
1753.902657 0.9390 0.9400 0.9420 0.9420 0.9420
1758.581399 0.9430 0.9430 0.9450 0.9460 0.9470
1763.260141 0.9470 0.9400 0.9360 0.9340 0.9330
1767.938884 0.9300 0.9290 0.9260 0.9260 0.9290
1772.617626 0.9460 0.9470 0.9470 0.9470 0.9470
1777.296369 0.9460 0.9450 0.9460 0.9460 0.9490
1781.975111 0.9500 0.9500 0.9520 0.9520 0.9500
1786.653854 0.9470 0.9430 0.9390 0.9360 0.9360
1791.332596 0.9430 0.9490 0.9500 0.9500 0.9520
1796.011339 0.9520 0.9490 0.9490 0.9500 0.9520
1800.690081 0.9550 0.9580 0.9580 0.9580 0.9580
1805.368823 0.9530 0.9530 0.9530 0.9530 0.9530
1810.047566 0.9530 0.9530 0.9550 0.9580 0.9580
1814.726308 0.9580 0.9590 0.9600 0.9600 0.9600
1819.405051 0.9590 0.9580 0.9550 0.9530 0.9520
1824.083793 0.9520 0.9520 0.9490 0.9490 0.9500
1828.762536 0.9530 0.9550 0.9560 0.9580 0.9580
1833.441278 0.9580 0.9580 0.9580 0.9580 0.9580
1838.120021 0.9560 0.9560 0.9530 0.9460 0.9420
1842.798763 0.9420 0.9500 0.9530 0.9560 0.9580
1847.477505 0.9580 0.9590 0.9590 0.9590 0.9590
1852.156248 0.9590 0.9590 0.9590 0.9590 0.9590
1856.834990 0.9580 0.9580 0.9580 0.9580 0.9560
1861.513733 0.9560 0.9550 0.9550 0.9530 0.9520
1866.192475 0.9500 0.9500 0.9500 0.9520 0.9530
1870.871218 0.9530 0.9520 0.9530 0.9530 0.9530
1875.549960 0.9550 0.9550 0.9550 0.9550 0.9550
1880.228703 0.9550 0.9550 0.9550 0.9560 0.9560
1884.907445 0.9560 0.9560 0.9560 0.9560 0.9560
1889.586187 0.9560 0.9560 0.9560 0.9560 0.9560
1894.264930 0.9580 0.9560 0.9560 0.9580 0.9580
1898.943672 0.9580 0.9580 0.9560 0.9560 0.9560
1903.622415 0.9550 0.9550 0.9550 0.9530 0.9530
1908.301157 0.9530 0.9530 0.9530 0.9530 0.9530
1912.979900 0.9530 0.9530 0.9530 0.9550 0.9550
1917.658642 0.9560 0.9580 0.9580 0.9590 0.9590
1922.337385 0.9600 0.9600 0.9600 0.9600 0.9600
1927.016127 0.9600 0.9600 0.9600 0.9620 0.9620
1931.694869 0.9600 0.9600 0.9590 0.9590 0.9580
1936.373612 0.9580 0.9580 0.9580 0.9580 0.9560
1941.052354 0.9560 0.9560 0.9580 0.9590 0.9590
1945.731097 0.9590 0.9590 0.9590 0.9600 0.9600
1950.409839 0.9600 0.9620 0.9620 0.9620 0.9630
1955.088582 0.9630 0.9630 0.9650 0.9660 0.9660
1959.767324 0.9660 0.9660 0.9660 0.9680 0.9680
1964.446066 0.9680 0.9680 0.9680 0.9690 0.9690
1969.124809 0.9710 0.9710 0.9710 0.9710 0.9710
1973.803551 0.9710 0.9710 0.9710 0.9710 0.9710
1978.482294 0.9710 0.9710 0.9710 0.9710 0.9710
1983.161036 0.9710 0.9710 0.9710 0.9710 0.9720
1987.839779 0.9720 0.9720 0.9720 0.9720 0.9720
1992.518521 0.9720 0.9720 0.9720 0.9720 0.9720
1997.197264 0.9720 0.9720 0.9720 0.9720 0.9720
2001.876006 0.9720 0.9720 0.9720 0.9720 0.9720
2006.554748 0.9720 0.9720 0.9720 0.9720 0.9720
2011.233491 0.9720 0.9720 0.9720 0.9720 0.9720
2015.912233 0.9720 0.9720 0.9715 0.9710 0.9710
2020.590976 0.9710 0.9710 0.9710 0.9710 0.9710
2025.269718 0.9710 0.9710 0.9701 0.9691 0.9690
2029.948461 0.9690 0.9690 0.9690 0.9690 0.9690
2034.627203 0.9690 0.9690 0.9699 0.9709 0.9701
2039.305946 0.9691 0.9690 0.9690 0.9690 0.9690
2043.984688 0.9690 0.9690 0.9690 0.9690 0.9690
2048.663430 0.9690 0.9690 0.9690 0.9690 0.9690
2053.342173 0.9690 0.9690 0.9690 0.9690 0.9690
2058.020915 0.9690 0.9690 0.9690 0.9690 0.9690
2062.699658 0.9690 0.9690 0.9690 0.9690 0.9690
2067.378400 0.9690 0.9690 0.9690 0.9690 0.9690
2072.057143 0.9690 0.9690 0.9690 0.9690 0.9690
2076.735885 0.9690 0.9690 0.9690 0.9690 0.9690
2081.414628 0.9690 0.9690 0.9690 0.9690 0.9690
2086.093370 0.9690 0.9690 0.9690 0.9690 0.9690
2090.772112 0.9686 0.9681 0.9680 0.9680 0.9680
2095.450855 0.9680 0.9680 0.9680 0.9680 0.9680
2100.129597 0.9680 0.9680 0.9680 0.9680 0.9680
2104.808340 0.9680 0.9680 0.9680 0.9680 0.9680
2109.487082 0.9680 0.9680 0.9680 0.9680 0.9680
2114.165825 0.9680 0.9680 0.9680 0.9680 0.9680
2118.844567 0.9680 0.9680 0.9680 0.9680 0.9680
2123.523310 0.9680 0.9680 0.9680 0.9680 0.9680
2128.202052 0.9680 0.9680 0.9680 0.9680 0.9680
2132.880794 0.9680 0.9680 0.9680 0.9680 0.9680
2137.559537 0.9680 0.9680 0.9680 0.9680 0.9680
2142.238279 0.9680 0.9680 0.9680 0.9680 0.9680
2146.917022 0.9680 0.9680 0.9680 0.9680 0.9680
2151.595764 0.9680 0.9680 0.9680 0.9680 0.9680
2156.274507 0.9680 0.9680 0.9680 0.9680 0.9680
2160.953249 0.9680 0.9680 0.9680 0.9680 0.9680
2165.631992 0.9683 0.9688 0.9690 0.9690 0.9690
2170.310734 0.9690 0.9690 0.9690 0.9690 0.9690
2174.989476 0.9690 0.9690 0.9690 0.9690 0.9690
2179.668219 0.9690 0.9690 0.9690 0.9690 0.9690
2184.346961 0.9690 0.9690 0.9690 0.9690 0.9690
2189.025704 0.9690 0.9690 0.9690 0.9690 0.9690
2193.704446 0.9696 0.9706 0.9710 0.9710 0.9710
2198.383189 0.9710 0.9710 0.9710 0.9710 0.9710
2203.061931 0.9710 0.9710 0.9710 0.9710 0.9710
2207.740673 0.9710 0.9704 0.9694 0.9690 0.9690
2212.419416 0.9690 0.9690 0.9690 0.9690 0.9690
2217.098158 0.9690 0.9690 0.9690 0.9690 0.9690
2221.776901 0.9687 0.9682 0.9680 0.9680 0.9680
2226.455643 0.9680 0.9680 0.9680 0.9680 0.9680
2231.134386 0.9680 0.9680 0.9680 0.9680 0.9675
2235.813128 0.9665 0.9660 0.9660 0.9660 0.9660
2240.491871 0.9660 0.9660 0.9660 0.9660 0.9660
2245.170613 0.9660 0.9660 0.9660 0.9660 0.9660
2249.849355 0.9660 0.9660 0.9660 0.9660 0.9660
2254.528098 0.9660 0.9660 0.9660 0.9665 0.9675
2259.206840 0.9680 0.9680 0.9680 0.9680 0.9680
2263.885583 0.9680 0.9682 0.9687 0.9690 0.9690
2268.564325 0.9690 0.9690 0.9688 0.9683 0.9680
2273.243068 0.9680 0.9680 0.9680 0.9680 0.9680
2277.921810 0.9682 0.9687 0.9690 0.9690 0.9690
2282.600553 0.9690 0.9690 0.9690 0.9690 0.9690
2287.279295 0.9690 0.9690 0.9690 0.9690 0.9690
2291.958037 0.9690 0.9684 0.9669 0.9660 0.9660
2296.636780 0.9664 0.9674 0.9682 0.9687 0.9694
2301.315522 0.9704 0.9710 0.9710 0.9710 0.9710
2305.994265 0.9710 0.9710 0.9710 0.9710 0.9710
2310.673007 0.9710 0.9710 0.9710 0.9710 0.9710
2315.351750 0.9706 0.9696 0.9690 0.9690 0.9690
2320.030492 0.9690 0.9690 0.9690 0.9690 0.9690
2324.709235 0.9690 0.9690 0.9690 0.9690 0.9690
2329.387977 0.9690 0.9690 0.9690 0.9690 0.9690
2334.066719 0.9690 0.9690 0.9690 0.9690 0.9690
2338.745462 0.9690 0.9690 0.9690 0.9690 0.9690
2343.424204 0.9690 0.9690 0.9690 0.9690 0.9690
2348.102947 0.9690 0.9690 0.9690 0.9690 0.9690
2352.781689 0.9690 0.9690 0.9693 0.9703 0.9710
2357.460432 0.9710 0.9710 0.9710 0.9710 0.9710
2362.139174 0.9710 0.9710 0.9710 0.9710 0.9711
2366.817917 0.9716 0.9720 0.9720 0.9720 0.9720
2371.496659 0.9720 0.9720 0.9720 0.9720 0.9720
2376.175401 0.9720 0.9720 0.9720 0.9720 0.9720
2380.854144 0.9720 0.9720 0.9721 0.9726 0.9730
2385.532886 0.9730 0.9730 0.9730 0.9730 0.9730
2390.211629 0.9730 0.9730 0.9730 0.9730 0.9730
2394.890371 0.9730 0.9730 0.9730 0.9730 0.9730
2399.569114 0.9730 0.9730 0.9730 0.9730 0.9730
2404.247856 0.9730 0.9729 0.9724 0.9720 0.9720
2408.926599 0.9720 0.9720 0.9720 0.9720 0.9719
2413.605341 0.9714 0.9710 0.9710 0.9710 0.9710
2418.284083 0.9710 0.9710 0.9708 0.9698 0.9690
2422.962826 0.9690 0.9690 0.9690 0.9690 0.9690
2427.641568 0.9690 0.9690 0.9691 0.9701 0.9710
2432.320311 0.9710 0.9711 0.9716 0.9720 0.9720
2436.999053 0.9720 0.9720 0.9719 0.9714 0.9711
2441.677796 0.9716 0.9720 0.9720 0.9720 0.9720
2446.356538 0.9720 0.9725 0.9730 0.9730 0.9730
2451.035281 0.9730 0.9730 0.9730 0.9730 0.9730
2455.714023 0.9730 0.9730 0.9730 0.9725 0.9720
2460.392765 0.9720 0.9720 0.9720 0.9720 0.9715
2465.071508 0.9709 0.9699 0.9690 0.9685 0.9680
2469.750250 0.9680 0.9680 0.9680 0.9680 0.9680
2474.428993 0.9681 0.9696 0.9711 0.9736 0.9760
2479.107735 0.9770 0.9780 0.9780 0.9780 0.9780
2483.786478 0.9780 0.9780 0.9780 0.9780 0.9780
2488.465220 0.9770 0.9760 0.9755 0.9750 0.9750
2493.143962 0.9750 0.9740 0.9730 0.9730 0.9730
2497.822705 0.9730 0.9730 0.9730 0.9730 0.9730
2502.501447 0.9730 0.9730 0.9730 0.9730 0.9730
2507.180190 0.9730 0.9730 0.9730 0.9730 0.9725
2511.858932 0.9720 0.9720 0.9720 0.9720 0.9720
2516.537675 0.9720 0.9720 0.9720 0.9720 0.9720
2521.216417 0.9720 0.9725 0.9730 0.9730 0.9730
2525.895160 0.9730 0.9730 0.9730 0.9730 0.9739
2530.573902 0.9749 0.9750 0.9750 0.9764 0.9779
2535.252644 0.9785 0.9790 0.9790 0.9790 0.9785
2539.931387 0.9780 0.9771 0.9761 0.9760 0.9760
2544.610129 0.9755 0.9750 0.9750 0.9750 0.9750
2549.288872 0.9750 0.9750 0.9750 0.9750 0.9750
2553.967614 0.9750 0.9750 0.9750 0.9750 0.9750
2558.646357 0.9750 0.9750 0.9750 0.9750 0.9750
2563.325099 0.9754 0.9759 0.9760 0.9760 0.9760
2568.003842 0.9760 0.9756 0.9751 0.9707 0.9657
2572.682584 0.9625 0.9595 0.9586 0.9581 0.9567
2577.361326 0.9552 0.9554 0.9559 0.9577 0.9597
2582.040069 0.9608 0.9618 0.9624 0.9629 0.9630
2586.718811 0.9630 0.9630 0.9630 0.9638 0.9648
2591.397554 0.9650 0.9650 0.9654 0.9659 0.9660
2596.076296 0.9660 0.9660 0.9660 0.9660 0.9660
2600.755039 0.9656 0.9651 0.9654 0.9659 0.9660
2605.433781 0.9660 0.9660 0.9660 0.9660 0.9660
2610.112524 0.9668 0.9678 0.9680 0.9680 0.9680
2614.791266 0.9680 0.9672 0.9662 0.9660 0.9660
2619.470008 0.9656 0.9651 0.9642 0.9632 0.9630
2624.148751 0.9630 0.9626 0.9621 0.9613 0.9603
2628.827493 0.9600 0.9600 0.9596 0.9591 0.9586
2633.506236 0.9581 0.9580 0.9580 0.9573 0.9563
2638.184978 0.9556 0.9551 0.9550 0.9550 0.9543
2642.863721 0.9533 0.9530 0.9530 0.9526 0.9521
2647.542463 0.9520 0.9520 0.9513 0.9503 0.9500
2652.221206 0.9500 0.9497 0.9492 0.9490 0.9490
2656.899948 0.9480 0.9465 0.9450 0.9435 0.9420
2661.578690 0.9405 0.9386 0.9367 0.9350 0.9335
2666.257433 0.9320 0.9305 0.9287 0.9267 0.9250
2670.936175 0.9235 0.9220 0.9205 0.9190 0.9175
2675.614918 0.9160 0.9145 0.9130 0.9115 0.9107
2680.293660 0.9102 0.9090 0.9075 0.9061 0.9046
2684.972403 0.9040 0.9040 0.9040 0.9040 0.9040
2689.651145 0.9040 0.9046 0.9056 0.9060 0.9060
2694.329888 0.9060 0.9060 0.9063 0.9068 0.9073
2699.008630 0.9078 0.9086 0.9096 0.9100 0.9100
2703.687372 0.9103 0.9108 0.9116 0.9126 0.9133
2708.366115 0.9138 0.9146 0.9156 0.9160 0.9160
2713.044857 0.9163 0.9168 0.9176 0.9186 0.9196
2717.723600 0.9206 0.9216 0.9226 0.9230 0.9230
2722.402342 0.9233 0.9238 0.9240 0.9240 0.9240
2727.081085 0.9240 0.9248 0.9263 0.9275 0.9285
2731.759827 0.9309 0.9344 0.9368 0.9383 0.9390
2736.438570 0.9390 0.9390 0.9390 0.9377 0.9352
2741.117312 0.9337 0.9332 0.9333 0.9338 0.9340
2745.796054 0.9340 0.9347 0.9362 0.9375 0.9385
2750.474797 0.9398 0.9413 0.9427 0.9442 0.9450
2755.153539 0.9450 0.9455 0.9465 0.9470 0.9470
2759.832282 0.9477 0.9492 0.9505 0.9515 0.9522
2764.511024 0.9527 0.9530 0.9530 0.9530 0.9530
2769.189767 0.9530 0.9530 0.9530 0.9530 0.9530
2773.868509 0.9530 0.9530 0.9530 0.9530 0.9530
2778.547251 0.9530 0.9530 0.9530 0.9530 0.9530
2783.225994 0.9530 0.9530 0.9530 0.9530 0.9530
2787.904736 0.9530 0.9530 0.9528 0.9523 0.9520
2792.583479 0.9520 0.9520 0.9520 0.9520 0.9520
2797.262221 0.9520 0.9520 0.9520 0.9520 0.9520
2801.940964 0.9520 0.9516 0.9506 0.9500 0.9500
2806.619706 0.9498 0.9493 0.9490 0.9490 0.9492
2811.298449 0.9497 0.9500 0.9500 0.9500 0.9500
2815.977191 0.9500 0.9500 0.9500 0.9500 0.9500
2820.655933 0.9500 0.9500 0.9500 0.9500 0.9500
2825.334676 0.9500 0.9500 0.9500 0.9500 0.9500
2830.013418 0.9500 0.9500 0.9500 0.9500 0.9500
2834.692161 0.9500 0.9500 0.9500 0.9500 0.9500
2839.370903 0.9500 0.9503 0.9513 0.9520 0.9520
2844.049646 0.9520 0.9520 0.9520 0.9520 0.9522
2848.728388 0.9527 0.9530 0.9530 0.9530 0.9530
2853.407131 0.9530 0.9530 0.9530 0.9530 0.9530
2858.085873 0.9530 0.9530 0.9530 0.9530 0.9530
2862.764615 0.9530 0.9530 0.9530 0.9530 0.9529
2867.443358 0.9524 0.9520 0.9520 0.9517 0.9507
2872.122100 0.9500 0.9500 0.9499 0.9494 0.9490
2876.800843 0.9490 0.9488 0.9478 0.9470 0.9470
2881.479585 0.9472 0.9482 0.9490 0.9490 0.9491
2886.158328 0.9496 0.9500 0.9500 0.9502 0.9512
2890.837070 0.9520 0.9520 0.9520 0.9520 0.9521
2895.515813 0.9526 0.9530 0.9530 0.9530 0.9530
2900.194555 0.9530 0.9530 0.9530 0.9530 0.9530
2904.873297 0.9530 0.9529 0.9524 0.9520 0.9520
2909.552040 0.9520 0.9520 0.9518 0.9508 0.9499
2914.230782 0.9494 0.9488 0.9478 0.9470 0.9470
2918.909525 0.9469 0.9464 0.9458 0.9443 0.9428
2923.588267 0.9413 0.9400 0.9400 0.9399 0.9394
2928.267010 0.9390 0.9390 0.9389 0.9379 0.9370
2932.945752 0.9370 0.9369 0.9364 0.9359 0.9349
2937.624495 0.9340 0.9340 0.9339 0.9334 0.9329
2942.303237 0.9324 0.9320 0.9320 0.9320 0.9320
2946.981979 0.9319 0.9309 0.9300 0.9300 0.9300
2951.660722 0.9300 0.9300 0.9300 0.9300 0.9300
2956.339464 0.9300 0.9295 0.9290 0.9290 0.9289
2961.018207 0.9274 0.9259 0.9249 0.9240 0.9240
2965.696949 0.9240 0.9235 0.9230 0.9230 0.9230
2970.375692 0.9230 0.9230 0.9230 0.9230 0.9230
2975.054434 0.9230 0.9230 0.9230 0.9230 0.9230
2979.733177 0.9220 0.9210 0.9210 0.9210 0.9210
2984.411919 0.9210 0.9210 0.9210 0.9210 0.9210
2989.090661 0.9210 0.9210 0.9210 0.9210 0.9210
2993.769404 0.9210 0.9210 0.9210 0.9210 0.9210
2998.448146 0.9210 0.9210 0.9210 0.9210 0.9210
3003.126889 0.9210 0.9210 0.9210 0.9205 0.9200
3007.805631 0.9200 0.9200 0.9200 0.9200 0.9195
3012.484374 0.9190 0.9190 0.9190 0.9180 0.9170
3017.163116 0.9170 0.9170 0.9170 0.9170 0.9165
3021.841858 0.9160 0.9160 0.9160 0.9160 0.9160
3026.520601 0.9160 0.9160 0.9160 0.9160 0.9160
3031.199343 0.9160 0.9160 0.9160 0.9160 0.9160
3035.878086 0.9160 0.9160 0.9160 0.9160 0.9160
3040.556828 0.9160 0.9160 0.9160 0.9160 0.9160
3045.235571 0.9160 0.9160 0.9160 0.9160 0.9160
3049.914313 0.9160 0.9160 0.9160 0.9160 0.9160
3054.593056 0.9160 0.9160 0.9160 0.9160 0.9160
3059.271798 0.9160 0.9160 0.9160 0.9160 0.9160
3063.950540 0.9160 0.9160 0.9160 0.9160 0.9160
3068.629283 0.9160 0.9160 0.9160 0.9160 0.9160
3073.308025 0.9160 0.9160 0.9160 0.9160 0.9160
3077.986768 0.9160 0.9160 0.9160 0.9152 0.9142
3082.665510 0.9140 0.9140 0.9140 0.9140 0.9140
3087.344253 0.9140 0.9140 0.9140 0.9140 0.9140
3092.022995 0.9140 0.9140 0.9140 0.9140 0.9140
3096.701738 0.9140 0.9140 0.9140 0.9140 0.9140
3101.380480 0.9140 0.9140 0.9140 0.9140 0.9140
3106.059222 0.9140 0.9140 0.9140 0.9140 0.9140
3110.737965 0.9140 0.9140 0.9140 0.9140 0.9136
3115.416707 0.9131 0.9130 0.9130 0.9130 0.9130
3120.095450 0.9130 0.9130 0.9130 0.9130 0.9130
3124.774192 0.9130 0.9130 0.9130 0.9130 0.9130
3129.452935 0.9130 0.9130 0.9130 0.9130 0.9130
3134.131677 0.9130 0.9130 0.9130 0.9130 0.9130
3138.810420 0.9130 0.9130 0.9130 0.9130 0.9130
3143.489162 0.9130 0.9130 0.9130 0.9130 0.9130
3148.167904 0.9130 0.9130 0.9130 0.9130 0.9130
3152.846647 0.9130 0.9130 0.9130 0.9130 0.9130
3157.525389 0.9130 0.9130 0.9130 0.9130 0.9130
3162.204132 0.9130 0.9130 0.9130 0.9130 0.9130
3166.882874 0.9130 0.9130 0.9130 0.9130 0.9130
3171.561617 0.9130 0.9130 0.9130 0.9130 0.9130
3176.240359 0.9130 0.9130 0.9130 0.9130 0.9130
3180.919102 0.9130 0.9130 0.9130 0.9130 0.9130
3185.597844 0.9130 0.9130 0.9130 0.9130 0.9130
3190.276586 0.9130 0.9130 0.9130 0.9133 0.9138
3194.955329 0.9137 0.9132 0.9124 0.9114 0.9110
3199.634071 0.9110 0.9110 0.9110 0.9110 0.9110
3204.312814 0.9110 0.9110 0.9110 0.9110 0.9110
3208.991556 0.9110 0.9110 0.9110 0.9110 0.9110
3213.670299 0.9110 0.9110 0.9110 0.9110 0.9110
3218.349041 0.9110 0.9110 0.9110 0.9110 0.9110
3223.027784 0.9110 0.9110 0.9110 0.9110 0.9110
3227.706526 0.9110 0.9110 0.9110 0.9110 0.9110
3232.385268 0.9110 0.9110 0.9110 0.9110 0.9107
3237.064011 0.9102 0.9100 0.9100 0.9100 0.9100
3241.742753 0.9100 0.9100 0.9100 0.9100 0.9100
3246.421496 0.9100 0.9100 0.9100 0.9100 0.9100
3251.100238 0.9100 0.9100 0.9100 0.9100 0.9100
3255.778981 0.9100 0.9100 0.9100 0.9100 0.9100
3260.457723 0.9100 0.9100 0.9100 0.9100 0.9100
3265.136466 0.9100 0.9100 0.9100 0.9100 0.9100
3269.815208 0.9100 0.9100 0.9100 0.9100 0.9100
3274.493950 0.9100 0.9100 0.9100 0.9100 0.9100
3279.172693 0.9100 0.9100 0.9100 0.9100 0.9100
3283.851435 0.9100 0.9102 0.9107 0.9110 0.9110
3288.530178 0.9110 0.9110 0.9110 0.9110 0.9110
3293.208920 0.9110 0.9110 0.9110 0.9110 0.9110
3297.887663 0.9110 0.9110 0.9110 0.9110 0.9110
3302.566405 0.9110 0.9110 0.9110 0.9110 0.9110
3307.245147 0.9110 0.9110 0.9108 0.9103 0.9100
3311.923890 0.9100 0.9100 0.9100 0.9100 0.9100
3316.602632 0.9102 0.9107 0.9114 0.9124 0.9130
3321.281375 0.9130 0.9126 0.9116 0.9110 0.9110
3325.960117 0.9110 0.9110 0.9110 0.9110 0.9113
3330.638860 0.9123 0.9130 0.9130 0.9130 0.9130
3335.317602 0.9130 0.9130 0.9130 0.9130 0.9132
3339.996345 0.9137 0.9140 0.9140 0.9140 0.9140
3344.675087 0.9140 0.9140 0.9140 0.9140 0.9140
3349.353829 0.9140 0.9140 0.9140 0.9140 0.9140
3354.032572 0.9140 0.9140 0.9140 0.9140 0.9143
3358.711314 0.9153 0.9157 0.9147 0.9140 0.9140
3363.390057 0.9140 0.9140 0.9140 0.9140 0.9140
3368.068799 0.9140 0.9143 0.9153 0.9160 0.9160
3372.747542 0.9160 0.9160 0.9160 0.9160 0.9160
3377.426284 0.9160 0.9158 0.9148 0.9139 0.9134
3382.105027 0.9130 0.9130 0.9130 0.9130 0.9130
3386.783769 0.9130 0.9131 0.9136 0.9140 0.9140
3391.462511 0.9139 0.9134 0.9130 0.9130 0.9130
3396.141254 0.9130 0.9130 0.9130 0.9127 0.9112
3400.819996 0.9103 0.9118 0.9130 0.9130 0.9130
3405.498739 0.9130 0.9128 0.9118 0.9110 0.9110
3410.177481 0.9110 0.9110 0.9110 0.9110 0.9110
3414.856224 0.9110 0.9110 0.9110 0.9110 0.9110
3419.534966 0.9112 0.9122 0.9130 0.9130 0.9130
3424.213709 0.9130 0.9130 0.9130 0.9130 0.9130
3428.892451 0.9130 0.9130 0.9130 0.9130 0.9130
3433.571193 0.9130 0.9130 0.9130 0.9130 0.9130
3438.249936 0.9131 0.9136 0.9140 0.9140 0.9139
3442.928678 0.9134 0.9130 0.9130 0.9130 0.9130
3447.607421 0.9131 0.9136 0.9139 0.9134 0.9130
3452.286163 0.9130 0.9130 0.9130 0.9130 0.9130
3456.964906 0.9130 0.9130 0.9130 0.9135 0.9140
3461.643648 0.9140 0.9140 0.9140 0.9140 0.9140
3466.322391 0.9140 0.9140 0.9140 0.9140 0.9140
3471.001133 0.9140 0.9140 0.9140 0.9140 0.9140
3475.679875 0.9140 0.9140 0.9140 0.9140 0.9140
3480.358618 0.9135 0.9130 0.9130 0.9130 0.9135
3485.037360 0.9140 0.9150 0.9160 0.9160 0.9160
3489.716103 0.9165 0.9170 0.9170 0.9170 0.9170
3494.394845 0.9170 0.9180 0.9190 0.9190 0.9190
3499.073588 0.9195 0.9200 0.9205 0.9210 0.9220
3503.752330 0.9230 0.9230 0.9230 0.9230 0.9230
3508.431073 0.9230 0.9230 0.9220 0.9210 0.9210
3513.109815 0.9210 0.9210 0.9210 0.9210 0.9210
3517.788557 0.9210 0.9210 0.9220 0.9230 0.9230
3522.467300 0.9230 0.9230 0.9230 0.9230 0.9230
3527.146042 0.9230 0.9230 0.9230 0.9230 0.9221
3531.824785 0.9211 0.9205 0.9200 0.9195 0.9190
3536.503527 0.9190 0.9190 0.9181 0.9171 0.9170
3541.182270 0.9170 0.9165 0.9160 0.9160 0.9160
3545.861012 0.9151 0.9141 0.9140 0.9140 0.9136
3550.539754 0.9131 0.9130 0.9130 0.9121 0.9111
3555.218497 0.9106 0.9101 0.9100 0.9100 0.9100
3559.897239 0.9100 0.9100 0.9100 0.9091 0.9081
3564.575982 0.9076 0.9071 0.9070 0.9070 0.9057
3569.254724 0.9042 0.9027 0.9012 0.8997 0.8982
3573.933467 0.8976 0.8971 0.8961 0.8951 0.8946
3578.612209 0.8941 0.8936 0.8931 0.8922 0.8912
3583.290952 0.8906 0.8901 0.8892 0.8882 0.8876
3587.969694 0.8871 0.8862 0.8852 0.8846 0.8841
3592.648436 0.8832 0.8822 0.8816 0.8811 0.8806
3597.327179 0.8801 0.8792 0.8782 0.8776 0.8771
3602.005921 0.8762 0.8752 0.8738 0.8723 0.8716
3606.684664 0.8711 0.8702 0.8692 0.8675 0.8655
3611.363406 0.8634 0.8614 0.8602 0.8592 0.8571
3616.042149 0.8546 0.8571 0.8611 0.8647 0.8682
3620.720891 0.8713 0.8743 0.8761 0.8776 0.8787
3625.399634 0.8797 0.8800 0.8800 0.8778 0.8748
3630.078376 0.8692 0.8627 0.8565 0.8505 0.8490
3634.757118 0.8490 0.8512 0.8542 0.8565 0.8585
3639.435861 0.8590 0.8590 0.8565 0.8530 0.8516
3644.114603 0.8511 0.8510 0.8510 0.8514 0.8518
3648.793346 0.8520 0.8520 0.8463 0.8384 0.8304
3653.472088 0.8224 0.8197 0.8192 0.8176 0.8156
3658.150831 0.8105 0.8041 0.8010 0.7995 0.7970
3662.829573 0.7940 0.7900 0.7855 0.7820 0.7790
3667.508316 0.7720 0.7630 0.7590 0.7575 0.7573
3672.187058 0.7578 0.7596 0.7621 0.7623 0.7613
3676.865800 0.7607 0.7602 0.7590 0.7575 0.7560
3681.544543 0.7545 0.7521 0.7491 0.7461 0.7431
3686.223285 0.7389 0.7338 0.7307 0.7287 0.7258
3690.902028 0.7223 0.7185 0.7145 0.7121 0.7106
3695.580770 0.7100 0.7100 0.7106 0.7116 0.7138
3700.259513 0.7168 0.7201 0.7236 0.7271 0.7305
3704.938255 0.7329 0.7344 0.7362 0.7382 0.7399
3709.616998 0.7414 0.7335 0.7191 0.6942 0.6618
3714.295740 0.6480 0.6480 0.6761 0.7254 0.7470
3718.974482 0.7470 0.7292 0.6973 0.6734 0.6559
3723.653225 0.6480 0.6480 0.6631 0.6900 0.7156
3728.331967 0.7400 0.7518 0.7533 0.7529 0.7509
3733.010710 0.7355 0.7086 0.6926 0.6861 0.6822
3737.689452 0.6807 0.6805 0.6815 0.6892 0.7031
3742.368195 0.7249 0.7541 0.7680 0.7680 0.7636
3747.046937 0.7551 0.7403 0.7193 0.7087 0.7082
3751.725680 0.7172 0.7357 0.7546 0.7741 0.7847
3756.404422 0.7862 0.7947 0.8107 0.8223 0.8293
3761.083164 0.8337 0.8352 0.8367 0.8382 0.8287
3765.761907 0.8073 0.7816 0.7512 0.7201 0.6881
3770.440649 0.6565 0.6251 0.5934 0.5615 0.5440
3775.119392 0.5440 0.5518 0.5692 0.5970 0.6378
3779.798134 0.6686 0.6863 0.6980 0.7025 0.7050
3784.476877 0.7050 0.7043 0.7029 0.7020 0.7020
3789.155619 0.7022 0.7027 0.7057 0.7122 0.7174
3793.834362 0.7209 0.7246 0.7286 0.7312 0.7317
##END=
