##TITLE=3-BUTEN-2-ONE
##JCAMP-DX=4.24
##DATA TYPE=INFRARED SPECTRUM
##CLASS=COBLENTZ
##ORIGIN=DOW CHEMICAL COMPANY
##OWNER=COBLENTZ SOCIETY
Collection (C) 2018 copyright by the U.S. Secretary of Commerce
on behalf of the United States of America. All rights reserved.
##DATE=1964
##NAMES=METHYL VINYL KETONE
##CAS REGISTRY NO=78-94-4
##MOLFORM=C4 H6 O
##SOURCE REFERENCE=COBLENTZ NO. 8782
##$NIST SOURCE=COBLENTZ
##$NIST IMAGE=cob-r8782
##SPECTROMETER/DATA SYSTEM=DOW KBr FOREPRISM-GRATING
##INSTRUMENT PARAMETERS=GRATING CHANGED AT 5.0, 7.5, 15.0 MICRON
##STATE=GAS (50 mmHg, N2 ADDED, TOTAL PRESSURE 600 mmHg)
##PATH LENGTH=5 CM
##SAMPLING PROCEDURE=TRANSMISSION
##RESOLUTION=2
##DATA PROCESSING=DIGITIZED BY NIST FROM HARD COPY (FROM TWO SEGMENTS)
##XUNITS=1/CM
##YUNITS=TRANSMITTANCE
##XFACTOR=1.000000
##YFACTOR=1
##DELTAX=0.939706
##FIRSTX=469.225
##LASTX=3816.46
##FIRSTY=0.855
##MAXX=3816.46
##MINX=469.225
##MAXY=0.994
##MINY=0.00700876
##NPOINTS=3563
##XYDATA=(X++(Y..Y))
469.225000 0.8550 0.8510 0.8400 0.8350 0.8330
473.923528 0.8260 0.8210 0.8180 0.8160 0.8140
478.622057 0.8140 0.8110 0.8100 0.8070 0.8050
483.320585 0.8040 0.8010 0.8000 0.7980 0.7950
488.019113 0.7890 0.7830 0.7780 0.7720 0.7660
492.717641 0.7640 0.7640 0.7640 0.7660 0.7670
497.416170 0.7690 0.7700 0.7750 0.7780 0.7790
502.114698 0.7810 0.7820 0.7820 0.7830 0.7850
506.813226 0.7850 0.7860 0.7860 0.7860 0.7880
511.511755 0.7890 0.7910 0.7910 0.7920 0.7920
516.210283 0.7940 0.7950 0.7950 0.7970 0.8020
520.908811 0.8080 0.8230 0.8270 0.8290 0.8320
525.607339 0.8320 0.8300 0.8300 0.8290 0.8270
530.305868 0.8290 0.8330 0.8370 0.8489 0.8560
535.004396 0.8700 0.8710 0.8720 0.8720 0.8710
539.702924 0.8680 0.8670 0.8670 0.8700 0.8710
544.401453 0.8720 0.8740 0.8770 0.8800 0.8810
549.099981 0.8840 0.8900 0.8960 0.9020 0.9050
553.798509 0.9080 0.9080 0.9090 0.9090 0.9090
558.497038 0.9090 0.9080 0.9080 0.9080 0.9060
563.195566 0.9060 0.9080 0.9090 0.9090 0.9100
567.894094 0.9100 0.9120 0.9120 0.9130 0.9130
572.592622 0.9130 0.9130 0.9130 0.9130 0.9120
577.291151 0.9120 0.9100 0.9100 0.9090 0.9080
581.989679 0.9060 0.9050 0.8990 0.8930 0.8900
586.688207 0.8840 0.8800 0.8750 0.8710 0.8640
591.386736 0.8560 0.8550 0.8540 0.8540 0.8540
596.085264 0.8550 0.8550 0.8550 0.8550 0.8520
600.783792 0.8180 0.8520 0.8480 0.8450 0.8420
605.482320 0.8390 0.8360 0.8350 0.8350 0.8350
610.180849 0.8360 0.8370 0.8390 0.8450 0.8490
614.879377 0.8520 0.8560 0.8620 0.8710 0.8720
619.577905 0.8750 0.8810 0.8930 0.8960 0.9120
624.276434 0.9130 0.9210 0.9240 0.9290 0.9310
628.974962 0.9340 0.9380 0.9440 0.9470 0.9480
633.673490 0.9480 0.9500 0.9500 0.9500 0.9500
638.372018 0.9480 0.9470 0.9450 0.9440 0.9380
643.070547 0.9350 0.9350 0.9340 0.9320 0.9310
647.769075 0.9290 0.9290 0.9270 0.9240 0.9210
652.467603 0.9150 0.9130 0.9100 0.9080 0.9030
657.166132 0.8970 0.8930 0.8870 0.8810 0.8710
661.864660 0.8700 0.8680 0.8700 0.8710 0.8720
666.563188 0.8750 0.8780 0.8780 0.8770 0.8750
671.261716 0.8750 0.8740 0.8720 0.8740 0.8750
675.960245 0.8770 0.8770 0.8780 0.8800 0.8800
680.658773 0.8800 0.8800 0.8800 0.8800 0.8780
685.357301 0.8780 0.8780 0.8770 0.8740 0.8620
690.055830 0.8370 0.8300 0.8230 0.8200 0.8200
694.754358 0.8300 0.8390 0.8480 0.8540 0.8650
699.452886 0.8650 0.8750 0.8860 0.8910 0.8940
704.151414 0.8960 0.8970 0.9000 0.9020 0.9050
708.849943 0.9100 0.9120 0.9180 0.9190 0.9210
713.548471 0.9220 0.9290 0.9320 0.9350 0.9410
718.246999 0.9440 0.9470 0.9500 0.9510 0.9540
722.945528 0.9570 0.9600 0.9620 0.9620 0.9640
727.644056 0.9640 0.9630 0.9630 0.9620 0.9590
732.342584 0.9570 0.9560 0.9540 0.9530 0.9510
737.041113 0.9500 0.9450 0.9430 0.9400 0.9370
741.739641 0.9340 0.9290 0.9270 0.9250 0.9240
746.438169 0.9220 0.9210 0.9190 0.9180 0.9160
751.136697 0.9150 0.9130 0.9100 0.9100 0.9090
755.835226 0.9060 0.9050 0.9050 0.9030 0.9030
760.533754 0.9020 0.9000 0.8990 0.8970 0.8960
765.232282 0.8940 0.8990 0.9100 0.9120 0.9160
769.930811 0.9190 0.9210 0.9220 0.9250 0.9290
774.629339 0.9310 0.9320 0.9340 0.9370 0.9370
779.327867 0.9380 0.9400 0.9400 0.9410 0.9440
784.026395 0.9440 0.9450 0.9480 0.9530 0.9540
788.724924 0.9560 0.9600 0.9620 0.9690 0.9700
793.423452 0.9720 0.9730 0.9750 0.9760 0.9760
798.121980 0.9760 0.9760 0.9780 0.9780 0.9780
802.820509 0.9780 0.9780 0.9780 0.9780 0.9780
807.519037 0.9780 0.9780 0.9780 0.9780 0.9780
812.217565 0.9780 0.9780 0.9780 0.9780 0.9780
816.916093 0.9780 0.9780 0.9760 0.9760 0.9760
821.614622 0.9760 0.9760 0.9760 0.9760 0.9760
826.313150 0.9760 0.9760 0.9760 0.9750 0.9750
831.011678 0.9730 0.9730 0.9720 0.9720 0.9720
835.710207 0.9700 0.9700 0.9690 0.9690 0.9690
840.408735 0.9690 0.9690 0.9690 0.9690 0.9690
845.107263 0.9690 0.9690 0.9690 0.9670 0.9670
849.805791 0.9660 0.9660 0.9640 0.9640 0.9640
854.504320 0.9630 0.9630 0.9620 0.9630 0.9620
859.202848 0.9600 0.9600 0.9600 0.9620 0.9620
863.901376 0.9620 0.9630 0.9630 0.9630 0.9620
868.599905 0.9620 0.9600 0.9590 0.9560 0.9540
873.298433 0.9540 0.9540 0.9500 0.9470 0.9450
877.996961 0.9440 0.9440 0.9410 0.9410 0.9400
882.695490 0.9380 0.9370 0.9350 0.9350 0.9340
887.394018 0.9340 0.9340 0.9340 0.9340 0.9340
892.092546 0.9340 0.9320 0.9320 0.9320 0.9320
896.791074 0.9320 0.9320 0.9320 0.9320 0.9320
901.489603 0.9320 0.9320 0.9320 0.9310 0.9310
906.188131 0.9310 0.9310 0.9290 0.9290 0.9290
910.886659 0.9280 0.9280 0.9250 0.9190 0.9120
915.585188 0.9090 0.9060 0.8990 0.8930 0.8870
920.283716 0.8810 0.8640 0.8420 0.8200 0.8080
924.982244 0.7950 0.7730 0.7351 0.6971 0.6552
929.680772 0.6130 0.5890 0.5660 0.5560 0.5440
934.379301 0.5210 0.4990 0.4751 0.4650 0.4540
939.077829 0.4299 0.3820 0.3750 0.3670 0.3480
943.776357 0.3310 0.3130 0.2871 0.2611 0.2241
948.474886 0.1890 0.1720 0.1540 0.1150 0.1000
953.173414 0.0840 0.1429 0.3146 0.3270 0.3270
957.871942 0.3280 0.3290 0.3290 0.3310 0.3340
962.570470 0.3370 0.3380 0.3400 0.3400 0.3410
967.268999 0.3410 0.3410 0.3410 0.3410 0.3720
971.967527 0.4319 0.4590 0.4700 0.4750 0.4810
976.666055 0.4860 0.4890 0.4960 0.4970 0.4970
981.364584 0.4860 0.4710 0.4650 0.4580 0.4261
986.063112 0.3779 0.3540 0.3292 0.5000 0.5080
990.761640 0.5120 0.5130 0.5150 0.5160 0.5150
995.460168 0.5100 0.5019 0.4650 0.4480 0.4290
1000.158697 0.3920 0.3750 0.3570 0.4777 0.5528
1004.857225 0.5620 0.5820 0.6010 0.6040 0.6100
1009.555753 0.6110 0.6260 0.6480 0.6620 0.6620
1014.254282 0.6740 0.6780 0.6900 0.6970 0.7060
1018.952810 0.7060 0.7080 0.7080 0.7080 0.7080
1023.651338 0.7080 0.7120 0.7210 0.7600 0.7790
1028.349866 0.7890 0.7940 0.8000 0.8080 0.8110
1033.048395 0.8130 0.8140 0.8140 0.8140 0.8130
1037.746923 0.8110 0.8100 0.8080 0.8070 0.8050
1042.445451 0.8050 0.8040 0.8020 0.8020 0.8020
1047.143980 0.8020 0.8010 0.7980 0.7970 0.7950
1051.842508 0.7940 0.7920 0.7920 0.7920 0.7950
1056.541036 0.7950 0.7970 0.7980 0.8000 0.8010
1061.239565 0.8040 0.8050 0.8070 0.8100 0.8110
1065.938093 0.8300 0.8370 0.8450 0.8480 0.8490
1070.636621 0.8510 0.8540 0.8580 0.8590 0.8610
1075.335149 0.8680 0.8710 0.8740 0.8840 0.8900
1080.033678 0.9100 0.9130 0.9190 0.9310 0.9320
1084.732206 0.9350 0.9350 0.9350 0.9350 0.9340
1089.430734 0.9340 0.9310 0.9280 0.9280 0.9270
1094.129263 0.9250 0.9250 0.9250 0.9250 0.9250
1098.827791 0.9240 0.9240 0.9190 0.9180 0.9160
1103.526319 0.9160 0.9150 0.9150 0.9130 0.9120
1108.224847 0.9120 0.9120 0.9100 0.9100 0.9100
1112.923376 0.9100 0.9100 0.9100 0.9100 0.9120
1117.621904 0.9120 0.9150 0.9180 0.9210 0.9220
1122.320432 0.9240 0.9250 0.9270 0.9280 0.9310
1127.018961 0.9310 0.9320 0.9320 0.9320 0.9320
1131.717489 0.9310 0.9310 0.9310 0.9310 0.9290
1136.416017 0.9270 0.9250 0.9240 0.9220 0.9210
1141.114545 0.9180 0.9160 0.9160 0.9130 0.9130
1145.813074 0.9120 0.9120 0.9100 0.9090 0.9060
1150.511602 0.9020 0.8910 0.8800 0.8611 0.8510
1155.210130 0.8330 0.8140 0.7910 0.7720 0.7540
1159.908659 0.6970 0.6391 0.5811 0.5531 0.5251
1164.607187 0.4938 0.4459 0.3970 0.3790 0.3620
1169.305715 0.3410 0.3290 0.3250 0.3220 0.3130
1174.004243 0.2970 0.2940 0.2810 0.2750 0.2700
1178.702772 0.2560 0.2830 0.2960 0.3030 0.2970
1183.401300 0.2870 0.2830 0.2780 0.2680 0.2580
1188.099828 0.2490 0.2550 0.2810 0.2910 0.3079
1192.798357 0.3850 0.3940 0.4070 0.4290 0.4770
1197.496885 0.4870 0.4960 0.5160 0.5310 0.5639
1202.195413 0.5891 0.6140 0.6320 0.6460 0.6550
1206.893942 0.6590 0.6620 0.6640 0.6670 0.6680
1211.592470 0.6680 0.6650 0.6620 0.6430 0.6270
1216.290998 0.6100 0.5970 0.5850 0.5730 0.5790
1220.989526 0.5861 0.6050 0.6010 0.5910 0.5500
1225.688055 0.5310 0.5120 0.4810 0.4511 0.4241
1230.386583 0.3720 0.3590 0.3450 0.3350 0.3150
1235.085111 0.3030 0.2860 0.2830 0.2800 0.2750
1239.783640 0.2720 0.2700 0.2670 0.2650 0.2620
1244.482168 0.2590 0.2580 0.2560 0.2560 0.2550
1249.180696 0.2480 0.2540 0.2550 0.2550 0.2550
1253.879224 0.2560 0.2580 0.2640 0.2680 0.2840
1258.577753 0.2960 0.3030 0.3210 0.3370 0.3780
1263.276281 0.3820 0.4050 0.4589 0.4830 0.5029
1267.974809 0.5180 0.5310 0.5401 0.5780 0.5910
1272.673338 0.6180 0.6290 0.6430 0.6580 0.6710
1277.371866 0.6841 0.7210 0.7340 0.7380 0.7570
1282.070394 0.7630 0.7730 0.7760 0.7790 0.7860
1286.768922 0.7890 0.7940 0.7950 0.8000 0.8020
1291.467451 0.8050 0.8080 0.8200 0.8230 0.8300
1296.165979 0.8320 0.8420 0.8490 0.8510 0.8550
1300.864507 0.8590 0.8640 0.8670 0.8700 0.8700
1305.563036 0.8710 0.8710 0.8800 0.8830 0.8870
1310.261564 0.8900 0.8910 0.8930 0.8940 0.8940
1314.960092 0.8940 0.8960 0.8970 0.8970 0.8960
1319.658620 0.8940 0.8930 0.8900 0.8900 0.8870
1324.357149 0.8810 0.8740 0.8710 0.8700 0.8590
1329.055677 0.8520 0.8430 0.8320 0.8230 0.8140
1333.754205 0.8040 0.7950 0.7780 0.7620 0.7450
1338.452734 0.7400 0.7310 0.7120 0.6910 0.6551
1343.151262 0.6429 0.6270 0.6099 0.5809 0.5440
1347.849790 0.5080 0.4750 0.4430 0.4320 0.4160
1352.548318 0.3889 0.3629 0.3289 0.3000 0.2780
1357.246847 0.2560 0.2480 0.2400 0.2330 0.2260
1361.945375 0.2240 0.2210 0.2200 0.2200 0.2180
1366.643903 0.2170 0.2130 0.2040 0.1910 0.1760
1371.342432 0.1730 0.1760 0.1890 0.1950 0.2020
1376.040960 0.2050 0.2110 0.2160 0.2230 0.2320
1380.739488 0.2490 0.2510 0.2540 0.2560 0.2540
1385.438017 0.2510 0.2510 0.2490 0.2480 0.2480
1390.136545 0.2460 0.2450 0.2460 0.2490 0.2520
1394.835073 0.2550 0.2580 0.2680 0.2860 0.2780
1399.533601 0.2808 0.2208 0.1623 0.2740 0.2610
1404.232130 0.2540 0.2460 0.2390 0.2320 0.2240
1408.930658 0.2170 0.2100 0.2070 0.2080 0.2180
1413.629186 0.2290 0.2400 0.2540 0.2650 0.2830
1418.327715 0.3000 0.3051 0.3280 0.3350 0.3370
1423.026243 0.3410 0.3500 0.3540 0.3700 0.3820
1427.724771 0.3820 0.3880 0.4000 0.4100 0.4200
1432.423299 0.4260 0.4350 0.4490 0.4510 0.4520
1437.121828 0.4540 0.4550 0.4550 0.4640 0.4680
1441.820356 0.4780 0.4870 0.5030 0.5160 0.5280
1446.518884 0.5371 0.5620 0.5750 0.5850 0.5970
1451.217413 0.6130 0.6420 0.6550 0.6680 0.6800
1455.915941 0.6900 0.6940 0.7060 0.7100 0.7210
1460.614469 0.7290 0.7400 0.7450 0.7560 0.7590
1465.312997 0.7631 0.7750 0.7760 0.7810 0.7920
1470.011526 0.7940 0.8020 0.8100 0.8130 0.8210
1474.710054 0.8240 0.8300 0.8350 0.8370 0.8420
1479.408582 0.8430 0.8480 0.8490 0.8520 0.8540
1484.107111 0.8580 0.8670 0.8680 0.8700 0.8700
1488.805639 0.8700 0.8700 0.8710 0.8720 0.8750
1493.504167 0.8770 0.8780 0.8780 0.8800 0.8810
1498.202695 0.8810 0.8810 0.8810 0.8810 0.8800
1502.901224 0.8770 0.8770 0.8770 0.8770 0.8770
1507.599752 0.8770 0.8770 0.8750 0.8740 0.8740
1512.298280 0.8740 0.8740 0.8740 0.8710 0.8720
1516.996809 0.8710 0.8710 0.8710 0.8710 0.8700
1521.695337 0.8700 0.8700 0.8700 0.8680 0.8680
1526.393865 0.8680 0.8670 0.8680 0.8680 0.8680
1531.092394 0.8680 0.8680 0.8680 0.8680 0.8680
1535.790922 0.8680 0.8680 0.8700 0.8700 0.8700
1540.489450 0.8700 0.8710 0.8710 0.8710 0.8710
1545.187978 0.8710 0.8720 0.8720 0.8720 0.8720
1549.886507 0.8720 0.8750 0.8750 0.8770 0.8780
1554.585035 0.8810 0.8830 0.8860 0.8870 0.8890
1559.283563 0.8900 0.8910 0.8910 0.8930 0.8930
1563.982092 0.8940 0.8940 0.8960 0.8960 0.8970
1568.680620 0.8970 0.8970 0.8970 0.8970 0.8970
1573.379148 0.8960 0.8960 0.8960 0.8970 0.8990
1578.077676 0.8990 0.9000 0.8990 0.8990 0.8960
1582.776205 0.8940 0.8930 0.8930 0.8910 0.8900
1587.474733 0.8900 0.8890 0.8890 0.8870 0.8860
1592.173261 0.8780 0.8740 0.8680 0.8670 0.8590
1596.871790 0.8520 0.8400 0.8300 0.8230 0.8160
1601.570318 0.8020 0.7880 0.7540 0.7500 0.7440
1606.268846 0.7239 0.7030 0.6909 0.6639 0.6350
1610.967374 0.6160 0.5890 0.5750 0.5640 0.5620
1615.665903 0.5600 0.5590 0.5540 0.5510 0.5480
1620.364431 0.5370 0.5340 0.5370 0.5590 0.5590
1625.062959 0.5530 0.5449 0.5249 0.5080 0.4970
1629.761488 0.4940 0.4910 0.4960 0.5030 0.5100
1634.460016 0.5190 0.5271 0.5541 0.5791 0.6010
1639.158544 0.6070 0.6140 0.6650 0.6740 0.7150
1643.857072 0.7310 0.7381 0.7590 0.7690 0.7750
1648.555601 0.7780 0.7830 0.7940 0.7980 0.8010
1653.254129 0.8050 0.8110 0.8230 0.8230 0.8260
1657.952657 0.8260 0.8260 0.8260 0.8260 0.8240
1662.651186 0.8230 0.8200 0.8170 0.8130 0.8080
1667.349714 0.7950 0.7890 0.7570 0.7410 0.7320
1672.048242 0.7219 0.7029 0.6829 0.6639 0.6449
1676.746770 0.6130 0.5810 0.5570 0.5320 0.5280
1681.445299 0.4697 0.4098 0.3558 0.2999 0.2749
1686.143827 0.2509 0.2040 0.1570 0.1130 0.1030
1690.842355 0.0829 0.0609 0.0480 0.0460 0.0400
1695.540884 0.0370 0.0370 0.0370 0.0370 0.0360
1700.239412 0.0320 0.0260 0.0230 0.0230 0.0230
1704.937940 0.0230 0.0210 0.0210 0.0200 0.0170
1709.636469 0.0110 0.0100 0.0080 0.0070 0.0100
1714.334997 0.0110 0.0170 0.0210 0.0260 0.0270
1719.033525 0.0320 0.0400 0.0491 0.0640 0.0700
1723.732053 0.0830 0.0890 0.0930 0.0930 0.0910
1728.430582 0.0890 0.0860 0.0830 0.0810 0.0860
1733.129110 0.0900 0.1000 0.1030 0.1120 0.1240
1737.827638 0.1371 0.1481 0.1661 0.2041 0.2241
1742.526167 0.2451 0.2800 0.2910 0.3000 0.3290
1747.224695 0.3452 0.3791 0.3950 0.4071 0.4291
1751.923223 0.4650 0.4870 0.5160 0.5240 0.5660
1756.621751 0.5861 0.6001 0.6140 0.6261 0.6481
1761.320280 0.6700 0.6720 0.6890 0.7050 0.7150
1766.018808 0.7411 0.7530 0.7620 0.7700 0.7780
1770.717336 0.7850 0.7920 0.8050 0.8140 0.8200
1775.415865 0.8320 0.8350 0.8370 0.8420 0.8450
1780.114393 0.8510 0.8540 0.8550 0.8580 0.8620
1784.812921 0.8640 0.8700 0.8700 0.8710 0.8740
1789.511449 0.8750 0.8780 0.8810 0.8870 0.8890
1794.209978 0.8910 0.8910 0.8930 0.8940 0.8970
1798.908506 0.8990 0.9000 0.9020 0.9020 0.9060
1803.607034 0.9090 0.9100 0.9100 0.9100 0.9120
1808.305563 0.9130 0.9150 0.9160 0.9190 0.9190
1813.004091 0.9210 0.9220 0.9240 0.9250 0.9270
1817.702619 0.9280 0.9280 0.9290 0.9290 0.9310
1822.401147 0.9320 0.9320 0.9340 0.9350 0.9350
1827.099676 0.9370 0.9380 0.9380 0.9380 0.9380
1831.798204 0.9380 0.9400 0.9400 0.9410 0.9410
1836.496732 0.9410 0.9430 0.9430 0.9440 0.9450
1841.195261 0.9450 0.9450 0.9450 0.9470 0.9470
1845.893789 0.9470 0.9480 0.9480 0.9480 0.9480
1850.592317 0.9480 0.9480 0.9480 0.9480 0.9480
1855.290846 0.9470 0.9470 0.9470 0.9470 0.9470
1859.989374 0.9470 0.9470 0.9450 0.9450 0.9440
1864.687902 0.9440 0.9440 0.9440 0.9440 0.9430
1869.386430 0.9430 0.9410 0.9400 0.9370 0.9340
1874.084959 0.9340 0.9340 0.9320 0.9310 0.9310
1878.783487 0.9290 0.9280 0.9270 0.9190 0.9150
1883.482015 0.9120 0.9100 0.9100 0.9090 0.9020
1888.180544 0.8960 0.8930 0.8900 0.8840 0.8800
1892.879072 0.8770 0.8750 0.8740 0.8710 0.8700
1897.577600 0.8710 0.8720 0.8740 0.8740 0.8770
1902.276128 0.8720 0.8670 0.8640 0.8620 0.8610
1906.974657 0.8620 0.8640 0.8650 0.8670 0.8670
1911.673185 0.8700 0.8700 0.8710 0.8740 0.8770
1916.371713 0.8771 0.8860 0.8900 0.8900 0.8930
1921.070242 0.8940 0.8960 0.8990 0.9000 0.9000
1925.768770 0.9000 0.9020 0.9030 0.9030 0.9050
1930.467298 0.9050 0.9050 0.9050 0.9020 0.9020
1935.165826 0.9000 0.8990 0.8990 0.8990 0.9000
1939.864355 0.9000 0.9000 0.9000 0.9020 0.9020
1944.562883 0.9020 0.9030 0.9030 0.9060 0.9080
1949.261411 0.9100 0.9100 0.9120 0.9130 0.9130
1953.959940 0.9150 0.9160 0.9160 0.9180 0.9190
1958.658468 0.9210 0.9220 0.9240 0.9280 0.9310
1963.356996 0.9320 0.9320 0.9350 0.9380 0.9400
1968.055524 0.9410 0.9430 0.9430 0.9430 0.9440
1972.754053 0.9440 0.9440 0.9440 0.9440 0.9430
1977.452581 0.9430 0.9410 0.9410 0.9410 0.9400
1982.151109 0.9400 0.9380 0.9400 0.9400 0.9400
1986.849638 0.9410 0.9410 0.9440 0.9440 0.9440
1991.548166 0.9440 0.9440 0.9440 0.9440 0.9440
1996.246694 0.9430 0.9440 0.9440 0.9440 0.9450
2000.945223 0.9450 0.9450 0.9450 0.9450 0.9460
2005.643751 0.9470 0.9470 0.9470 0.9470 0.9470
2010.342279 0.9475 0.9480 0.9490 0.9500 0.9500
2015.040807 0.9500 0.9500 0.9500 0.9505 0.9510
2019.739336 0.9510 0.9510 0.9520 0.9530 0.9530
2024.437864 0.9530 0.9535 0.9540 0.9550 0.9560
2029.136392 0.9560 0.9560 0.9560 0.9560 0.9560
2033.834921 0.9560 0.9560 0.9560 0.9560 0.9560
2038.533449 0.9560 0.9560 0.9560 0.9560 0.9560
2043.231977 0.9560 0.9565 0.9570 0.9570 0.9570
2047.930505 0.9570 0.9570 0.9570 0.9570 0.9570
2052.629034 0.9570 0.9570 0.9570 0.9580 0.9590
2057.327562 0.9590 0.9590 0.9590 0.9590 0.9590
2062.026090 0.9590 0.9590 0.9590 0.9590 0.9590
2066.724619 0.9590 0.9590 0.9590 0.9590 0.9590
2071.423147 0.9590 0.9595 0.9600 0.9600 0.9600
2076.121675 0.9600 0.9600 0.9600 0.9600 0.9600
2080.820203 0.9600 0.9600 0.9600 0.9600 0.9600
2085.518732 0.9600 0.9600 0.9595 0.9590 0.9590
2090.217260 0.9590 0.9590 0.9590 0.9580 0.9570
2094.915788 0.9570 0.9570 0.9570 0.9570 0.9565
2099.614317 0.9560 0.9560 0.9560 0.9560 0.9560
2104.312845 0.9550 0.9540 0.9540 0.9540 0.9535
2109.011373 0.9530 0.9515 0.9500 0.9490 0.9480
2113.709901 0.9465 0.9450 0.9445 0.9440 0.9440
2118.408430 0.9440 0.9440 0.9440 0.9440 0.9440
2123.106958 0.9435 0.9430 0.9430 0.9430 0.9430
2127.805486 0.9430 0.9430 0.9430 0.9430 0.9430
2132.504015 0.9430 0.9430 0.9435 0.9440 0.9445
2137.202543 0.9450 0.9460 0.9470 0.9470 0.9470
2141.901071 0.9475 0.9480 0.9480 0.9480 0.9495
2146.599599 0.9510 0.9510 0.9510 0.9510 0.9510
2151.298128 0.9510 0.9510 0.9510 0.9510 0.9510
2155.996656 0.9510 0.9510 0.9510 0.9510 0.9510
2160.695184 0.9510 0.9510 0.9510 0.9510 0.9510
2165.393713 0.9510 0.9510 0.9510 0.9510 0.9510
2170.092241 0.9510 0.9510 0.9510 0.9510 0.9505
2174.790769 0.9500 0.9500 0.9500 0.9490 0.9480
2179.489298 0.9475 0.9470 0.9470 0.9470 0.9470
2184.187826 0.9470 0.9460 0.9450 0.9450 0.9450
2188.886354 0.9450 0.9450 0.9450 0.9450 0.9460
2193.584882 0.9470 0.9470 0.9470 0.9470 0.9470
2198.283411 0.9485 0.9500 0.9515 0.9530 0.9535
2202.981939 0.9540 0.9555 0.9570 0.9585 0.9600
2207.680467 0.9610 0.9620 0.9620 0.9620 0.9625
2212.378996 0.9630 0.9630 0.9630 0.9630 0.9630
2217.077524 0.9635 0.9640 0.9640 0.9640 0.9640
2221.776052 0.9640 0.9640 0.9640 0.9640 0.9640
2226.474580 0.9640 0.9640 0.9640 0.9640 0.9640
2231.173109 0.9640 0.9640 0.9640 0.9640 0.9640
2235.871637 0.9640 0.9640 0.9635 0.9630 0.9630
2240.570165 0.9630 0.9630 0.9630 0.9630 0.9630
2245.268694 0.9630 0.9630 0.9630 0.9630 0.9630
2249.967222 0.9630 0.9630 0.9630 0.9630 0.9630
2254.665750 0.9630 0.9630 0.9630 0.9630 0.9630
2259.364278 0.9630 0.9630 0.9630 0.9630 0.9630
2264.062807 0.9630 0.9630 0.9630 0.9630 0.9630
2268.761335 0.9630 0.9630 0.9630 0.9625 0.9620
2273.459863 0.9620 0.9620 0.9620 0.9620 0.9610
2278.158392 0.9600 0.9600 0.9600 0.9595 0.9590
2282.856920 0.9590 0.9590 0.9580 0.9570 0.9570
2287.555448 0.9570 0.9570 0.9570 0.9570 0.9570
2292.253976 0.9570 0.9570 0.9570 0.9570 0.9570
2296.952505 0.9570 0.9570 0.9570 0.9565 0.9560
2301.651033 0.9560 0.9560 0.9560 0.9560 0.9560
2306.349561 0.9560 0.9560 0.9560 0.9560 0.9560
2311.048090 0.9560 0.9560 0.9560 0.9560 0.9560
2315.746618 0.9560 0.9560 0.9560 0.9565 0.9570
2320.445146 0.9570 0.9570 0.9570 0.9570 0.9570
2325.143675 0.9570 0.9570 0.9570 0.9570 0.9570
2329.842203 0.9570 0.9570 0.9570 0.9570 0.9580
2334.540731 0.9590 0.9595 0.9600 0.9600 0.9600
2339.239259 0.9610 0.9620 0.9620 0.9620 0.9625
2343.937788 0.9630 0.9630 0.9630 0.9635 0.9640
2348.636316 0.9640 0.9640 0.9640 0.9640 0.9640
2353.334844 0.9640 0.9640 0.9640 0.9635 0.9630
2358.033373 0.9630 0.9630 0.9630 0.9629 0.9614
2362.731901 0.9600 0.9595 0.9590 0.9590 0.9590
2367.430429 0.9580 0.9570 0.9570 0.9570 0.9570
2372.128957 0.9570 0.9570 0.9570 0.9570 0.9570
2376.827486 0.9570 0.9570 0.9580 0.9590 0.9590
2381.526014 0.9590 0.9590 0.9590 0.9590 0.9590
2386.224542 0.9590 0.9590 0.9590 0.9590 0.9590
2390.923071 0.9590 0.9590 0.9590 0.9595 0.9600
2395.621599 0.9600 0.9600 0.9600 0.9600 0.9600
2400.320127 0.9600 0.9610 0.9620 0.9620 0.9620
2405.018655 0.9620 0.9620 0.9620 0.9620 0.9625
2409.717184 0.9630 0.9630 0.9630 0.9630 0.9630
2414.415712 0.9630 0.9630 0.9630 0.9630 0.9630
2419.114240 0.9630 0.9635 0.9640 0.9640 0.9640
2423.812769 0.9640 0.9640 0.9640 0.9640 0.9640
2428.511297 0.9640 0.9640 0.9640 0.9640 0.9640
2433.209825 0.9640 0.9640 0.9640 0.9641 0.9651
2437.908353 0.9660 0.9660 0.9660 0.9660 0.9660
2442.606882 0.9660 0.9660 0.9650 0.9640 0.9640
2447.305410 0.9640 0.9640 0.9640 0.9640 0.9640
2452.003938 0.9635 0.9630 0.9630 0.9630 0.9630
2456.702467 0.9630 0.9630 0.9630 0.9630 0.9630
2461.400995 0.9630 0.9630 0.9625 0.9620 0.9625
2466.099523 0.9630 0.9630 0.9630 0.9630 0.9630
2470.798051 0.9630 0.9630 0.9630 0.9630 0.9630
2475.496580 0.9630 0.9630 0.9630 0.9630 0.9630
2480.195108 0.9630 0.9630 0.9630 0.9630 0.9630
2484.893636 0.9630 0.9630 0.9630 0.9630 0.9630
2489.592165 0.9630 0.9630 0.9630 0.9630 0.9635
2494.290693 0.9640 0.9640 0.9640 0.9640 0.9640
2498.989221 0.9640 0.9640 0.9640 0.9640 0.9635
2503.687750 0.9630 0.9630 0.9630 0.9630 0.9630
2508.386278 0.9630 0.9630 0.9630 0.9630 0.9625
2513.084806 0.9620 0.9620 0.9620 0.9620 0.9620
2517.783334 0.9620 0.9619 0.9609 0.9600 0.9595
2522.481863 0.9590 0.9590 0.9590 0.9590 0.9590
2527.180391 0.9590 0.9589 0.9579 0.9570 0.9570
2531.878919 0.9570 0.9570 0.9571 0.9581 0.9590
2536.577448 0.9590 0.9590 0.9595 0.9600 0.9600
2541.275976 0.9601 0.9611 0.9620 0.9620 0.9620
2545.974504 0.9620 0.9620 0.9620 0.9620 0.9625
2550.673032 0.9630 0.9630 0.9630 0.9630 0.9630
2555.371561 0.9630 0.9630 0.9630 0.9630 0.9630
2560.070089 0.9630 0.9630 0.9630 0.9630 0.9630
2564.768617 0.9630 0.9630 0.9630 0.9630 0.9630
2569.467146 0.9630 0.9630 0.9630 0.9630 0.9630
2574.165674 0.9630 0.9630 0.9630 0.9630 0.9625
2578.864202 0.9620 0.9620 0.9620 0.9620 0.9620
2583.562730 0.9620 0.9620 0.9620 0.9620 0.9620
2588.261259 0.9620 0.9620 0.9620 0.9620 0.9620
2592.959787 0.9620 0.9620 0.9620 0.9620 0.9625
2597.658315 0.9630 0.9630 0.9630 0.9630 0.9630
2602.356844 0.9630 0.9630 0.9630 0.9630 0.9630
2607.055372 0.9630 0.9630 0.9630 0.9630 0.9630
2611.753900 0.9630 0.9630 0.9630 0.9630 0.9630
2616.452428 0.9630 0.9630 0.9630 0.9630 0.9630
2621.150957 0.9630 0.9630 0.9630 0.9630 0.9635
2625.849485 0.9640 0.9640 0.9640 0.9640 0.9640
2630.548013 0.9640 0.9640 0.9640 0.9640 0.9640
2635.246542 0.9640 0.9635 0.9630 0.9630 0.9630
2639.945070 0.9625 0.9620 0.9620 0.9619 0.9609
2644.643598 0.9600 0.9600 0.9600 0.9600 0.9600
2649.342127 0.9600 0.9600 0.9600 0.9600 0.9600
2654.040655 0.9600 0.9595 0.9590 0.9590 0.9590
2658.739183 0.9590 0.9589 0.9579 0.9570 0.9570
2663.437711 0.9570 0.9570 0.9570 0.9570 0.9570
2668.136240 0.9570 0.9570 0.9570 0.9570 0.9565
2672.834768 0.9560 0.9560 0.9560 0.9560 0.9560
2677.533296 0.9560 0.9560 0.9560 0.9560 0.9560
2682.231825 0.9560 0.9560 0.9560 0.9560 0.9560
2686.930353 0.9560 0.9560 0.9560 0.9559 0.9549
2691.628881 0.9540 0.9540 0.9540 0.9540 0.9540
2696.327409 0.9540 0.9541 0.9551 0.9560 0.9560
2701.025938 0.9560 0.9560 0.9560 0.9560 0.9560
2705.724466 0.9560 0.9560 0.9565 0.9570 0.9570
2710.422994 0.9570 0.9570 0.9570 0.9570 0.9571
2715.121523 0.9581 0.9590 0.9590 0.9590 0.9590
2719.820051 0.9590 0.9590 0.9590 0.9595 0.9600
2724.518579 0.9600 0.9600 0.9600 0.9601 0.9616
2729.217107 0.9630 0.9630 0.9630 0.9630 0.9630
2733.915636 0.9630 0.9630 0.9625 0.9619 0.9609
2738.614164 0.9600 0.9600 0.9600 0.9600 0.9600
2743.312692 0.9600 0.9600 0.9600 0.9600 0.9595
2748.011221 0.9590 0.9590 0.9590 0.9590 0.9590
2752.709749 0.9590 0.9590 0.9590 0.9590 0.9590
2757.408277 0.9590 0.9590 0.9590 0.9590 0.9590
2762.106805 0.9590 0.9590 0.9590 0.9590 0.9590
2766.805334 0.9590 0.9590 0.9590 0.9590 0.9590
2771.503862 0.9590 0.9589 0.9579 0.9570 0.9570
2776.202390 0.9570 0.9570 0.9570 0.9565 0.9560
2780.900919 0.9560 0.9560 0.9560 0.9559 0.9549
2785.599447 0.9540 0.9540 0.9540 0.9540 0.9540
2790.297975 0.9540 0.9540 0.9540 0.9540 0.9540
2794.996503 0.9540 0.9540 0.9540 0.9540 0.9540
2799.695032 0.9540 0.9540 0.9540 0.9540 0.9540
2804.393560 0.9540 0.9540 0.9540 0.9535 0.9530
2809.092088 0.9530 0.9530 0.9530 0.9530 0.9530
2813.790617 0.9530 0.9530 0.9529 0.9519 0.9510
2818.489145 0.9510 0.9510 0.9510 0.9510 0.9505
2823.187673 0.9498 0.9473 0.9450 0.9445 0.9439
2827.886202 0.9434 0.9428 0.9413 0.9398 0.9383
2832.584730 0.9367 0.9337 0.9309 0.9299 0.9288
2837.283258 0.9268 0.9250 0.9245 0.9238 0.9213
2841.981786 0.9188 0.9168 0.9149 0.9133 0.9119
2846.680315 0.9109 0.9099 0.9089 0.9078 0.9063
2851.378843 0.9047 0.9017 0.8987 0.8957 0.8929
2856.077371 0.8914 0.8895 0.8845 0.8799 0.8789
2860.775900 0.8778 0.8758 0.8739 0.8723 0.8706
2865.474428 0.8671 0.8639 0.8629 0.8619 0.8614
2870.172956 0.8607 0.8582 0.8557 0.8532 0.8509
2874.871484 0.8499 0.8488 0.8468 0.8449 0.8439
2879.570013 0.8430 0.8430 0.8430 0.8424 0.8420
2884.268541 0.8420 0.8420 0.8420 0.8420 0.8420
2888.967069 0.8419 0.8409 0.8400 0.8400 0.8400
2893.665598 0.8400 0.8399 0.8394 0.8390 0.8390
2898.364126 0.8389 0.8379 0.8370 0.8364 0.8356
2903.062654 0.8327 0.8298 0.8278 0.8258 0.8243
2907.761182 0.8228 0.8213 0.8198 0.8183 0.8167
2912.459711 0.8137 0.8104 0.8049 0.7995 0.7950
2917.158239 0.7904 0.7844 0.7772 0.7596 0.7438
2921.856767 0.7418 0.7394 0.7339 0.7289 0.7279
2926.555296 0.7268 0.7253 0.7233 0.7173 0.7113
2931.253824 0.7048 0.6987 0.6957 0.6928 0.6913
2935.952352 0.6897 0.6867 0.6840 0.6840 0.6838
2940.650880 0.6823 0.6808 0.6788 0.6767 0.6742
2945.349409 0.6719 0.6709 0.6699 0.6689 0.6678
2950.047937 0.6663 0.6650 0.6650 0.6646 0.6611
2954.746465 0.6578 0.6563 0.6546 0.6511 0.6477
2959.444994 0.6452 0.6428 0.6408 0.6386 0.6356
2964.143522 0.6324 0.6274 0.6223 0.6163 0.6104
2968.842050 0.6054 0.5995 0.5865 0.5747 0.5722
2973.540579 0.5700 0.5700 0.5702 0.5717 0.5731
2978.239107 0.5741 0.5750 0.5750 0.5751 0.5756
2982.937635 0.5764 0.5794 0.5824 0.5854 0.5888
2987.636163 0.5953 0.6017 0.6082 0.6158 0.6318
2992.334692 0.6467 0.6527 0.6584 0.6619 0.6658
2997.033220 0.6723 0.6779 0.6774 0.6767 0.6742
3001.731748 0.6717 0.6692 0.6665 0.6625 0.6588
3006.430277 0.6568 0.6546 0.6517 0.6488 0.6468
3011.128805 0.6448 0.6433 0.6418 0.6403 0.6388
3015.827333 0.6373 0.6358 0.6343 0.6330 0.6330
3020.525861 0.6329 0.6324 0.6316 0.6286 0.6255
3025.224390 0.6210 0.6163 0.6103 0.6048 0.6033
3029.922918 0.6021 0.6031 0.6045 0.6091 0.6135
3034.621446 0.6170 0.6205 0.6240 0.6299 0.6524
3039.319975 0.6728 0.6788 0.6846 0.6896 0.6947
3044.018503 0.7007 0.7066 0.7116 0.7165 0.7210
3048.717031 0.7256 0.7306 0.7354 0.7384 0.7415
3053.415559 0.7450 0.7486 0.7531 0.7571 0.7581
3058.114088 0.7591 0.7596 0.7602 0.7617 0.7632
3062.812616 0.7647 0.7662 0.7677 0.7690 0.7690
3067.511144 0.7691 0.7696 0.7701 0.7711 0.7720
3072.209673 0.7720 0.7721 0.7726 0.7731 0.7741
3076.908201 0.7751 0.7756 0.7760 0.7760 0.7760
3081.606729 0.7760 0.7759 0.7754 0.7750 0.7750
3086.305257 0.7743 0.7688 0.7637 0.7612 0.7575
3091.003786 0.7465 0.7361 0.7296 0.7230 0.7161
3095.702314 0.7099 0.7089 0.7081 0.7086 0.7097
3100.400842 0.7146 0.7192 0.7207 0.7224 0.7259
3105.099371 0.7291 0.7301 0.7309 0.7299 0.7290
3109.797899 0.7290 0.7289 0.7284 0.7274 0.7229
3114.496427 0.7188 0.7173 0.7161 0.7171 0.7193
3119.194955 0.7287 0.7377 0.7426 0.7498 0.7718
3123.893484 0.7939 0.8169 0.8388 0.8529 0.8667
3128.592012 0.8787 0.8891 0.8901 0.8931 0.9081
3133.290540 0.9215 0.9250 0.9284 0.9314 0.9342
3137.989069 0.9357 0.9371 0.9376 0.9380 0.9380
3142.687597 0.9381 0.9391 0.9403 0.9423 0.9441
3147.386125 0.9446 0.9451 0.9461 0.9471 0.9476
3152.084654 0.9481 0.9491 0.9501 0.9506 0.9510
3156.783182 0.9510 0.9510 0.9510 0.9510 0.9510
3161.481710 0.9510 0.9510 0.9511 0.9521 0.9530
3166.180238 0.9530 0.9530 0.9530 0.9530 0.9530
3170.878767 0.9530 0.9530 0.9531 0.9536 0.9541
3175.577295 0.9551 0.9560 0.9560 0.9560 0.9560
3180.275823 0.9560 0.9560 0.9560 0.9560 0.9560
3184.974352 0.9560 0.9560 0.9560 0.9561 0.9566
3189.672880 0.9570 0.9570 0.9570 0.9570 0.9570
3194.371408 0.9570 0.9570 0.9570 0.9570 0.9570
3199.069936 0.9570 0.9570 0.9571 0.9581 0.9590
3203.768465 0.9590 0.9590 0.9590 0.9590 0.9590
3208.466993 0.9591 0.9596 0.9600 0.9600 0.9600
3213.165521 0.9600 0.9600 0.9600 0.9600 0.9600
3217.864050 0.9600 0.9600 0.9600 0.9600 0.9600
3222.562578 0.9600 0.9600 0.9600 0.9600 0.9600
3227.261106 0.9600 0.9600 0.9600 0.9600 0.9600
3231.959634 0.9600 0.9599 0.9594 0.9590 0.9590
3236.658163 0.9589 0.9579 0.9570 0.9570 0.9570
3241.356691 0.9570 0.9570 0.9570 0.9572 0.9582
3246.055219 0.9590 0.9590 0.9591 0.9596 0.9600
3250.753748 0.9600 0.9602 0.9617 0.9630 0.9630
3255.452276 0.9631 0.9636 0.9640 0.9640 0.9640
3260.150804 0.9640 0.9640 0.9640 0.9640 0.9640
3264.849332 0.9642 0.9652 0.9661 0.9666 0.9670
3269.547861 0.9670 0.9670 0.9670 0.9670 0.9670
3274.246389 0.9670 0.9670 0.9670 0.9670 0.9672
3278.944917 0.9682 0.9690 0.9690 0.9690 0.9690
3283.643446 0.9690 0.9690 0.9690 0.9690 0.9690
3288.341974 0.9690 0.9690 0.9690 0.9688 0.9679
3293.040502 0.9670 0.9670 0.9670 0.9670 0.9670
3297.739031 0.9670 0.9670 0.9670 0.9670 0.9670
3302.437559 0.9669 0.9664 0.9660 0.9660 0.9658
3307.136087 0.9648 0.9640 0.9640 0.9640 0.9640
3311.834615 0.9639 0.9634 0.9630 0.9630 0.9629
3316.533144 0.9624 0.9620 0.9620 0.9620 0.9620
3321.231672 0.9620 0.9620 0.9620 0.9620 0.9620
3325.930200 0.9620 0.9620 0.9620 0.9620 0.9620
3330.628729 0.9620 0.9620 0.9620 0.9620 0.9620
3335.327257 0.9620 0.9618 0.9608 0.9600 0.9600
3340.025785 0.9602 0.9612 0.9620 0.9620 0.9620
3344.724313 0.9620 0.9620 0.9620 0.9620 0.9620
3349.422842 0.9618 0.9608 0.9600 0.9600 0.9600
3354.121370 0.9600 0.9599 0.9594 0.9588 0.9578
3358.819898 0.9567 0.9553 0.9540 0.9540 0.9537
3363.518427 0.9517 0.9494 0.9459 0.9426 0.9401
3368.216955 0.9377 0.9357 0.9335 0.9299 0.9263
3372.915483 0.9223 0.9185 0.9155 0.9129 0.9124
3377.614011 0.9117 0.9102 0.9087 0.9067 0.9048
3382.312540 0.9033 0.9018 0.9003 0.8990 0.8990
3387.011068 0.8988 0.8978 0.8969 0.8964 0.8961
3391.709596 0.8966 0.8972 0.8982 0.8991 0.8996
3396.408125 0.9003 0.9018 0.9032 0.9042 0.9054
3401.106653 0.9079 0.9105 0.9135 0.9162 0.9177
3405.805181 0.9192 0.9207 0.9222 0.9238 0.9249
3410.503709 0.9244 0.9240 0.9240 0.9240 0.9240
3415.202238 0.9240 0.9240 0.9240 0.9240 0.9241
3419.900766 0.9246 0.9250 0.9250 0.9250 0.9250
3424.599294 0.9252 0.9262 0.9270 0.9270 0.9271
3429.297823 0.9276 0.9280 0.9280 0.9281 0.9286
3433.996351 0.9292 0.9302 0.9310 0.9310 0.9311
3438.694879 0.9316 0.9323 0.9338 0.9353 0.9368
3443.393407 0.9386 0.9421 0.9452 0.9468 0.9482
3448.091936 0.9492 0.9501 0.9506 0.9513 0.9528
3452.790464 0.9542 0.9552 0.9560 0.9560 0.9561
3457.488992 0.9566 0.9570 0.9570 0.9572 0.9582
3462.187521 0.9590 0.9590 0.9591 0.9596 0.9600
3466.886049 0.9600 0.9602 0.9612 0.9620 0.9620
3471.584577 0.9621 0.9626 0.9630 0.9630 0.9631
3476.283106 0.9636 0.9640 0.9640 0.9642 0.9652
3480.981634 0.9660 0.9660 0.9661 0.9666 0.9670
3485.680162 0.9670 0.9670 0.9670 0.9670 0.9670
3490.378690 0.9670 0.9670 0.9672 0.9682 0.9690
3495.077219 0.9690 0.9690 0.9690 0.9690 0.9690
3499.775747 0.9691 0.9696 0.9700 0.9700 0.9700
3504.474275 0.9700 0.9700 0.9700 0.9700 0.9700
3509.172804 0.9702 0.9712 0.9721 0.9726 0.9732
3513.871332 0.9742 0.9750 0.9750 0.9750 0.9750
3518.569860 0.9750 0.9750 0.9750 0.9750 0.9750
3523.268388 0.9750 0.9750 0.9750 0.9751 0.9756
3527.966917 0.9760 0.9760 0.9760 0.9760 0.9760
3532.665445 0.9760 0.9760 0.9760 0.9760 0.9760
3537.363973 0.9760 0.9760 0.9760 0.9760 0.9760
3542.062502 0.9760 0.9760 0.9760 0.9760 0.9760
3546.761030 0.9760 0.9760 0.9760 0.9760 0.9760
3551.459558 0.9760 0.9760 0.9760 0.9760 0.9760
3556.158086 0.9760 0.9760 0.9760 0.9760 0.9759
3560.856615 0.9754 0.9750 0.9750 0.9750 0.9750
3565.555143 0.9750 0.9750 0.9748 0.9738 0.9730
3570.253671 0.9730 0.9730 0.9730 0.9730 0.9730
3574.952200 0.9729 0.9724 0.9720 0.9720 0.9720
3579.650728 0.9720 0.9720 0.9720 0.9720 0.9720
3584.349256 0.9720 0.9720 0.9720 0.9720 0.9718
3589.047784 0.9708 0.9700 0.9700 0.9700 0.9700
3593.746313 0.9700 0.9700 0.9700 0.9700 0.9699
3598.444841 0.9694 0.9691 0.9696 0.9700 0.9700
3603.143369 0.9700 0.9700 0.9700 0.9700 0.9700
3607.841898 0.9700 0.9700 0.9700 0.9700 0.9700
3612.540426 0.9700 0.9700 0.9700 0.9700 0.9700
3617.238954 0.9700 0.9700 0.9700 0.9700 0.9700
3621.937483 0.9700 0.9700 0.9702 0.9712 0.9720
3626.636011 0.9720 0.9720 0.9720 0.9720 0.9720
3631.334539 0.9720 0.9720 0.9720 0.9720 0.9721
3636.033067 0.9726 0.9730 0.9730 0.9730 0.9730
3640.731596 0.9730 0.9730 0.9730 0.9730 0.9732
3645.430124 0.9742 0.9750 0.9750 0.9750 0.9750
3650.128652 0.9750 0.9750 0.9750 0.9750 0.9750
3654.827181 0.9750 0.9750 0.9750 0.9751 0.9756
3659.525709 0.9760 0.9760 0.9760 0.9760 0.9760
3664.224237 0.9760 0.9760 0.9760 0.9760 0.9760
3668.922765 0.9760 0.9760 0.9760 0.9760 0.9760
3673.621294 0.9760 0.9760 0.9760 0.9759 0.9754
3678.319822 0.9750 0.9750 0.9750 0.9750 0.9750
3683.018350 0.9750 0.9750 0.9750 0.9748 0.9738
3687.716879 0.9730 0.9730 0.9730 0.9730 0.9730
3692.415407 0.9730 0.9730 0.9730 0.9732 0.9742
3697.113935 0.9750 0.9750 0.9751 0.9756 0.9762
3701.812463 0.9772 0.9780 0.9780 0.9784 0.9804
3706.510992 0.9826 0.9856 0.9880 0.9880 0.9878
3711.209520 0.9868 0.9857 0.9842 0.9828 0.9818
3715.908048 0.9807 0.9792 0.9780 0.9780 0.9777
3720.606577 0.9762 0.9748 0.9738 0.9730 0.9730
3725.305105 0.9729 0.9724 0.9718 0.9708 0.9696
3730.003633 0.9676 0.9657 0.9642 0.9629 0.9624
3734.702161 0.9615 0.9590 0.9561 0.9516 0.9480
3739.400690 0.9480 0.9483 0.9498 0.9521 0.9576
3744.099218 0.9633 0.9698 0.9758 0.9799 0.9833
3748.797746 0.9848 0.9860 0.9860 0.9860 0.9860
3753.496275 0.9862 0.9872 0.9880 0.9880 0.9881
3758.194803 0.9886 0.9890 0.9890 0.9890 0.9890
3762.893331 0.9892 0.9902 0.9910 0.9910 0.9910
3767.591859 0.9910 0.9911 0.9916 0.9920 0.9920
3772.290388 0.9920 0.9920 0.9920 0.9920 0.9922
3776.988916 0.9932 0.9940 0.9940 0.9940 0.9940
3781.687444 0.9940 0.9940 0.9938 0.9928 0.9917
3786.385973 0.9902 0.9887 0.9872 0.9856 0.9836
3791.084501 0.9816 0.9796 0.9765 0.9695 0.9655
3795.783029 0.9725 0.9778 0.9768 0.9759 0.9754
3800.481558 0.9768 0.9853 0.9917 0.9902 0.9887
3805.180086 0.9872 0.9855 0.9836 0.9816 0.9796
3809.878614 0.9765 0.9695 0.9655 0.9725 0.9778
3814.577142 0.9768 0.9759 0.9754
##END=
