##TITLE=PROPIONAMIDE
##JCAMP-DX=4.24
$$ By DXEDIT 1.05 (RS McDonald)
##DATA TYPE=INFRARED SPECTRUM
##CLASS=COBLENTZ II
##ORIGIN=DOW CHEMICAL COMPANY
##OWNER=COBLENTZ SOC.
Collection (C) 2018 copyright by the U.S. Secretary of Commerce
on behalf of the United States of America. All rights reserved.
##DATE=1964/01/13
##CAS REGISTRY NO=79-05-0
##MOLFORM=C3 H7 N O
##SOURCE REFERENCE=COBLENTZ NO. 05755
##$NIST SOURCE=COBLENTZ
##$NIST IMAGE=cob5755
##SPECTROMETER/DATA SYSTEM=DOW KBr FOREPRISM-GRATING
##INSTRUMENT PARAMETERS=BLAZED AT 3.5, 12.0, 20.0 MICRON AND CHANGED AT 5.0, 7.5, 14.9 MICRON
##STATE=SOLID (SPLIT MULL)
##SAMPLING PROCEDURE=TRANSMISSION
##RESOLUTION=2
##DATA PROCESSING=DIGITIZED BY COBLENTZ SOCIETY (BATCH I) FROM HARD COPY
##XUNITS=1/CM
##YUNITS=TRANSMITTANCE
##XLABEL=Wavenumbers (cm-1)
##YLABEL=% Transmission
##XFACTOR=1
##YFACTOR=1
##DELTAX=1
##FIRSTX=3806
##LASTX=451
##FIRSTY=0.8435
##MAXX=3806
##MINX=451
##MAXY=0.9973
##MINY=0.0683
##NPOINTS=3356
##XYDATA=(X++(Y..Y))
3806.000000 0.8435 0.8435 0.8436 0.8437 0.8438
3801.000000 0.8439 0.8440 0.8441 0.8442 0.8443
3796.000000 0.8444 0.8444 0.8445 0.8446 0.8447
3791.000000 0.8448 0.8449 0.8450 0.8451 0.8452
3786.000000 0.8453 0.8454 0.8455 0.8456 0.8457
3781.000000 0.8457 0.8458 0.8459 0.8460 0.8461
3776.000000 0.8462 0.8463 0.8464 0.8465 0.8466
3771.000000 0.8467 0.8468 0.8470 0.8471 0.8474
3766.000000 0.8477 0.8478 0.8481 0.8483 0.8486
3761.000000 0.8488 0.8491 0.8493 0.8495 0.8497
3756.000000 0.8500 0.8502 0.8504 0.8506 0.8509
3751.000000 0.8511 0.8513 0.8515 0.8517 0.8518
3746.000000 0.8521 0.8524 0.8525 0.8528 0.8530
3741.000000 0.8532 0.8535 0.8535 0.8535 0.8535
3736.000000 0.8534 0.8533 0.8532 0.8531 0.8530
3731.000000 0.8528 0.8528 0.8528 0.8527 0.8525
3726.000000 0.8525 0.8524 0.8523 0.8521 0.8521
3721.000000 0.8521 0.8523 0.8524 0.8525 0.8525
3716.000000 0.8525 0.8525 0.8527 0.8527 0.8528
3711.000000 0.8528 0.8528 0.8530 0.8531 0.8531
3706.000000 0.8532 0.8533 0.8534 0.8538 0.8542
3701.000000 0.8546 0.8550 0.8553 0.8557 0.8561
3696.000000 0.8565 0.8568 0.8573 0.8575 0.8580
3691.000000 0.8584 0.8588 0.8592 0.8596 0.8599
3686.000000 0.8603 0.8606 0.8610 0.8613 0.8616
3681.000000 0.8618 0.8621 0.8624 0.8627 0.8630
3676.000000 0.8633 0.8635 0.8638 0.8641 0.8644
3671.000000 0.8647 0.8650 0.8652 0.8655 0.8658
3666.000000 0.8661 0.8663 0.8666 0.8668 0.8671
3661.000000 0.8675 0.8678 0.8680 0.8683 0.8685
3656.000000 0.8687 0.8688 0.8690 0.8691 0.8693
3651.000000 0.8694 0.8696 0.8697 0.8699 0.8700
3646.000000 0.8702 0.8703 0.8705 0.8706 0.8708
3641.000000 0.8709 0.8711 0.8712 0.8714 0.8715
3636.000000 0.8717 0.8718 0.8720 0.8721 0.8723
3631.000000 0.8724 0.8725 0.8727 0.8728 0.8730
3626.000000 0.8732 0.8733 0.8735 0.8736 0.8738
3621.000000 0.8740 0.8742 0.8743 0.8745 0.8746
3616.000000 0.8748 0.8749 0.8751 0.8752 0.8754
3611.000000 0.8755 0.8757 0.8759 0.8761 0.8762
3606.000000 0.8764 0.8765 0.8767 0.8768 0.8770
3601.000000 0.8771 0.8773 0.8774 0.8775 0.8777
3596.000000 0.8778 0.8780 0.8781 0.8782 0.8783
3591.000000 0.8783 0.8784 0.8784 0.8785 0.8786
3586.000000 0.8787 0.8787 0.8788 0.8788 0.8789
3581.000000 0.8790 0.8791 0.8791 0.8792 0.8793
3576.000000 0.8794 0.8794 0.8795 0.8795 0.8796
3571.000000 0.8797 0.8798 0.8798 0.8799 0.8800
3566.000000 0.8801 0.8801 0.8801 0.8801 0.8801
3561.000000 0.8801 0.8801 0.8801 0.8801 0.8801
3556.000000 0.8801 0.8801 0.8801 0.8801 0.8801
3551.000000 0.8801 0.8801 0.8801 0.8801 0.8801
3546.000000 0.8801 0.8801 0.8801 0.8801 0.8801
3541.000000 0.8801 0.8801 0.8801 0.8801 0.8801
3536.000000 0.8801 0.8801 0.8801 0.8801 0.8801
3531.000000 0.8801 0.8801 0.8800 0.8800 0.8798
3526.000000 0.8797 0.8795 0.8794 0.8792 0.8791
3521.000000 0.8788 0.8786 0.8783 0.8794 0.8777
3516.000000 0.8774 0.8771 0.8768 0.8763 0.8759
3511.000000 0.8752 0.8745 0.8738 0.8731 0.8721
3506.000000 0.8714 0.8704 0.8695 0.8684 0.8674
3501.000000 0.8663 0.8652 0.8638 0.8625 0.8609
3496.000000 0.8594 0.8578 0.8563 0.8548 0.8533
3491.000000 0.8511 0.8489 0.8466 0.8444 0.8421
3486.000000 0.8400 0.8375 0.8350 0.8325 0.8300
3481.000000 0.8274 0.8249 0.8223 0.8198 0.8171
3476.000000 0.8145 0.8118 0.8091 0.8064 0.8038
3471.000000 0.8011 0.7985 0.7950 0.7915 0.7880
3466.000000 0.7845 0.7810 0.7775 0.7740 0.7705
3461.000000 0.7665 0.7628 0.7586 0.7545 0.7503
3456.000000 0.7461 0.7418 0.7376 0.7328 0.7278
3451.000000 0.7230 0.7182 0.7133 0.7085 0.7018
3446.000000 0.6953 0.6882 0.6811 0.6740 0.6669
3441.000000 0.6599 0.6528 0.6435 0.6342 0.6236
3436.000000 0.6131 0.6081 0.6032 0.5762 0.5493
3431.000000 0.5410 0.5330 0.5248 0.5167 0.5086
3426.000000 0.5005 0.4923 0.4842 0.4760 0.4679
3421.000000 0.4597 0.4516 0.4434 0.4353 0.4272
3416.000000 0.4191 0.4109 0.4028 0.3946 0.3864
3411.000000 0.3782 0.3702 0.3616 0.3530 0.3375
3406.000000 0.3220 0.3077 0.2934 0.2846 0.2757
3401.000000 0.2658 0.2560 0.2454 0.2348 0.2041
3396.000000 0.1734 0.1687 0.1642 0.1596 0.1550
3391.000000 0.1417 0.1285 0.1220 0.1156 0.1116
3386.000000 0.1076 0.1040 0.1005 0.0975 0.0945
3381.000000 0.0934 0.0924 0.0917 0.0911 0.0905
3376.000000 0.0899 0.0895 0.0892 0.0889 0.0889
3371.000000 0.0889 0.0892 0.0896 0.0900 0.0904
3366.000000 0.0908 0.0915 0.0922 0.0933 0.0942
3361.000000 0.0953 0.0964 0.0974 0.0984 0.0995
3356.000000 0.1007 0.1027 0.1048 0.1069 0.1090
3351.000000 0.1110 0.1131 0.1157 0.1184 0.1213
3346.000000 0.1242 0.1272 0.1301 0.1330 0.1360
3341.000000 0.1389 0.1419 0.1449 0.1479 0.1509
3336.000000 0.1539 0.1569 0.1599 0.1628 0.1658
3331.000000 0.1687 0.1718 0.1744 0.1771 0.1794
3326.000000 0.1819 0.1843 0.1868 0.1892 0.1916
3321.000000 0.1940 0.1965 0.1989 0.2013 0.2033
3316.000000 0.2053 0.2072 0.2091 0.2110 0.2129
3311.000000 0.2148 0.2167 0.2185 0.2206 0.2225
3306.000000 0.2244 0.2262 0.2280 0.2296 0.2313
3301.000000 0.2329 0.2345 0.2361 0.2378 0.2394
3296.000000 0.2411 0.2427 0.2443 0.2458 0.2474
3291.000000 0.2485 0.2498 0.2510 0.2523 0.2534
3286.000000 0.2548 0.2560 0.2572 0.2584 0.2597
3281.000000 0.2608 0.2619 0.2628 0.2637 0.2646
3276.000000 0.2656 0.2665 0.2675 0.2684 0.2694
3271.000000 0.2701 0.2708 0.2714 0.2721 0.2727
3266.000000 0.2734 0.2734 0.2734 0.2734 0.2734
3261.000000 0.2734 0.2734 0.2731 0.2727 0.2725
3256.000000 0.2722 0.2717 0.2713 0.2693 0.2674
3251.000000 0.2653 0.2633 0.2612 0.2592 0.2571
3246.000000 0.2551 0.2530 0.2510 0.2484 0.2460
3241.000000 0.2424 0.2389 0.2353 0.2318 0.2284
3236.000000 0.2250 0.2222 0.2195 0.2168 0.2141
3231.000000 0.2114 0.2087 0.2059 0.2032 0.2003
3226.000000 0.1974 0.1944 0.1914 0.1884 0.1854
3221.000000 0.1825 0.1794 0.1765 0.1735 0.1715
3216.000000 0.1694 0.1677 0.1660 0.1642 0.1625
3211.000000 0.1607 0.1589 0.1574 0.1559 0.1544
3206.000000 0.1529 0.1514 0.1499 0.1486 0.1473
3201.000000 0.1466 0.1459 0.1452 0.1445 0.1438
3196.000000 0.1431 0.1426 0.1422 0.1420 0.1419
3191.000000 0.1417 0.1416 0.1414 0.1413 0.1411
3186.000000 0.1461 0.1415 0.1421 0.1428 0.1435
3181.000000 0.1458 0.1482 0.1525 0.1568 0.1607
3176.000000 0.1645 0.1684 0.1723 0.1761 0.1800
3171.000000 0.1841 0.1882 0.1922 0.1963 0.2004
3166.000000 0.2045 0.2096 0.2146 0.2196 0.2247
3161.000000 0.2298 0.2350 0.2404 0.2458 0.2511
3156.000000 0.2565 0.2618 0.2672 0.2725 0.2779
3151.000000 0.2837 0.2895 0.2958 0.3022 0.3077
3146.000000 0.3132 0.3173 0.3214 0.3254 0.3295
3141.000000 0.3336 0.3377 0.3416 0.3458 0.3499
3136.000000 0.3540 0.3580 0.3622 0.3662 0.3703
3131.000000 0.3741 0.3779 0.3812 0.3845 0.3877
3126.000000 0.3909 0.3942 0.3975 0.4012 0.4049
3121.000000 0.4088 0.4128 0.4167 0.4206 0.4245
3116.000000 0.4285 0.4322 0.4360 0.4385 0.4410
3111.000000 0.4435 0.4460 0.4486 0.4510 0.4536
3106.000000 0.4562 0.4587 0.4612 0.4637 0.4662
3101.000000 0.4688 0.4712 0.4737 0.4762 0.4787
3096.000000 0.4812 0.4836 0.4860 0.4885 0.4910
3091.000000 0.4934 0.4959 0.4983 0.5008 0.5032
3086.000000 0.5057 0.5082 0.5107 0.5131 0.5156
3081.000000 0.5181 0.5206 0.5230 0.5255 0.5280
3076.000000 0.5305 0.5329 0.5354 0.5379 0.5404
3071.000000 0.5426 0.5449 0.5470 0.5492 0.5514
3066.000000 0.5536 0.5558 0.5580 0.5602 0.5624
3061.000000 0.5646 0.5668 0.5689 0.5710 0.5733
3056.000000 0.5755 0.5777 0.5799 0.5820 0.5842
3051.000000 0.5864 0.5886 0.5907 0.5929 0.5951
3046.000000 0.5973 0.5994 0.6016 0.6031 0.6047
3041.000000 0.6060 0.6076 0.6091 0.6106 0.6120
3036.000000 0.6135 0.6149 0.6164 0.6178 0.6193
3031.000000 0.6207 0.6222 0.6236 0.6250 0.6262
3026.000000 0.6275 0.6287 0.6300 0.6312 0.6325
3021.000000 0.6337 0.6349 0.6359 0.6370 0.6379
3016.000000 0.6389 0.6394 0.6399 0.6404 0.6410
3011.000000 0.6415 0.6408 0.6421 0.6421 0.6421
3006.000000 0.6419 0.6418 0.6415 0.6411 0.6408
3001.000000 0.6396 0.6384 0.6371 0.6359 0.6324
2996.000000 0.6290 0.6166 0.6043 0.5800 0.5558
2991.000000 0.5315 0.5072 0.4829 0.4587 0.4344
2986.000000 0.4101 0.3858 0.3616 0.3408 0.3200
2981.000000 0.3197 0.3193 0.3228 0.3169 0.3388
2976.000000 0.3512 0.3638 0.3762 0.3887 0.4012
2971.000000 0.4136 0.4260 0.4386 0.4510 0.4635
2966.000000 0.4760 0.4884 0.5009 0.5133 0.5258
2961.000000 0.5383 0.5508 0.5632 0.5757 0.5774
2956.000000 0.5799 0.5790 0.5789 0.5641 0.5493
2951.000000 0.5345 0.5197 0.5048 0.4900 0.4752
2946.000000 0.4373 0.4479 0.4354 0.4352 0.4351
2941.000000 0.4426 0.4501 0.4590 0.4679 0.4768
2936.000000 0.4857 0.4945 0.5034 0.5096 0.5159
2931.000000 0.5162 0.5165 0.5168 0.5171 0.5177
2926.000000 0.5183 0.5189 0.5195 0.5202 0.5210
2921.000000 0.5251 0.5293 0.5351 0.5409 0.5473
2916.000000 0.5538 0.5608 0.5679 0.5745 0.5812
2911.000000 0.5871 0.5930 0.5980 0.6030 0.6076
2906.000000 0.6122 0.6134 0.6146 0.6151 0.6157
2901.000000 0.6160 0.6162 0.6166 0.6169 0.6171
2896.000000 0.6172 0.6173 0.6173 0.6172 0.6171
2891.000000 0.6170 0.6170 0.6153 0.6137 0.6118
2886.000000 0.6100 0.6080 0.6060 0.6045 0.6030
2881.000000 0.6025 0.6020 0.6021 0.6023 0.6029
2876.000000 0.5962 0.6126 0.6218 0.6286 0.6354
2871.000000 0.6390 0.6426 0.6458 0.6489 0.6514
2866.000000 0.6539 0.6561 0.6583 0.6598 0.6614
2861.000000 0.6628 0.6642 0.6651 0.6660 0.6668
2856.000000 0.6678 0.6687 0.6696 0.6705 0.6714
2851.000000 0.6717 0.6721 0.6724 0.6728 0.6731
2846.000000 0.6734 0.6736 0.6738 0.6740 0.6740
2841.000000 0.6741 0.6741 0.6740 0.6740 0.6736
2836.000000 0.6733 0.6715 0.6698 0.6681 0.6664
2831.000000 0.6642 0.6621 0.6599 0.6576 0.6554
2826.000000 0.6532 0.6508 0.6487 0.6465 0.6443
2821.000000 0.6419 0.6398 0.6372 0.6347 0.6312
2816.000000 0.6280 0.6279 0.6279 0.6279 0.6279
2811.000000 0.6277 0.6195 0.6273 0.6273 0.6273
2806.000000 0.6275 0.6287 0.6299 0.6325 0.6351
2801.000000 0.6377 0.6404 0.6430 0.6456 0.6471
2796.000000 0.6488 0.6504 0.6521 0.6537 0.6554
2791.000000 0.6569 0.6587 0.6603 0.6619 0.6641
2786.000000 0.6662 0.6698 0.6734 0.6765 0.6798
2781.000000 0.6811 0.6826 0.6842 0.6857 0.6871
2776.000000 0.6886 0.6900 0.6915 0.6930 0.6945
2771.000000 0.6960 0.6975 0.6990 0.7006 0.7021
2766.000000 0.7036 0.7049 0.7062 0.7069 0.7078
2761.000000 0.7085 0.7093 0.7095 0.7097 0.7097
2756.000000 0.7098 0.7098 0.7099 0.7099 0.7100
2751.000000 0.7100 0.7101 0.7101 0.7101 0.7103
2746.000000 0.7104 0.7104 0.7105 0.7105 0.7106
2741.000000 0.7114 0.7121 0.7134 0.7146 0.7158
2736.000000 0.7169 0.7182 0.7194 0.7205 0.7217
2731.000000 0.7228 0.7241 0.7253 0.7265 0.7275
2726.000000 0.7288 0.7300 0.7311 0.7324 0.7336
2721.000000 0.7345 0.7355 0.7362 0.7371 0.7380
2716.000000 0.7389 0.7397 0.7406 0.7414 0.7422
2711.000000 0.7431 0.7439 0.7447 0.7456 0.7464
2706.000000 0.7472 0.7481 0.7490 0.7498 0.7507
2701.000000 0.7515 0.7524 0.7532 0.7541 0.7549
2696.000000 0.7558 0.7565 0.7575 0.7581 0.7588
2691.000000 0.7592 0.7597 0.7601 0.7607 0.7611
2686.000000 0.7615 0.7619 0.7625 0.7628 0.7634
2681.000000 0.7639 0.7644 0.7648 0.7653 0.7657
2676.000000 0.7661 0.7665 0.7671 0.7675 0.7681
2671.000000 0.7685 0.7690 0.7694 0.7699 0.7703
2666.000000 0.7708 0.7712 0.7718 0.7721 0.7725
2661.000000 0.7728 0.7733 0.7736 0.7740 0.7744
2656.000000 0.7748 0.7751 0.7755 0.7758 0.7761
2651.000000 0.7765 0.7768 0.7772 0.7776 0.7780
2646.000000 0.7784 0.7787 0.7791 0.7794 0.7798
2641.000000 0.7801 0.7806 0.7808 0.7812 0.7815
2636.000000 0.7819 0.7822 0.7826 0.7831 0.7835
2631.000000 0.7838 0.7842 0.7845 0.7848 0.7850
2626.000000 0.7853 0.7855 0.7857 0.7858 0.7861
2621.000000 0.7864 0.7865 0.7868 0.7871 0.7872
2616.000000 0.7875 0.7876 0.7880 0.7882 0.7884
2611.000000 0.7886 0.7889 0.7891 0.7893 0.7895
2606.000000 0.7898 0.7900 0.7903 0.7905 0.7907
2601.000000 0.7908 0.7911 0.7914 0.7915 0.7918
2596.000000 0.7921 0.7922 0.7925 0.7926 0.7930
2591.000000 0.7932 0.7934 0.7935 0.7936 0.7937
2586.000000 0.7939 0.7940 0.7941 0.7942 0.7943
2581.000000 0.7944 0.7946 0.7947 0.7948 0.7949
2576.000000 0.7950 0.7951 0.7953 0.7954 0.7955
2571.000000 0.7956 0.7958 0.7958 0.7960 0.7961
2566.000000 0.7961 0.7962 0.7965 0.7965 0.7967
2561.000000 0.7968 0.7968 0.7969 0.7971 0.7972
2556.000000 0.7974 0.7974 0.7975 0.7975 0.7975
2551.000000 0.7975 0.7976 0.7976 0.7978 0.7978
2546.000000 0.7978 0.7978 0.7980 0.7980 0.7981
2541.000000 0.7981 0.7982 0.7983 0.7984 0.7984
2536.000000 0.7985 0.7985 0.7986 0.7986 0.7987
2531.000000 0.7987 0.7988 0.7988 0.7989 0.7989
2526.000000 0.7990 0.7990 0.7990 0.7988 0.7987
2521.000000 0.7985 0.7984 0.7983 0.7982 0.7980
2516.000000 0.7978 0.7976 0.7975 0.7975 0.7974
2511.000000 0.7971 0.7971 0.7969 0.7968 0.7967
2506.000000 0.7965 0.7964 0.7962 0.7961 0.7961
2501.000000 0.7958 0.7958 0.7956 0.7955 0.7953
2496.000000 0.7951 0.7950 0.7949 0.7947 0.7946
2491.000000 0.7944 0.7943 0.7941 0.7940 0.7938
2486.000000 0.7936 0.7936 0.7936 0.7936 0.7936
2481.000000 0.7936 0.7936 0.7936 0.7936 0.7936
2476.000000 0.7936 0.7936 0.7936 0.7936 0.7936
2471.000000 0.7935 0.7935 0.7934 0.7934 0.7933
2466.000000 0.7933 0.7932 0.7932 0.7931 0.7931
2461.000000 0.7930 0.7930 0.7928 0.7928 0.7925
2456.000000 0.7924 0.7918 0.7912 0.7908 0.7903
2451.000000 0.7900 0.7897 0.7894 0.7892 0.7889
2446.000000 0.7887 0.7884 0.7882 0.7878 0.7876
2441.000000 0.7874 0.7871 0.7869 0.7868 0.7868
2436.000000 0.7869 0.7871 0.7875 0.7878 0.7881
2431.000000 0.7883 0.7886 0.7889 0.7892 0.7893
2426.000000 0.7894 0.7895 0.7897 0.7898 0.7900
2421.000000 0.7901 0.7903 0.7904 0.7905 0.7907
2416.000000 0.7910 0.7911 0.7915 0.7918 0.7921
2411.000000 0.7922 0.7925 0.7928 0.7932 0.7934
2406.000000 0.7937 0.7939 0.7942 0.7945 0.7948
2401.000000 0.7950 0.7951 0.7954 0.7956 0.7957
2396.000000 0.7958 0.7961 0.7962 0.7965 0.7968
2391.000000 0.7971 0.7974 0.7976 0.7980 0.7983
2386.000000 0.7986 0.7993 0.8000 0.8007 0.8014
2381.000000 0.8021 0.8028 0.8040 0.8051 0.8065
2376.000000 0.8078 0.8088 0.8099 0.8097 0.8096
2371.000000 0.8095 0.8094 0.8092 0.8065 0.8084
2366.000000 0.8078 0.8071 0.8065 0.8058 0.8051
2361.000000 0.8047 0.8042 0.8039 0.8037 0.8034
2356.000000 0.8031 0.8028 0.8025 0.8021 0.8019
2351.000000 0.8017 0.8014 0.8011 0.8008 0.8005
2346.000000 0.8001 0.7997 0.7993 0.7989 0.7985
2341.000000 0.7981 0.7976 0.7972 0.7968 0.7965
2336.000000 0.7961 0.7958 0.7954 0.7949 0.7945
2331.000000 0.7941 0.7937 0.7933 0.7928 0.7925
2326.000000 0.7921 0.7917 0.7914 0.7910 0.7907
2321.000000 0.7903 0.7900 0.7896 0.7893 0.7889
2316.000000 0.7886 0.7882 0.7878 0.7875 0.7871
2311.000000 0.7868 0.7865 0.7861 0.7858 0.7855
2306.000000 0.7851 0.7848 0.7845 0.7844 0.7844
2301.000000 0.7845 0.7846 0.7846 0.7847 0.7847
2296.000000 0.7847 0.7848 0.7849 0.7850 0.7851
2291.000000 0.7851 0.7851 0.7851 0.7853 0.7854
2286.000000 0.7856 0.7860 0.7865 0.7868 0.7874
2281.000000 0.7878 0.7883 0.7887 0.7892 0.7897
2276.000000 0.7901 0.7906 0.7911 0.7915 0.7919
2271.000000 0.7925 0.7933 0.7939 0.7946 0.7951
2266.000000 0.7958 0.7965 0.7971 0.7976 0.7984
2261.000000 0.7990 0.7997 0.8003 0.8010 0.8015
2256.000000 0.8021 0.8028 0.8035 0.8041 0.8047
2251.000000 0.8051 0.8058 0.8062 0.8068 0.8074
2246.000000 0.8080 0.8085 0.8091 0.8097 0.8103
2241.000000 0.8108 0.8114 0.8118 0.8125 0.8130
2236.000000 0.8136 0.8141 0.8147 0.8151 0.8158
2231.000000 0.8162 0.8168 0.8174 0.8180 0.8185
2226.000000 0.8191 0.8196 0.8201 0.8205 0.8210
2221.000000 0.8214 0.8218 0.8221 0.8225 0.8230
2216.000000 0.8234 0.8238 0.8243 0.8247 0.8251
2211.000000 0.8255 0.8259 0.8263 0.8267 0.8271
2206.000000 0.8275 0.8278 0.8282 0.8283 0.8285
2201.000000 0.8287 0.8289 0.8290 0.8306 0.8294
2196.000000 0.8296 0.8298 0.8300 0.8301 0.8303
2191.000000 0.8305 0.8307 0.8308 0.8310 0.8311
2186.000000 0.8313 0.8314 0.8315 0.8315 0.8316
2181.000000 0.8317 0.8318 0.8318 0.8318 0.8320
2176.000000 0.8321 0.8321 0.8321 0.8323 0.8324
2171.000000 0.8324 0.8324 0.8324 0.8325 0.8325
2166.000000 0.8325 0.8325 0.8325 0.8325 0.8327
2161.000000 0.8327 0.8327 0.8331 0.8335 0.8339
2156.000000 0.8343 0.8347 0.8352 0.8356 0.8361
2151.000000 0.8365 0.8368 0.8373 0.8378 0.8382
2146.000000 0.8387 0.8391 0.8396 0.8400 0.8405
2141.000000 0.8409 0.8413 0.8417 0.8421 0.8425
2136.000000 0.8431 0.8435 0.8439 0.8443 0.8447
2131.000000 0.8451 0.8455 0.8458 0.8462 0.8466
2126.000000 0.8470 0.8474 0.8478 0.8482 0.8486
2121.000000 0.8489 0.8493 0.8497 0.8501 0.8505
2116.000000 0.8509 0.8513 0.8517 0.8520 0.8524
2111.000000 0.8528 0.8532 0.8535 0.8539 0.8542
2106.000000 0.8545 0.8548 0.8551 0.8553 0.8556
2101.000000 0.8559 0.8562 0.8565 0.8568 0.8571
2096.000000 0.8574 0.8577 0.8580 0.8583 0.8586
2091.000000 0.8589 0.8592 0.8595 0.8598 0.8601
2086.000000 0.8605 0.8608 0.8611 0.8614 0.8617
2081.000000 0.8620 0.8623 0.8625 0.8630 0.8633
2076.000000 0.8636 0.8638 0.8640 0.8642 0.8644
2071.000000 0.8646 0.8648 0.8650 0.8652 0.8654
2066.000000 0.8656 0.8658 0.8660 0.8662 0.8664
2061.000000 0.8666 0.8668 0.8670 0.8671 0.8674
2056.000000 0.8675 0.8678 0.8680 0.8681 0.8682
2051.000000 0.8683 0.8685 0.8686 0.8687 0.8688
2046.000000 0.8690 0.8691 0.8692 0.8693 0.8695
2041.000000 0.8696 0.8697 0.8698 0.8699 0.8699
2036.000000 0.8700 0.8700 0.8701 0.8701 0.8702
2031.000000 0.8702 0.8703 0.8704 0.8705 0.8705
2026.000000 0.8706 0.8707 0.8709 0.8710 0.8712
2021.000000 0.8713 0.8715 0.8716 0.8718 0.8718
2016.000000 0.8718 0.8713 0.8708 0.8703 0.8699
2011.000000 0.8693 0.8688 0.8678 0.8668 0.8657
2006.000000 0.8646 0.8625 0.8604 0.8582 0.8561
2001.000000 0.8516 0.8471 0.8421 0.8368 0.8399
1996.000000 0.8478 0.8581 0.8623 0.8664 0.8685
1991.000000 0.8698 0.8710 0.8717 0.8718 0.8720
1986.000000 0.8721 0.8723 0.8725 0.8728 0.8733
1981.000000 0.8736 0.8739 0.8743 0.8746 0.8749
1976.000000 0.8752 0.8756 0.8759 0.8762 0.8765
1971.000000 0.8766 0.8768 0.8770 0.8771 0.8774
1966.000000 0.8775 0.8777 0.8778 0.8781 0.8783
1961.000000 0.8785 0.8786 0.8786 0.8786 0.8783
1956.000000 0.8781 0.8778 0.8775 0.8774 0.8771
1951.000000 0.8771 0.8771 0.8771 0.8771 0.8771
1946.000000 0.8771 0.8773 0.8773 0.8774 0.8774
1941.000000 0.8775 0.8775 0.8775 0.8775 0.8775
1936.000000 0.8777 0.8777 0.8778 0.8782 0.8784
1931.000000 0.8786 0.8789 0.8791 0.8793 0.8795
1926.000000 0.8798 0.8799 0.8799 0.8799 0.8800
1921.000000 0.8800 0.8800 0.8800 0.8800 0.8800
1916.000000 0.8801 0.8801 0.8801 0.8801 0.8801
1911.000000 0.8802 0.8802 0.8802 0.8801 0.8797
1906.000000 0.8793 0.8790 0.8786 0.8782 0.8778
1901.000000 0.8775 0.8773 0.8770 0.8767 0.8765
1896.000000 0.8762 0.8759 0.8756 0.8753 0.8750
1891.000000 0.8746 0.8741 0.8735 0.8728 0.8724
1886.000000 0.8718 0.8713 0.8707 0.8703 0.8701
1881.000000 0.8699 0.8698 0.8696 0.8694 0.8693
1876.000000 0.8692 0.8692 0.8692 0.8692 0.8692
1871.000000 0.8692 0.8692 0.8692 0.8692 0.8692
1866.000000 0.8692 0.8692 0.8692 0.8692 0.8691
1861.000000 0.8689 0.8687 0.8685 0.8684 0.8682
1856.000000 0.8680 0.8678 0.8677 0.8677 0.8675
1851.000000 0.8675 0.8675 0.8675 0.8675 0.8674
1846.000000 0.8674 0.8671 0.8667 0.8662 0.8656
1841.000000 0.8651 0.8646 0.8641 0.8630 0.8620
1836.000000 0.8610 0.8600 0.8590 0.8578 0.8568
1831.000000 0.8560 0.8557 0.8554 0.8550 0.8547
1826.000000 0.8544 0.8541 0.8538 0.8535 0.8532
1821.000000 0.8528 0.8525 0.8521 0.8518 0.8512
1816.000000 0.8506 0.8500 0.8494 0.8488 0.8482
1811.000000 0.8475 0.8468 0.8460 0.8452 0.8443
1806.000000 0.8435 0.8425 0.8418 0.8409 0.8401
1801.000000 0.8392 0.8380 0.8368 0.8356 0.8344
1796.000000 0.8332 0.8320 0.8307 0.8295 0.8283
1791.000000 0.8271 0.8259 0.8247 0.8227 0.8207
1786.000000 0.8187 0.8167 0.8147 0.8126 0.8107
1781.000000 0.8087 0.8065 0.8046 0.8025 0.8006
1776.000000 0.7986 0.7962 0.7935 0.7906 0.7878
1771.000000 0.7850 0.7821 0.7798 0.7778 0.7760
1766.000000 0.7741 0.7721 0.7701 0.7683 0.7664
1761.000000 0.7645 0.7625 0.7607 0.7588 0.7568
1756.000000 0.7543 0.7515 0.7487 0.7458 0.7430
1751.000000 0.7401 0.7372 0.7345 0.7311 0.7269
1746.000000 0.7228 0.7186 0.7144 0.7103 0.7061
1741.000000 0.7021 0.6980 0.6938 0.6897 0.6840
1736.000000 0.6772 0.6706 0.6639 0.6571 0.6501
1731.000000 0.6430 0.6359 0.6287 0.6184 0.6070
1726.000000 0.5957 0.5843 0.5734 0.5625 0.5516
1721.000000 0.5412 0.5334 0.5255 0.5177 0.5098
1716.000000 0.5019 0.4943 0.4867 0.4791 0.4718
1711.000000 0.4646 0.4574 0.4502 0.4430 0.4362
1706.000000 0.4300 0.4236 0.4179 0.4141 0.4102
1701.000000 0.4064 0.4025 0.3986 0.3932 0.3872
1696.000000 0.3706 0.3645 0.3586 0.3530 0.3458
1691.000000 0.3368 0.3279 0.3192 0.3105 0.3018
1686.000000 0.2931 0.2630 0.2467 0.2293 0.2176
1681.000000 0.2092 0.2008 0.1924 0.1808 0.1691
1676.000000 0.1577 0.1475 0.1373 0.1278 0.1201
1671.000000 0.1124 0.1017 0.0938 0.0885 0.0838
1666.000000 0.0802 0.0767 0.0737 0.0716 0.0695
1661.000000 0.0688 0.0691 0.0694 0.0696 0.0699
1656.000000 0.0683 0.0704 0.0711 0.0719 0.0727
1651.000000 0.0735 0.0743 0.0752 0.0760 0.0767
1646.000000 0.0768 0.0770 0.0771 0.0771 0.0772
1641.000000 0.0772 0.0771 0.0769 0.0766 0.0763
1636.000000 0.0760 0.0756 0.0752 0.0747 0.0742
1631.000000 0.0737 0.0732 0.0740 0.0751 0.0763
1626.000000 0.0776 0.0796 0.0821 0.0861 0.0902
1621.000000 0.0952 0.1020 0.1088 0.1156 0.1220
1616.000000 0.1282 0.1344 0.1406 0.1474 0.1564
1611.000000 0.1654 0.1746 0.1936 0.2087 0.2184
1606.000000 0.2280 0.2377 0.2495 0.2639 0.2781
1601.000000 0.2872 0.2963 0.3054 0.3145 0.3227
1596.000000 0.3300 0.3375 0.3449 0.3523 0.3598
1591.000000 0.3656 0.3709 0.3762 0.3816 0.3868
1586.000000 0.3923 0.3968 0.4012 0.4058 0.4103
1581.000000 0.4148 0.4193 0.4239 0.4284 0.4356
1576.000000 0.4436 0.4516 0.4595 0.4675 0.4755
1571.000000 0.4831 0.4897 0.4962 0.5028 0.5093
1566.000000 0.5138 0.5183 0.5227 0.5272 0.5316
1561.000000 0.5343 0.5369 0.5395 0.5422 0.5448
1556.000000 0.5474 0.5500 0.5524 0.5545 0.5567
1551.000000 0.5588 0.5610 0.5636 0.5662 0.5688
1546.000000 0.5714 0.5738 0.5760 0.5781 0.5803
1541.000000 0.5824 0.5843 0.5859 0.5876 0.5892
1536.000000 0.5909 0.5926 0.5942 0.5952 0.5962
1531.000000 0.5975 0.5987 0.6000 0.6012 0.6024
1526.000000 0.6037 0.6049 0.6060 0.6069 0.6077
1521.000000 0.6085 0.6092 0.6100 0.6108 0.6116
1516.000000 0.6123 0.6130 0.6136 0.6143 0.6153
1511.000000 0.6170 0.6186 0.6202 0.6219 0.6219
1506.000000 0.6219 0.6201 0.6183 0.6166 0.6156
1501.000000 0.6151 0.6147 0.6142 0.6137 0.6133
1496.000000 0.6128 0.6123 0.6119 0.6112 0.6098
1491.000000 0.6083 0.6068 0.6053 0.6030 0.6003
1486.000000 0.5976 0.5948 0.5918 0.5888 0.5858
1481.000000 0.5826 0.5794 0.5759 0.5715 0.5672
1476.000000 0.5533 0.5396 0.5299 0.5224 0.5134
1471.000000 0.4568 0.4227 0.3886 0.3544 0.2850
1466.000000 0.2862 0.2825 0.2828 0.3101 0.3597
1461.000000 0.4093 0.4590 0.4668 0.4740 0.4797
1456.000000 0.4828 0.4860 0.4891 0.4903 0.4907
1451.000000 0.4910 0.4925 0.4904 0.4885 0.4859
1446.000000 0.4831 0.4777 0.4723 0.4670 0.4562
1441.000000 0.4452 0.4253 0.4092 0.3942 0.3793
1436.000000 0.3643 0.3494 0.3344 0.3195 0.3045
1431.000000 0.2896 0.2746 0.2597 0.2447 0.2298
1426.000000 0.2148 0.1999 0.1849 0.1700 0.1550
1421.000000 0.1362 0.1400 0.1415 0.1516 0.1614
1416.000000 0.1711 0.1809 0.1906 0.2004 0.2102
1411.000000 0.2199 0.2297 0.2394 0.2492 0.2589
1406.000000 0.2687 0.2784 0.2882 0.2980 0.3077
1401.000000 0.3175 0.3273 0.3370 0.3468 0.3564
1396.000000 0.3662 0.3760 0.3858 0.3956 0.4053
1391.000000 0.4148 0.4176 0.4195 0.4214 0.4226
1386.000000 0.4228 0.4224 0.4222 0.4115 0.3866
1381.000000 0.3616 0.3498 0.3530 0.3568 0.3729
1376.000000 0.3891 0.4054 0.4217 0.4380 0.4475
1371.000000 0.4534 0.4572 0.4601 0.4619 0.4637
1366.000000 0.4645 0.4652 0.4659 0.4662 0.4664
1361.000000 0.4666 0.4687 0.4662 0.4649 0.4637
1356.000000 0.4620 0.4601 0.4582 0.4564 0.4514
1351.000000 0.4464 0.4418 0.4373 0.4326 0.4291
1346.000000 0.4274 0.4274 0.4268 0.4266 0.4265
1341.000000 0.4270 0.4276 0.4289 0.4302 0.4315
1336.000000 0.4328 0.4342 0.4356 0.4369 0.4383
1331.000000 0.4397 0.4410 0.4422 0.4432 0.4433
1326.000000 0.4433 0.4432 0.4431 0.4426 0.4412
1321.000000 0.4398 0.4373 0.4344 0.4283 0.4217
1316.000000 0.4141 0.4055 0.3955 0.3850 0.3564
1311.000000 0.3356 0.3121 0.2885 0.2651 0.2415
1306.000000 0.2180 0.1944 0.1710 0.1474 0.1239
1301.000000 0.1004 0.0821 0.0801 0.0769 0.0804
1296.000000 0.0838 0.0872 0.0952 0.1005 0.1187
1291.000000 0.1380 0.1573 0.1766 0.1960 0.2153
1286.000000 0.2346 0.2539 0.2733 0.2926 0.3062
1281.000000 0.3144 0.3368 0.3544 0.3694 0.3804
1276.000000 0.3914 0.3994 0.4070 0.4146 0.4220
1271.000000 0.4284 0.4349 0.4414 0.4478 0.4540
1266.000000 0.4590 0.4639 0.4689 0.4738 0.4786
1261.000000 0.4832 0.4877 0.4923 0.4969 0.5015
1256.000000 0.5060 0.5103 0.5143 0.5183 0.5223
1251.000000 0.5262 0.5303 0.5343 0.5383 0.5431
1246.000000 0.5478 0.5526 0.5574 0.5622 0.5669
1241.000000 0.5709 0.5749 0.5789 0.5829 0.5869
1236.000000 0.5909 0.5949 0.5981 0.6010 0.6040
1231.000000 0.6070 0.6099 0.6129 0.6159 0.6188
1226.000000 0.6218 0.6247 0.6276 0.6304 0.6333
1221.000000 0.6360 0.6390 0.6418 0.6447 0.6475
1216.000000 0.6504 0.6532 0.6558 0.6586 0.6612
1211.000000 0.6640 0.6665 0.6689 0.6711 0.6735
1206.000000 0.6757 0.6780 0.6803 0.6826 0.6851
1201.000000 0.6876 0.6903 0.6928 0.6953 0.6978
1196.000000 0.7006 0.7032 0.7056 0.7071 0.7086
1191.000000 0.7099 0.7105 0.7111 0.7117 0.7122
1186.000000 0.7126 0.7125 0.7124 0.7121 0.7119
1181.000000 0.7142 0.7117 0.7119 0.7121 0.7122
1176.000000 0.7117 0.7111 0.7107 0.7101 0.7091
1171.000000 0.7080 0.7061 0.7043 0.7025 0.7006
1166.000000 0.6974 0.6942 0.6911 0.6875 0.6831
1161.000000 0.6788 0.6711 0.6618 0.6517 0.6415
1156.000000 0.6289 0.6147 0.5980 0.5791 0.5096
1151.000000 0.4684 0.4318 0.3952 0.3586 0.3220
1146.000000 0.2854 0.2488 0.2122 0.1751 0.1746
1141.000000 0.1715 0.1952 0.2191 0.2429 0.2667
1136.000000 0.2906 0.3144 0.3382 0.3620 0.3859
1131.000000 0.4097 0.4335 0.4574 0.4812 0.5062
1126.000000 0.5316 0.5480 0.5645 0.5773 0.5875
1121.000000 0.5976 0.6077 0.6193 0.6318 0.6443
1116.000000 0.6528 0.6611 0.6693 0.6775 0.6838
1111.000000 0.6901 0.6962 0.7025 0.7082 0.7137
1106.000000 0.7192 0.7248 0.7300 0.7346 0.7391
1101.000000 0.7437 0.7472 0.7503 0.7533 0.7562
1096.000000 0.7592 0.7612 0.7634 0.7655 0.7675
1091.000000 0.7695 0.7715 0.7735 0.7748 0.7758
1086.000000 0.7771 0.7781 0.7790 0.7798 0.7804
1081.000000 0.7808 0.7797 0.7797 0.7797 0.7781
1076.000000 0.7757 0.7701 0.7578 0.7476 0.7339
1071.000000 0.7255 0.4637 0.4637 0.4638 0.4899
1066.000000 0.5218 0.5537 0.5856 0.6175 0.6494
1061.000000 0.6812 0.7095 0.7267 0.7389 0.7485
1056.000000 0.7581 0.7672 0.7762 0.7854 0.7946
1051.000000 0.8037 0.8121 0.8200 0.8246 0.8292
1046.000000 0.8325 0.8348 0.8371 0.8394 0.8416
1041.000000 0.8438 0.8458 0.8478 0.8491 0.8500
1036.000000 0.8509 0.8518 0.8527 0.8535 0.8544
1031.000000 0.8552 0.8559 0.8567 0.8573 0.8578
1026.000000 0.8584 0.8599 0.8600 0.8600 0.8605
1021.000000 0.8593 0.8577 0.8510 0.8436 0.8411
1016.000000 0.8403 0.8387 0.8368 0.8352 0.8266
1011.000000 0.8114 0.7961 0.7808 0.7656 0.7503
1006.000000 0.7350 0.7256 0.7256 0.7256 0.7421
1001.000000 0.7588 0.7755 0.7921 0.8088 0.8238
996.000000 0.8321 0.8403 0.8459 0.8508 0.8556
991.000000 0.8605 0.8637 0.8666 0.8695 0.8713
986.000000 0.8731 0.8748 0.8751 0.8755 0.8757
981.000000 0.8751 0.8746 0.8740 0.8734 0.8728
976.000000 0.8725 0.8725 0.8725 0.8725 0.8725
971.000000 0.8725 0.8725 0.8725 0.8728 0.8733
966.000000 0.8737 0.8741 0.8745 0.8749 0.8753
961.000000 0.8760 0.8768 0.8775 0.8784 0.8791
956.000000 0.8799 0.8807 0.8815 0.8821 0.8827
951.000000 0.8832 0.8838 0.8843 0.8849 0.8855
946.000000 0.8860 0.8866 0.8871 0.8871 0.8874
941.000000 0.8875 0.8875 0.8878 0.8878 0.8880
936.000000 0.8881 0.8883 0.8884 0.8885 0.8887
931.000000 0.8888 0.8889 0.8890 0.8891 0.8892
926.000000 0.8892 0.8893 0.8894 0.8895 0.8896
921.000000 0.8894 0.8893 0.8891 0.8889 0.8887
916.000000 0.8886 0.8883 0.8880 0.8877 0.8874
911.000000 0.8871 0.8867 0.8864 0.8861 0.8856
906.000000 0.8849 0.8842 0.8835 0.8828 0.8820
901.000000 0.8813 0.8806 0.8800 0.8795 0.8791
896.000000 0.8786 0.8782 0.8781 0.8780 0.8778
891.000000 0.8777 0.8775 0.8775 0.8775 0.8775
886.000000 0.8775 0.8775 0.8775 0.8780 0.8783
881.000000 0.8784 0.8785 0.8784 0.8778 0.8773
876.000000 0.8768 0.8763 0.8754 0.8746 0.8737
871.000000 0.8728 0.8720 0.8712 0.8704 0.8695
866.000000 0.8684 0.8670 0.8656 0.8642 0.8628
861.000000 0.8614 0.8600 0.8580 0.8557 0.8534
856.000000 0.8510 0.8487 0.8462 0.8427 0.8393
851.000000 0.8358 0.8323 0.8289 0.8242 0.8190
846.000000 0.8137 0.8085 0.8015 0.7943 0.7869
841.000000 0.7783 0.7675 0.7581 0.7497 0.7412
836.000000 0.7321 0.7218 0.7117 0.6992 0.6810
831.000000 0.6674 0.6392 0.6108 0.5824 0.5540
826.000000 0.5255 0.4971 0.4687 0.4540 0.4562
821.000000 0.4569 0.4654 0.4855 0.5057 0.5258
816.000000 0.5460 0.5660 0.5862 0.6064 0.6266
811.000000 0.6467 0.6668 0.6869 0.7071 0.7272
806.000000 0.7475 0.7676 0.7832 0.7912 0.7967
801.000000 0.8015 0.8061 0.8085 0.8095 0.8105
796.000000 0.8101 0.8110 0.8110 0.8107 0.8099
791.000000 0.8092 0.8084 0.8075 0.8068 0.8061
786.000000 0.8053 0.8042 0.8030 0.8018 0.8006
781.000000 0.7994 0.7982 0.7969 0.7958 0.7947
776.000000 0.7933 0.7919 0.7906 0.7892 0.7878
771.000000 0.7862 0.7844 0.7824 0.7804 0.7784
766.000000 0.7765 0.7745 0.7724 0.7701 0.7680
761.000000 0.7658 0.7636 0.7614 0.7593 0.7571
756.000000 0.7545 0.7519 0.7495 0.7468 0.7444
751.000000 0.7418 0.7378 0.7336 0.7294 0.7251
746.000000 0.7210 0.7168 0.7111 0.7053 0.6995
741.000000 0.6936 0.6875 0.6811 0.6748 0.6684
736.000000 0.6555 0.6411 0.6304 0.6210 0.6118
731.000000 0.6026 0.5952 0.5877 0.5803 0.5727
726.000000 0.5645 0.5562 0.5481 0.5332 0.5174
721.000000 0.5081 0.5053 0.5045 0.5036 0.5025
716.000000 0.5014 0.5007 0.4998 0.4970 0.4943
711.000000 0.4916 0.4889 0.4862 0.4836 0.4809
706.000000 0.4782 0.4755 0.4728 0.4701 0.4674
701.000000 0.4647 0.4620 0.4593 0.4566 0.4539
696.000000 0.4512 0.4485 0.4458 0.4431 0.4404
691.000000 0.4377 0.4350 0.4324 0.4297 0.4270
686.000000 0.4243 0.4216 0.4189 0.4162 0.4135
681.000000 0.4108 0.4080 0.4054 0.4027 0.4000
676.000000 0.3973 0.3946 0.3924 0.3905 0.3887
671.000000 0.3868 0.3849 0.3827 0.3799 0.3771
666.000000 0.3743 0.3714 0.3680 0.3643 0.3605
661.000000 0.3566 0.3529 0.3502 0.3475 0.3449
656.000000 0.3422 0.3395 0.3373 0.3368 0.3362
651.000000 0.3360 0.3360 0.3362 0.3364 0.3366
646.000000 0.3368 0.3373 0.3384 0.3396 0.3414
641.000000 0.3444 0.3474 0.3514 0.3587 0.3659
636.000000 0.3732 0.3800 0.3864 0.3928 0.3992
631.000000 0.4066 0.4151 0.4236 0.4323 0.4410
626.000000 0.4497 0.4609 0.4731 0.4840 0.4931
621.000000 0.5022 0.5112 0.5224 0.5362 0.5501
616.000000 0.5597 0.5680 0.5762 0.5844 0.5927
611.000000 0.6012 0.6097 0.6182 0.6262 0.6342
606.000000 0.6421 0.6500 0.6578 0.6642 0.6701
601.000000 0.6760 0.6818 0.6876 0.6918 0.6960
596.000000 0.6999 0.7028 0.7058 0.7087 0.7117
591.000000 0.7155 0.7191 0.7218 0.7231 0.7237
586.000000 0.7242 0.7248 0.7254 0.7289 0.7348
581.000000 0.7401 0.7450 0.7498 0.7546 0.7590
576.000000 0.7635 0.7678 0.7724 0.7768 0.7824
571.000000 0.7882 0.7944 0.8006 0.8068 0.8131
566.000000 0.8193 0.8255 0.8318 0.8380 0.8442
561.000000 0.8504 0.8567 0.8628 0.8691 0.8753
556.000000 0.8816 0.8878 0.8940 0.9002 0.9065
551.000000 0.9127 0.9178 0.9212 0.9245 0.9278
546.000000 0.9311 0.9345 0.9380 0.9421 0.9461
541.000000 0.9502 0.9543 0.9578 0.9608 0.9638
536.000000 0.9667 0.9697 0.9725 0.9751 0.9778
531.000000 0.9804 0.9830 0.9843 0.9854 0.9865
526.000000 0.9875 0.9887 0.9901 0.9914 0.9928
521.000000 0.9945 0.9958 0.9960 0.9961 0.9973
516.000000 0.9958 0.9955 0.9951 0.9941 0.9930
511.000000 0.9918 0.9900 0.9882 0.9863 0.9845
506.000000 0.9824 0.9795 0.9766 0.9738 0.9709
501.000000 0.9671 0.9631 0.9591 0.9550 0.9510
496.000000 0.9454 0.9394 0.9334 0.9168 0.8690
491.000000 0.8278 0.7868 0.7457 0.7045 0.6634
486.000000 0.6223 0.5812 0.5409 0.5402 0.5377
481.000000 0.5429 0.5479 0.5634 0.5934 0.6234
476.000000 0.6533 0.6833 0.7133 0.7433 0.7732
471.000000 0.8032 0.8189 0.8281 0.8391 0.8545
466.000000 0.8658 0.8754 0.8814 0.8868 0.8925
461.000000 0.8983 0.9051 0.9102 0.9128 0.9150
456.000000 0.9158 0.9166 0.9174 0.9182 0.9166
451.000000 0.9194
##END=
