##TITLE=2-PROPENAMIDE, 2-METHYL-
##JCAMP-DX=4.24
##DATA TYPE=INFRARED SPECTRUM
##CLASS=COBLENTZ III
##ORIGIN=DOW CORNING CORP.
##OWNER=COBLENTZ SOCIETY
Collection (C) 2018 copyright by the U.S. Secretary of Commerce
on behalf of the United States of America. All rights reserved.
##DATE=1965/10/08
##NAMES=2-methylacrylamide
METHACRYLAMIDE
##CAS REGISTRY NO=79-39-0
##MOLFORM=C4 H7 N O
##SOURCE REFERENCE=COBLENTZ NO. 4286
##$NIST SOURCE=COBLENTZ
##$NIST IMAGE=cob4286
##SPECTROMETER/DATA SYSTEM=PERKIN-ELMER 521 (GRATING)
##INSTRUMENT PARAMETERS=FILTERS AT 3150, 2500, 2000, 1150, 700, 410; GRATING CHANGES AT 2000, 630 CM^-^1
##STATE=SOLID (SPLIT MULL, FLUOROLUBE FOR 3800-1300 AND NUJOL FOR 1300-250 CM ^-^1)
##SAMPLING PROCEDURE=TRANSMISSION
##RESOLUTION=4
##DATA PROCESSING=DIGITIZED BY NIST FROM HARD COPY (FROM TWO SEGMENTS)
##XUNITS=1/CM
##YUNITS=TRANSMITTANCE
##XFACTOR=1.000000
##YFACTOR=1
##DELTAX=1.025644
##FIRSTX=247.179
##LASTX=3798.99
##FIRSTY=0.682
##MAXX=3798.99
##MINX=247.179
##MAXY=0.968
##MINY=0.026
##NPOINTS=3464
##XYDATA=(X++(Y..Y))
247.179000 0.6820 0.6890 0.6910 0.6920 0.6960
252.307222 0.7100 0.7200 0.7240 0.7240 0.7399
257.435443 0.7470 0.7580 0.7610 0.7660 0.7760
262.563665 0.7939 0.7970 0.8010 0.8109 0.8130
267.691887 0.8170 0.8220 0.8310 0.8330 0.8350
272.820108 0.8420 0.8440 0.8460 0.8490 0.8510
277.948330 0.8520 0.8550 0.8560 0.8560 0.8570
283.076552 0.8570 0.8590 0.8590 0.8590 0.8600
288.204774 0.8600 0.8600 0.8590 0.8570 0.8530
293.332995 0.8510 0.8490 0.8410 0.8370 0.8310
298.461217 0.8230 0.8040 0.7870 0.7830 0.7750
303.589439 0.7511 0.7331 0.7221 0.6971 0.6602
308.717660 0.6400 0.6270 0.6110 0.6000 0.5900
313.845882 0.5880 0.5900 0.5930 0.6010 0.6080
318.974104 0.6240 0.6340 0.6620 0.6920 0.7070
324.102325 0.7240 0.7459 0.7609 0.7939 0.8129
329.230547 0.8280 0.8410 0.8520 0.8700 0.8750
334.358769 0.8800 0.8890 0.8930 0.9000 0.9060
339.486990 0.9110 0.9130 0.9140 0.9140 0.9140
344.615212 0.9140 0.9140 0.9130 0.9130 0.9110
349.743434 0.9110 0.9110 0.9130 0.9170 0.9180
354.871655 0.9200 0.9240 0.9260 0.9290 0.9350
359.999877 0.9420 0.9470 0.9540 0.9570 0.9610
365.128099 0.9620 0.9640 0.9650 0.9650 0.9660
370.256321 0.9660 0.9680 0.9680 0.9680 0.9660
375.384542 0.9660 0.9660 0.9660 0.9650 0.9650
380.512764 0.9650 0.9660 0.9650 0.9650 0.9640
385.640986 0.9610 0.9610 0.9580 0.9580 0.9570
390.769207 0.9570 0.9570 0.9550 0.9540 0.9500
395.897429 0.9480 0.9470 0.9440 0.9420 0.9370
401.025651 0.9290 0.9220 0.9200 0.9170 0.9150
406.153872 0.9140 0.9140 0.9150 0.9170 0.9200
411.282094 0.9220 0.9290 0.9310 0.9320 0.9350
416.410316 0.9370 0.9400 0.9440 0.9510 0.9530
421.538537 0.9550 0.9570 0.9580 0.9600 0.9610
426.666759 0.9620 0.9620 0.9640 0.9650 0.9650
431.794981 0.9660 0.9660 0.9660 0.9660 0.9660
436.923203 0.9660 0.9660 0.9660 0.9660 0.9660
442.051424 0.9660 0.9660 0.9650 0.9650 0.9640
447.179646 0.9640 0.9640 0.9640 0.9620 0.9620
452.307868 0.9620 0.9620 0.9610 0.9600 0.9600
457.436089 0.9580 0.9570 0.9570 0.9550 0.9540
462.564311 0.9530 0.9530 0.9530 0.9510 0.9510
467.692533 0.9500 0.9480 0.9470 0.9470 0.9470
472.820754 0.9460 0.9460 0.9440 0.9440 0.9440
477.948976 0.9430 0.9430 0.9420 0.9420 0.9420
483.077198 0.9420 0.9420 0.9400 0.9400 0.9400
488.205419 0.9390 0.9370 0.9350 0.9320 0.9310
493.333641 0.9310 0.9290 0.9260 0.9250 0.9240
498.461863 0.9220 0.9210 0.9170 0.9110 0.9080
503.590085 0.9060 0.8970 0.8910 0.8890 0.8750
508.718306 0.8700 0.8570 0.8381 0.8310 0.8041
513.846528 0.7830 0.7640 0.7320 0.7080 0.6910
518.974750 0.6740 0.6620 0.6620 0.6670 0.6740
524.102971 0.6810 0.6890 0.7070 0.7220 0.7439
529.231193 0.7610 0.7759 0.7939 0.8129 0.8200
534.359415 0.8280 0.8340 0.8370 0.8380 0.8380
539.487636 0.8380 0.8370 0.8350 0.8340 0.8330
544.615858 0.8310 0.8280 0.8270 0.8270 0.8230
549.744080 0.8230 0.8150 0.8110 0.8050 0.7970
554.872301 0.7930 0.7860 0.7830 0.7760 0.7650
560.000523 0.7600 0.7441 0.7171 0.7080 0.6772
565.128745 0.6440 0.6010 0.5730 0.5680 0.5680
570.256966 0.5870 0.5930 0.5930 0.5731 0.5501
575.385188 0.5250 0.5140 0.5040 0.4950 0.4950
580.513410 0.5070 0.5180 0.5290 0.5429 0.5430
585.641632 0.5370 0.5350 0.5330 0.5240 0.5150
590.769853 0.5130 0.5000 0.4950 0.4860 0.4770
595.898075 0.4670 0.4640 0.4490 0.4440 0.4350
601.026297 0.4260 0.4150 0.4040 0.3970 0.3950
606.154518 0.3820 0.3800 0.3770 0.3710 0.3610
611.282740 0.3540 0.3460 0.3420 0.3370 0.3290
616.410962 0.3210 0.3200 0.3140 0.3100 0.3080
621.539183 0.3060 0.3030 0.2990 0.2950 0.2920
626.667405 0.2910 0.2880 0.2860 0.2880 0.2890
631.795627 0.2920 0.2950 0.2970 0.2990 0.3000
636.923848 0.3060 0.3070 0.3080 0.3080 0.3100
642.052070 0.3100 0.3110 0.3130 0.3140 0.3150
647.180292 0.3180 0.3200 0.3240 0.3320 0.3430
652.308514 0.3550 0.3650 0.3690 0.3790 0.3840
657.436735 0.3860 0.3880 0.3930 0.3950 0.3980
662.564957 0.4050 0.4080 0.4110 0.4130 0.4150
667.693179 0.4170 0.4190 0.4190 0.4200 0.4230
672.821400 0.4280 0.4340 0.4350 0.4370 0.4460
677.949622 0.4530 0.4560 0.4570 0.4590 0.4640
683.077844 0.4670 0.4710 0.4750 0.4780 0.4880
688.206065 0.4910 0.4990 0.5000 0.5100 0.5130
693.334287 0.5220 0.5250 0.5290 0.5350 0.5370
698.462509 0.5500 0.5570 0.5610 0.5650 0.5690
703.590730 0.5730 0.5760 0.5790 0.5870 0.5910
708.718952 0.5930 0.5980 0.6020 0.6050 0.6080
713.847174 0.6080 0.6090 0.6090 0.6090 0.6090
718.975396 0.6090 0.6090 0.6110 0.6160 0.6160
724.103617 0.6190 0.6260 0.6270 0.6300 0.6310
729.231839 0.6370 0.6400 0.6420 0.6440 0.6440
734.360061 0.6450 0.6450 0.6460 0.6480 0.6490
739.488282 0.6510 0.6520 0.6530 0.6550 0.6560
744.616504 0.6560 0.6570 0.6570 0.6600 0.6600
749.744726 0.6620 0.6630 0.6640 0.6700 0.6730
754.872947 0.6740 0.6750 0.6770 0.6770 0.6800
760.001169 0.6800 0.6780 0.6770 0.6770 0.6750
765.129391 0.6680 0.6630 0.6600 0.6460 0.6380
770.257612 0.6300 0.6040 0.5720 0.5620 0.5510
775.385834 0.5390 0.5180 0.5130 0.5000 0.4910
780.514056 0.4780 0.4750 0.4800 0.4990 0.5170
785.642277 0.5759 0.6159 0.6369 0.6619 0.6799
790.770499 0.6990 0.7180 0.7420 0.7600 0.7660
795.898721 0.7800 0.7930 0.7950 0.8109 0.8150
801.026943 0.8220 0.8230 0.8190 0.8160 0.8120
806.155164 0.8080 0.8000 0.7940 0.7761 0.7571
811.283386 0.7100 0.6820 0.6280 0.5900 0.5820
816.411608 0.5750 0.5620 0.5440 0.5261 0.5031
821.539829 0.4880 0.4710 0.4560 0.4560 0.4640
826.668051 0.4730 0.4770 0.5129 0.5718 0.6078
831.796273 0.6450 0.6840 0.6970 0.7150 0.7370
836.924494 0.7480 0.7640 0.7750 0.7820 0.7870
842.052716 0.7940 0.8040 0.8170 0.8220 0.8240
847.180938 0.8300 0.8330 0.8340 0.8370 0.8380
852.309159 0.8420 0.8460 0.8490 0.8520 0.8530
857.437381 0.8550 0.8560 0.8570 0.8570 0.8590
862.565603 0.8590 0.8560 0.8560 0.8560 0.8570
867.693825 0.8570 0.8590 0.8590 0.8590 0.8590
872.822046 0.8570 0.8560 0.8560 0.8560 0.8570
877.950268 0.8570 0.8590 0.8590 0.8590 0.8590
883.078490 0.8590 0.8590 0.8570 0.8560 0.8530
888.206711 0.8510 0.8490 0.8480 0.8480 0.8480
893.334933 0.8480 0.8460 0.8460 0.8460 0.8460
898.463155 0.8460 0.8460 0.8460 0.8460 0.8460
903.591376 0.8450 0.8440 0.8420 0.8420 0.8410
908.719598 0.8410 0.8400 0.8370 0.8340 0.8280
913.847820 0.8230 0.8170 0.8130 0.8110 0.8050
918.976041 0.7940 0.7860 0.7770 0.7610 0.7461
924.104263 0.7059 0.6350 0.6040 0.5650 0.5260
929.232485 0.4132 0.3082 0.2083 0.2050 0.2050
934.360706 0.2060 0.2090 0.2160 0.2270 0.2440
939.488928 0.2680 0.3109 0.3768 0.4368 0.4988
944.617150 0.5142 0.5881 0.6330 0.6840 0.7070
949.745372 0.7100 0.7080 0.6990 0.6850 0.6700
954.873593 0.6700 0.6780 0.6840 0.6970 0.7420
960.001815 0.7570 0.7750 0.7830 0.7940 0.7950
965.130037 0.7980 0.8010 0.8020 0.8050 0.8060
970.258258 0.8060 0.8080 0.8090 0.8110 0.8110
975.386480 0.8130 0.8170 0.8200 0.8220 0.8230
980.514702 0.8230 0.8240 0.8260 0.8260 0.8260
985.642923 0.8260 0.8260 0.8240 0.8220 0.8170
990.771145 0.8150 0.8120 0.8110 0.8040 0.8010
995.899367 0.8000 0.7980 0.7950 0.7930 0.7910
1001.027588 0.7800 0.7650 0.7540 0.7360 0.7081
1006.155810 0.6929 0.6620 0.6300 0.6300 0.6330
1011.284032 0.6330 0.6310 0.6300 0.6240 0.6240
1016.412254 0.6330 0.6480 0.6770 0.7250 0.7510
1021.540475 0.7800 0.8020 0.8170 0.8200 0.8260
1026.668697 0.8300 0.8310 0.8310 0.8310 0.8310
1031.796919 0.8300 0.8300 0.8300 0.8280 0.8280
1036.925140 0.8270 0.8270 0.8260 0.8240 0.8230
1042.053362 0.8230 0.8230 0.8240 0.8240 0.8240
1047.181584 0.8240 0.8230 0.8230 0.8200 0.8170
1052.309805 0.8160 0.8160 0.8130 0.8120 0.8110
1057.438027 0.8090 0.8050 0.8020 0.8020 0.8000
1062.566249 0.7980 0.7950 0.7940 0.7930 0.7830
1067.694470 0.7820 0.7800 0.7790 0.7770 0.7710
1072.822692 0.7600 0.7570 0.7550 0.7500 0.7420
1077.950914 0.7360 0.7320 0.7240 0.7140 0.7070
1083.079136 0.6950 0.6850 0.6730 0.6570 0.6530
1088.207357 0.6450 0.6330 0.6129 0.5600 0.5470
1093.335579 0.5330 0.5070 0.4820 0.4561 0.4311
1098.463801 0.4050 0.3948 0.1950 0.1820 0.1750
1103.592022 0.1420 0.1320 0.1320 0.1350 0.1460
1108.720244 0.1610 0.1801 0.2200 0.2330 0.2670
1113.848466 0.2990 0.3280 0.3619 0.4039 0.4269
1118.976687 0.4621 0.5062 0.6020 0.6090 0.6310
1124.104909 0.6530 0.6590 0.6750 0.6890 0.6930
1129.233131 0.7070 0.7150 0.7170 0.7180 0.7180
1134.361352 0.7180 0.7180 0.7200 0.7200 0.7200
1139.489574 0.7210 0.7210 0.7200 0.7200 0.7180
1144.617796 0.7170 0.7140 0.7100 0.7070 0.7040
1149.746017 0.7040 0.7020 0.7020 0.7000 0.6990
1154.874239 0.6970 0.6950 0.6910 0.6850 0.6820
1160.002461 0.6770 0.6730 0.6680 0.6660 0.6640
1165.130683 0.6620 0.6590 0.6570 0.6560 0.6550
1170.258904 0.6530 0.6530 0.6520 0.6510 0.6490
1175.387126 0.6460 0.6450 0.6440 0.6440 0.6410
1180.515348 0.6400 0.6400 0.6400 0.6400 0.6380
1185.643569 0.6350 0.6310 0.6300 0.6280 0.6170
1190.771791 0.6160 0.6150 0.6130 0.6060 0.6040
1195.900013 0.6010 0.5970 0.5950 0.5930 0.5900
1201.028234 0.5870 0.5860 0.5840 0.5820 0.5790
1206.156456 0.5730 0.5690 0.5660 0.5610 0.5600
1211.284678 0.5540 0.5480 0.5420 0.5390 0.5330
1216.412899 0.5250 0.5130 0.5060 0.4990 0.4860
1221.541121 0.4729 0.4550 0.4380 0.4130 0.3870
1226.669343 0.3550 0.3280 0.2771 0.2121 0.1641
1231.797565 0.1500 0.1480 0.1500 0.1620 0.1870
1236.925786 0.2060 0.2270 0.2729 0.3069 0.3569
1242.054008 0.3861 0.4130 0.4340 0.4560 0.4880
1247.182230 0.5000 0.5130 0.5220 0.5350 0.5370
1252.310451 0.5430 0.5510 0.5540 0.5550 0.5580
1257.438673 0.5600 0.5600 0.5600 0.5600 0.5600
1262.566895 0.5580 0.5580 0.5550 0.5540 0.5530
1267.695116 0.5530 0.5510 0.5510 0.5500 0.5500
1272.823338 0.5500 0.5500 0.5480 0.5480 0.5480
1277.951560 0.5460 0.5460 0.5440 0.5430 0.5430
1283.079781 0.5420 0.5420 0.5420 0.5420 0.5420
1288.208003 0.5420 0.5400 0.5400 0.5400 0.5400
1293.336225 0.5420 0.5430 0.5460 0.5510 0.5550
1298.464447 0.5640 0.5690 0.5720 0.5730 0.5750
1303.592668 0.5770 0.5800 0.5820 0.5830 0.5840
1308.720890 0.5840 0.5860 0.5860 0.5860 0.5860
1313.849112 0.5860 0.5860 0.5860 0.5860 0.5860
1318.977333 0.5840 0.5830 0.5830 0.5820 0.5820
1324.105555 0.5800 0.5790 0.5770 0.5760 0.5750
1329.233777 0.5730 0.5710 0.5680 0.5650 0.5620
1334.361998 0.5610 0.5510 0.5500 0.5470 0.5430
1339.490220 0.5390 0.5350 0.5260 0.5240 0.5240
1344.618442 0.5220 0.5220 0.5240 0.5240 0.5250
1349.746663 0.5260 0.5260 0.5250 0.5240 0.5220
1354.874885 0.5180 0.5140 0.5100 0.5060 0.5020
1360.003107 0.4810 0.4750 0.4560 0.4460 0.4131
1365.131328 0.3709 0.3258 0.2590 0.2410 0.2410
1370.259550 0.2660 0.2930 0.3220 0.3470 0.3710
1375.387772 0.3710 0.3710 0.3690 0.3580 0.3430
1380.515994 0.3100 0.2810 0.2460 0.2450 0.2460
1385.644215 0.2550 0.2661 0.2890 0.3140 0.3280
1390.772437 0.3530 0.3530 0.3510 0.3440 0.3370
1395.900659 0.3220 0.3139 0.2909 0.2619 0.2200
1401.028880 0.1950 0.1730 0.1620 0.1530 0.1510
1406.157102 0.1530 0.1550 0.1580 0.1660 0.1820
1411.285324 0.1880 0.1970 0.2040 0.2090 0.2160
1416.413545 0.2170 0.2190 0.2200 0.2270 0.2530
1421.541767 0.2800 0.2930 0.3140 0.3200 0.3260
1426.669989 0.3290 0.3320 0.3390 0.3510 0.3600
1431.798210 0.3710 0.3770 0.3870 0.4000 0.4160
1436.926432 0.4280 0.4380 0.4490 0.4520 0.4520
1442.054654 0.4490 0.4460 0.4450 0.4350 0.4051
1447.182876 0.3970 0.3869 0.3469 0.3060 0.2800
1452.311097 0.2460 0.2460 0.2590 0.2660 0.2780
1457.439319 0.2850 0.2971 0.3221 0.3540 0.3830
1462.567541 0.4040 0.4230 0.4350 0.4450 0.4640
1467.695762 0.4851 0.4990 0.5080 0.5210 0.5290
1472.823984 0.5510 0.5650 0.5720 0.5760 0.5870
1477.952206 0.6050 0.6090 0.6130 0.6170 0.6230
1483.080427 0.6300 0.6370 0.6380 0.6410 0.6420
1488.208649 0.6440 0.6440 0.6450 0.6450 0.6460
1493.336871 0.6460 0.6460 0.6460 0.6460 0.6450
1498.465092 0.6450 0.6440 0.6410 0.6400 0.6400
1503.593314 0.6380 0.6370 0.6350 0.6310 0.6300
1508.721536 0.6270 0.6230 0.6190 0.6190 0.6170
1513.849757 0.6170 0.6170 0.6170 0.6160 0.6160
1518.977979 0.6150 0.6130 0.6090 0.6040 0.6010
1524.106201 0.5980 0.5970 0.5950 0.5930 0.5900
1529.234423 0.5870 0.5860 0.5800 0.5750 0.5730
1534.362644 0.5720 0.5660 0.5610 0.5500 0.5480
1539.490866 0.5470 0.5470 0.5430 0.5360 0.5350
1544.619088 0.5290 0.5260 0.5220 0.5150 0.5100
1549.747309 0.5080 0.5060 0.5020 0.5000 0.4990
1554.875531 0.4950 0.4890 0.4820 0.4780 0.4750
1560.003753 0.4750 0.4700 0.4670 0.4620 0.4590
1565.131974 0.4550 0.4450 0.4440 0.4340 0.4270
1570.260196 0.4240 0.4119 0.3970 0.3870 0.3840
1575.388418 0.3760 0.3680 0.3620 0.3600 0.3550
1580.516639 0.3390 0.3330 0.3240 0.3140 0.2970
1585.644861 0.2800 0.2550 0.2310 0.2170 0.1871
1590.773083 0.1679 0.1419 0.1070 0.1000 0.0920
1595.901305 0.0740 0.0590 0.0450 0.0370 0.0330
1601.029526 0.0270 0.0260 0.0260 0.0270 0.0280
1606.157748 0.0330 0.0380 0.0460 0.0600 0.1019
1611.285970 0.1421 0.1571 0.1881 0.2081 0.2381
1616.414191 0.2770 0.2920 0.3020 0.3110 0.3110
1621.542413 0.3100 0.3070 0.3060 0.3000 0.2930
1626.670635 0.2860 0.2820 0.2800 0.2740 0.2630
1631.798856 0.2600 0.2560 0.2490 0.2480 0.2400
1636.927078 0.2270 0.2160 0.2090 0.1820 0.1710
1642.055300 0.1570 0.1550 0.1550 0.1570 0.1580
1647.183521 0.1600 0.1570 0.1500 0.1470 0.1360
1652.311743 0.1209 0.1070 0.1030 0.0970 0.0850
1657.439965 0.0770 0.0600 0.0520 0.0460 0.0440
1662.568187 0.0440 0.0450 0.0460 0.0490 0.0510
1667.696408 0.0550 0.0600 0.0620 0.0680 0.0810
1672.824630 0.0991 0.1240 0.1280 0.1430 0.1550
1677.952852 0.1660 0.1830 0.2010 0.2110 0.2260
1683.081073 0.2371 0.2551 0.2770 0.2920 0.2990
1688.209295 0.3150 0.3260 0.3510 0.3580 0.3820
1693.337517 0.3881 0.4000 0.4090 0.4240 0.4350
1698.465738 0.4420 0.4660 0.4910 0.5020 0.5130
1703.593960 0.5251 0.5610 0.5730 0.5770 0.5900
1708.722182 0.6020 0.6160 0.6280 0.6310 0.6440
1713.850403 0.6490 0.6600 0.6630 0.6670 0.6780
1718.978625 0.6890 0.6910 0.6930 0.7080 0.7110
1724.106847 0.7130 0.7150 0.7240 0.7310 0.7390
1729.235068 0.7430 0.7460 0.7480 0.7580 0.7620
1734.363290 0.7650 0.7680 0.7730 0.7750 0.7770
1739.491512 0.7800 0.7820 0.7840 0.7880 0.7930
1744.619734 0.7930 0.7940 0.7950 0.7950 0.7950
1749.747955 0.7970 0.7980 0.8040 0.8080 0.8120
1754.876177 0.8120 0.8150 0.8160 0.8170 0.8190
1760.004399 0.8190 0.8200 0.8240 0.8300 0.8310
1765.132620 0.8310 0.8330 0.8340 0.8400 0.8420
1770.260842 0.8420 0.8450 0.8460 0.8480 0.8490
1775.389064 0.8490 0.8510 0.8510 0.8520 0.8530
1780.517285 0.8530 0.8530 0.8550 0.8550 0.8550
1785.645507 0.8550 0.8560 0.8560 0.8560 0.8560
1790.773729 0.8570 0.8590 0.8590 0.8600 0.8620
1795.901950 0.8630 0.8630 0.8630 0.8640 0.8640
1801.030172 0.8670 0.8670 0.8670 0.8670 0.8670
1806.158394 0.8680 0.8680 0.8680 0.8680 0.8680
1811.286616 0.8680 0.8680 0.8680 0.8680 0.8700
1816.414837 0.8710 0.8710 0.8710 0.8710 0.8710
1821.543059 0.8710 0.8710 0.8710 0.8700 0.8700
1826.671281 0.8700 0.8700 0.8700 0.8680 0.8680
1831.799502 0.8680 0.8700 0.8700 0.8700 0.8700
1836.927724 0.8700 0.8700 0.8700 0.8700 0.8680
1842.055946 0.8660 0.8660 0.8640 0.8630 0.8620
1847.184167 0.8620 0.8600 0.8600 0.8590 0.8570
1852.312389 0.8560 0.8550 0.8520 0.8490 0.8420
1857.440611 0.8380 0.8370 0.8340 0.8310 0.8200
1862.568832 0.8150 0.8120 0.8060 0.8050 0.8040
1867.697054 0.8040 0.8050 0.8080 0.8110 0.8230
1872.825276 0.8260 0.8280 0.8330 0.8340 0.8370
1877.953498 0.8380 0.8380 0.8380 0.8400 0.8400
1883.081719 0.8410 0.8410 0.8420 0.8450 0.8490
1888.209941 0.8510 0.8510 0.8520 0.8520 0.8550
1893.338163 0.8560 0.8560 0.8560 0.8560 0.8570
1898.466384 0.8590 0.8600 0.8620 0.8630 0.8630
1903.594606 0.8630 0.8640 0.8640 0.8640 0.8660
1908.722828 0.8660 0.8660 0.8660 0.8660 0.8660
1913.851049 0.8660 0.8660 0.8660 0.8660 0.8660
1918.979271 0.8660 0.8660 0.8660 0.8660 0.8660
1924.107493 0.8660 0.8640 0.8640 0.8640 0.8640
1929.235714 0.8640 0.8640 0.8640 0.8630 0.8630
1934.363936 0.8630 0.8630 0.8620 0.8620 0.8620
1939.492158 0.8620 0.8620 0.8620 0.8620 0.8600
1944.620379 0.8600 0.8600 0.8600 0.8600 0.8600
1949.748601 0.8600 0.8590 0.8590 0.8590 0.8590
1954.876823 0.8590 0.8590 0.8570 0.8570 0.8570
1960.005045 0.8570 0.8570 0.8570 0.8570 0.8570
1965.133266 0.8570 0.8570 0.8570 0.8570 0.8560
1970.261488 0.8560 0.8560 0.8550 0.8550 0.8550
1975.389710 0.8550 0.8550 0.8550 0.8560 0.8560
1980.517931 0.8560 0.8560 0.8560 0.8560 0.8550
1985.646153 0.8550 0.8550 0.8550 0.8550 0.8550
1990.774375 0.8550 0.8550 0.8530 0.8530 0.8520
1995.902596 0.8520 0.8520 0.8520 0.8520 0.8520
2001.030818 0.8525 0.8530 0.8545 0.8560 0.8576
2006.159040 0.8591 0.8611 0.8630 0.8635 0.8640
2011.287261 0.8640 0.8640 0.8640 0.8640 0.8640
2016.415483 0.8640 0.8640 0.8640 0.8640 0.8640
2021.543705 0.8640 0.8640 0.8640 0.8640 0.8640
2026.671927 0.8640 0.8640 0.8640 0.8640 0.8640
2031.800148 0.8640 0.8640 0.8640 0.8640 0.8640
2036.928370 0.8639 0.8634 0.8630 0.8630 0.8630
2042.056592 0.8630 0.8630 0.8630 0.8628 0.8623
2047.184813 0.8616 0.8606 0.8600 0.8600 0.8600
2052.313035 0.8600 0.8598 0.8593 0.8590 0.8590
2057.441257 0.8590 0.8590 0.8590 0.8590 0.8590
2062.569478 0.8590 0.8590 0.8590 0.8585 0.8575
2067.697700 0.8570 0.8570 0.8570 0.8570 0.8567
2072.825922 0.8562 0.8560 0.8560 0.8557 0.8552
2077.954143 0.8550 0.8550 0.8544 0.8534 0.8530
2083.082365 0.8530 0.8530 0.8530 0.8530 0.8530
2088.210587 0.8527 0.8522 0.8520 0.8520 0.8520
2093.338808 0.8520 0.8520 0.8520 0.8520 0.8520
2098.467030 0.8520 0.8520 0.8520 0.8520 0.8516
2103.595252 0.8511 0.8502 0.8492 0.8486 0.8481
2108.723474 0.8472 0.8462 0.8460 0.8460 0.8460
2113.851695 0.8460 0.8460 0.8460 0.8456 0.8451
2118.979917 0.8450 0.8450 0.8450 0.8450 0.8445
2124.108139 0.8440 0.8440 0.8440 0.8445 0.8450
2129.236360 0.8450 0.8450 0.8450 0.8450 0.8450
2134.364582 0.8450 0.8450 0.8450 0.8445 0.8440
2139.492804 0.8430 0.8420 0.8415 0.8410 0.8410
2144.621025 0.8410 0.8405 0.8400 0.8400 0.8398
2149.749247 0.8383 0.8368 0.8353 0.8339 0.8334
2154.877469 0.8330 0.8330 0.8328 0.8318 0.8309
2160.005690 0.8304 0.8300 0.8300 0.8297 0.8281
2165.133912 0.8269 0.8264 0.8257 0.8247 0.8239
2170.262134 0.8234 0.8230 0.8230 0.8230 0.8230
2175.390356 0.8230 0.8230 0.8228 0.8223 0.8217
2180.518577 0.8207 0.8195 0.8179 0.8170 0.8170
2185.646799 0.8166 0.8156 0.8146 0.8136 0.8130
2190.775021 0.8130 0.8128 0.8123 0.8118 0.8113
2195.903242 0.8110 0.8110 0.8110 0.8110 0.8105
2201.031464 0.8095 0.8090 0.8090 0.8087 0.8082
2206.159686 0.8080 0.8080 0.8080 0.8080 0.8080
2211.287907 0.8080 0.8080 0.8080 0.8080 0.8080
2216.416129 0.8074 0.8064 0.8060 0.8060 0.8066
2221.544351 0.8076 0.8083 0.8088 0.8090 0.8090
2226.672572 0.8090 0.8090 0.8086 0.8081 0.8080
2231.800794 0.8080 0.8080 0.8080 0.8080 0.8080
2236.929016 0.8080 0.8080 0.8080 0.8080 0.8080
2242.057238 0.8080 0.8072 0.8062 0.8060 0.8060
2247.185459 0.8060 0.8060 0.8060 0.8060 0.8060
2252.313681 0.8060 0.8060 0.8060 0.8060 0.8060
2257.441903 0.8060 0.8060 0.8060 0.8060 0.8060
2262.570124 0.8060 0.8060 0.8060 0.8060 0.8060
2267.698346 0.8055 0.8050 0.8050 0.8050 0.8045
2272.826568 0.8040 0.8040 0.8040 0.8040 0.8040
2277.954789 0.8040 0.8040 0.8040 0.8040 0.8040
2283.083011 0.8040 0.8040 0.8039 0.8028 0.8020
2288.211233 0.8020 0.8020 0.8020 0.8019 0.8014
2293.339454 0.8010 0.8010 0.8010 0.8010 0.8010
2298.467676 0.8010 0.8009 0.8004 0.8000 0.8000
2303.595898 0.8000 0.8000 0.8000 0.8000 0.7997
2308.724119 0.7987 0.7980 0.7980 0.7980 0.7980
2313.852341 0.7980 0.7980 0.7978 0.7973 0.7970
2318.980563 0.7970 0.7970 0.7970 0.7966 0.7956
2324.108785 0.7950 0.7950 0.7950 0.7950 0.7950
2329.237006 0.7950 0.7948 0.7943 0.7940 0.7940
2334.365228 0.7937 0.7932 0.7930 0.7930 0.7925
2339.493450 0.7915 0.7910 0.7910 0.7907 0.7902
2344.621671 0.7900 0.7900 0.7900 0.7900 0.7894
2349.749893 0.7884 0.7880 0.7880 0.7880 0.7880
2354.878115 0.7880 0.7880 0.7880 0.7880 0.7880
2360.006336 0.7880 0.7880 0.7880 0.7876 0.7871
2365.134558 0.7870 0.7870 0.7870 0.7870 0.7866
2370.262780 0.7861 0.7860 0.7860 0.7860 0.7860
2375.391001 0.7852 0.7842 0.7840 0.7840 0.7840
2380.519223 0.7840 0.7840 0.7840 0.7840 0.7840
2385.647445 0.7840 0.7840 0.7840 0.7840 0.7835
2390.775667 0.7830 0.7830 0.7830 0.7830 0.7830
2395.903888 0.7830 0.7830 0.7830 0.7830 0.7825
2401.032110 0.7820 0.7820 0.7820 0.7820 0.7820
2406.160332 0.7820 0.7819 0.7809 0.7800 0.7800
2411.288553 0.7800 0.7800 0.7800 0.7800 0.7800
2416.416775 0.7800 0.7800 0.7800 0.7800 0.7800
2421.544997 0.7800 0.7800 0.7800 0.7800 0.7800
2426.673218 0.7800 0.7802 0.7812 0.7820 0.7820
2431.801440 0.7818 0.7808 0.7796 0.7781 0.7770
2436.929662 0.7770 0.7769 0.7764 0.7759 0.7753
2442.057883 0.7750 0.7750 0.7747 0.7737 0.7727
2447.186105 0.7716 0.7710 0.7710 0.7704 0.7689
2452.314327 0.7680 0.7680 0.7676 0.7666 0.7660
2457.442549 0.7660 0.7658 0.7653 0.7650 0.7650
2462.570770 0.7652 0.7657 0.7665 0.7675 0.7680
2467.698992 0.7680 0.7683 0.7688 0.7695 0.7705
2472.827214 0.7710 0.7710 0.7710 0.7710 0.7710
2477.955435 0.7710 0.7710 0.7710 0.7710 0.7710
2483.083657 0.7710 0.7710 0.7710 0.7710 0.7704
2488.211879 0.7693 0.7690 0.7690 0.7690 0.7690
2493.340100 0.7686 0.7681 0.7680 0.7680 0.7680
2498.468322 0.7680 0.7680 0.7680 0.7672 0.7662
2503.596544 0.7660 0.7660 0.7660 0.7660 0.7660
2508.724765 0.7660 0.7660 0.7660 0.7660 0.7660
2513.852987 0.7660 0.7660 0.7660 0.7660 0.7660
2518.981209 0.7660 0.7660 0.7660 0.7655 0.7650
2524.109430 0.7645 0.7640 0.7640 0.7640 0.7640
2529.237652 0.7640 0.7640 0.7640 0.7640 0.7640
2534.365874 0.7640 0.7640 0.7640 0.7640 0.7645
2539.494096 0.7650 0.7650 0.7650 0.7650 0.7650
2544.622317 0.7645 0.7639 0.7629 0.7620 0.7620
2549.750539 0.7620 0.7620 0.7619 0.7614 0.7610
2554.878761 0.7610 0.7610 0.7610 0.7610 0.7610
2560.006982 0.7609 0.7604 0.7601 0.7606 0.7609
2565.135204 0.7604 0.7600 0.7600 0.7600 0.7600
2570.263426 0.7600 0.7600 0.7597 0.7587 0.7580
2575.391647 0.7580 0.7578 0.7573 0.7570 0.7570
2580.519869 0.7570 0.7570 0.7570 0.7570 0.7566
2585.648091 0.7556 0.7548 0.7543 0.7538 0.7533
2590.776312 0.7530 0.7530 0.7525 0.7515 0.7510
2595.904534 0.7510 0.7510 0.7510 0.7510 0.7510
2601.032756 0.7507 0.7502 0.7500 0.7500 0.7500
2606.160978 0.7500 0.7500 0.7500 0.7494 0.7484
2611.289199 0.7480 0.7480 0.7480 0.7480 0.7480
2616.417421 0.7480 0.7477 0.7472 0.7470 0.7470
2621.545643 0.7470 0.7470 0.7470 0.7470 0.7470
2626.673864 0.7470 0.7470 0.7470 0.7466 0.7461
2631.802086 0.7453 0.7442 0.7432 0.7422 0.7420
2636.930308 0.7420 0.7412 0.7402 0.7400 0.7400
2642.058529 0.7396 0.7391 0.7382 0.7372 0.7370
2647.186751 0.7370 0.7366 0.7361 0.7356 0.7351
2652.314973 0.7350 0.7350 0.7350 0.7350 0.7341
2657.443194 0.7331 0.7330 0.7330 0.7325 0.7320
2662.571416 0.7320 0.7320 0.7315 0.7310 0.7300
2667.699638 0.7290 0.7285 0.7280 0.7270 0.7260
2672.827859 0.7255 0.7250 0.7245 0.7240 0.7240
2677.956081 0.7240 0.7240 0.7239 0.7229 0.7220
2683.084303 0.7220 0.7219 0.7214 0.7210 0.7210
2688.212525 0.7209 0.7204 0.7200 0.7200 0.7198
2693.340746 0.7188 0.7179 0.7174 0.7168 0.7158
2698.468968 0.7149 0.7144 0.7139 0.7134 0.7130
2703.597190 0.7130 0.7127 0.7117 0.7110 0.7110
2708.725411 0.7108 0.7103 0.7100 0.7100 0.7095
2713.853633 0.7080 0.7065 0.7049 0.7038 0.7033
2718.981855 0.7028 0.7023 0.7008 0.6978 0.6952
2724.110076 0.6931 0.6911 0.6891 0.6873 0.6858
2729.238298 0.6841 0.6821 0.6803 0.6788 0.6767
2734.366520 0.6742 0.6714 0.6684 0.6662 0.6647
2739.494741 0.6635 0.6624 0.6603 0.6573 0.6537
2744.622963 0.6497 0.6471 0.6456 0.6447 0.6442
2749.751185 0.6434 0.6424 0.6420 0.6420 0.6420
2754.879407 0.6420 0.6417 0.6412 0.6410 0.6410
2760.007628 0.6400 0.6384 0.6369 0.6354 0.6343
2765.135850 0.6333 0.6323 0.6313 0.6306 0.6301
2770.264072 0.6269 0.6229 0.6200 0.6175 0.6162
2775.392293 0.6152 0.6133 0.6113 0.6110 0.6110
2780.520515 0.6110 0.6110 0.6114 0.6119 0.6133
2785.648737 0.6148 0.6181 0.6216 0.6243 0.6268
2790.776958 0.6275 0.6280 0.6304 0.6329 0.6349
2795.905180 0.6369 0.6375 0.6380 0.6390 0.6400
2801.033402 0.6400 0.6400 0.6400 0.6400 0.6400
2806.161623 0.6400 0.6390 0.6380 0.6375 0.6370
2811.289845 0.6370 0.6369 0.6359 0.6349 0.6339
2816.418067 0.6328 0.6313 0.6299 0.6289 0.6279
2821.546289 0.6274 0.6270 0.6270 0.6271 0.6276
2826.674510 0.6282 0.6292 0.6304 0.6324 0.6352
2831.802732 0.6407 0.6451 0.6456 0.6460 0.6460
2836.930954 0.6460 0.6460 0.6459 0.6453 0.6444
2842.059175 0.6424 0.6404 0.6383 0.6363 0.6343
2847.187397 0.6327 0.6316 0.6308 0.6303 0.6296
2852.315619 0.6286 0.6280 0.6280 0.6278 0.6273
2857.443840 0.6270 0.6270 0.6268 0.6263 0.6255
2862.572062 0.6245 0.6235 0.6225 0.6213 0.6198
2867.700284 0.6185 0.6175 0.6167 0.6162 0.6157
2872.828505 0.6152 0.6145 0.6134 0.6127 0.6122
2877.956727 0.6120 0.6120 0.6120 0.6120 0.6120
2883.084949 0.6120 0.6120 0.6120 0.6117 0.6112
2888.213170 0.6100 0.6085 0.6070 0.6055 0.6040
2893.341392 0.6025 0.6016 0.6011 0.5999 0.5984
2898.469614 0.5976 0.5971 0.5955 0.5935 0.5911
2903.597836 0.5886 0.5872 0.5862 0.5848 0.5833
2908.726057 0.5806 0.5776 0.5749 0.5724 0.5691
2913.854279 0.5656 0.5637 0.5622 0.5602 0.5582
2918.982501 0.5558 0.5532 0.5503 0.5473 0.5424
2924.110722 0.5374 0.5309 0.5244 0.5226 0.5211
2929.238944 0.5123 0.5033 0.5015 0.5000 0.5015
2934.367166 0.5030 0.5081 0.5132 0.5187 0.5249
2939.495387 0.5450 0.5640 0.5645 0.5650 0.5650
2944.623609 0.5650 0.5645 0.5634 0.5568 0.5509
2949.751831 0.5504 0.5498 0.5483 0.5465 0.5430
2954.880052 0.5397 0.5377 0.5351 0.5300 0.5252
2960.008274 0.5212 0.5152 0.5016 0.4904 0.4879
2965.136496 0.4862 0.4872 0.4884 0.4899 0.4924
2970.264718 0.4980 0.5027 0.5052 0.5070 0.5070
2975.392939 0.5065 0.5050 0.5037 0.5027 0.5001
2980.521161 0.4945 0.4884 0.4814 0.4751 0.4701
2985.649383 0.4641 0.4565 0.4520 0.4520 0.4560
2990.777604 0.4655 0.4734 0.4789 0.4827 0.4842
2995.905826 0.4857 0.4872 0.4880 0.4880 0.4875
3001.034048 0.4865 0.4857 0.4852 0.4842 0.4827
3006.162269 0.4817 0.4812 0.4802 0.4787 0.4771
3011.290491 0.4756 0.4747 0.4742 0.4737 0.4732
3016.418713 0.4681 0.4599 0.4564 0.4553 0.4527
3021.546934 0.4492 0.4473 0.4463 0.4443 0.4418
3026.675156 0.4386 0.4350 0.4312 0.4271 0.4253
3031.803378 0.4243 0.4207 0.4162 0.4127 0.4097
3036.931600 0.4086 0.4081 0.4052 0.4017 0.3994
3042.059821 0.3974 0.3953 0.3933 0.3930 0.3930
3047.188043 0.3934 0.3939 0.3953 0.3968 0.3983
3052.316265 0.3998 0.4009 0.4019 0.4038 0.4058
3057.444486 0.4102 0.4148 0.4160 0.4170 0.4199
3062.572708 0.4229 0.4230 0.4230 0.4225 0.4220
3067.700930 0.4205 0.4190 0.4175 0.4160 0.4145
3072.829151 0.4129 0.4109 0.4089 0.4064 0.4038
3077.957373 0.4007 0.3978 0.3963 0.3945 0.3900
3083.085595 0.3856 0.3826 0.3799 0.3794 0.3787
3088.213816 0.3767 0.3745 0.3715 0.3684 0.3648
3093.342038 0.3613 0.3578 0.3546 0.3526 0.3507
3098.470260 0.3491 0.3475 0.3455 0.3435 0.3415
3103.598481 0.3399 0.3394 0.3387 0.3377 0.3370
3108.726703 0.3370 0.3367 0.3357 0.3343 0.3323
3113.854925 0.3300 0.3269 0.3245 0.3230 0.3212
3118.983147 0.3192 0.3174 0.3159 0.3118 0.3043
3124.111368 0.2998 0.2993 0.2986 0.2975 0.2961
3129.239590 0.2941 0.2918 0.2893 0.2873 0.2858
3134.367812 0.2820 0.2760 0.2712 0.2677 0.2620
3139.496033 0.2544 0.2502 0.2486 0.2437 0.2361
3144.624255 0.2315 0.2290 0.2247 0.2192 0.2158
3149.752477 0.2138 0.2102 0.2056 0.2018 0.1982
3154.880698 0.1941 0.1895 0.1853 0.1813 0.1748
3160.008920 0.1672 0.1625 0.1590 0.1551 0.1511
3165.137142 0.1470 0.1430 0.1386 0.1341 0.1303
3170.265363 0.1268 0.1244 0.1224 0.1176 0.1121
3175.393585 0.1090 0.1065 0.1031 0.0996 0.0973
3180.521807 0.0953 0.0933 0.0912 0.0884 0.0853
3185.650029 0.0832 0.0812 0.0796 0.0781 0.0775
3190.778250 0.0770 0.0761 0.0751 0.0750 0.0750
3195.906472 0.0750 0.0750 0.0760 0.0770 0.0785
3201.034694 0.0800 0.0831 0.0861 0.0886 0.0910
3206.162915 0.0915 0.0922 0.0957 0.0992 0.1017
3211.291137 0.1044 0.1089 0.1135 0.1191 0.1242
3216.419359 0.1262 0.1290 0.1370 0.1444 0.1475
3221.547580 0.1509 0.1565 0.1614 0.1634 0.1660
3226.675802 0.1710 0.1757 0.1793 0.1838 0.1918
3231.804024 0.1992 0.2042 0.2090 0.2130 0.2169
3236.932245 0.2204 0.2244 0.2294 0.2337 0.2363
3242.060467 0.2396 0.2447 0.2485 0.2500 0.2514
3247.188689 0.2524 0.2546 0.2592 0.2629 0.2655
3252.316910 0.2682 0.2712 0.2740 0.2765 0.2786
3257.445132 0.2801 0.2812 0.2817 0.2820 0.2820
3262.573354 0.2818 0.2813 0.2810 0.2810 0.2807
3267.701576 0.2802 0.2800 0.2800 0.2795 0.2785
3272.829797 0.2780 0.2780 0.2780 0.2780 0.2786
3277.958019 0.2796 0.2803 0.2808 0.2813 0.2818
3283.086241 0.2820 0.2820 0.2833 0.2853 0.2867
3288.214462 0.2877 0.2890 0.2905 0.2931 0.2961
3293.342684 0.2977 0.2987 0.2994 0.2999 0.3011
3298.470906 0.3026 0.3030 0.3030 0.3026 0.3021
3303.599127 0.3008 0.2993 0.2978 0.2963 0.2948
3308.727349 0.2933 0.2901 0.2866 0.2843 0.2823
3313.855571 0.2811 0.2801 0.2757 0.2706 0.2656
3318.983792 0.2606 0.2578 0.2553 0.2486 0.2415
3324.112014 0.2396 0.2381 0.2375 0.2370 0.2341
3329.240236 0.2311 0.2295 0.2280 0.2275 0.2270
3334.368458 0.2265 0.2260 0.2250 0.2239 0.2199
3339.496679 0.2159 0.2134 0.2109 0.2094 0.2077
3344.624901 0.2042 0.2005 0.1955 0.1905 0.1860
3349.753123 0.1811 0.1741 0.1675 0.1640 0.1607
3354.881344 0.1587 0.1553 0.1453 0.1363 0.1323
3360.009566 0.1283 0.1248 0.1211 0.1165 0.1123
3365.137788 0.1093 0.1064 0.1039 0.1016 0.1001
3370.266009 0.0986 0.0971 0.0956 0.0941 0.0927
3375.394231 0.0917 0.0907 0.0897 0.0888 0.0883
3380.522453 0.0880 0.0880 0.0880 0.0880 0.0882
3385.650674 0.0887 0.0894 0.0904 0.0912 0.0917
3390.778896 0.0944 0.0999 0.1048 0.1088 0.1115
3395.907118 0.1125 0.1161 0.1226 0.1321 0.1446
3401.035340 0.1552 0.1638 0.1737 0.1849 0.1927
3406.163561 0.1978 0.2053 0.2149 0.2233 0.2309
3411.291783 0.2402 0.2507 0.2637 0.2783 0.2935
3416.420005 0.3091 0.3219 0.3330 0.3504 0.3716
3421.548226 0.3960 0.4221 0.4360 0.4437 0.4471
3426.676448 0.4486 0.4644 0.4860 0.4996 0.5102
3431.804670 0.5293 0.5514 0.5638 0.5728 0.5808
3436.932891 0.5883 0.5970 0.6061 0.6171 0.6287
3442.061113 0.6379 0.6464 0.6484 0.6489 0.6546
3447.189335 0.6611 0.6676 0.6742 0.6781 0.6816
3452.317556 0.6878 0.6944 0.7009 0.7074 0.7089
3457.445778 0.7099 0.7114 0.7129 0.7149 0.7169
3462.574000 0.7213 0.7259 0.7270 0.7280 0.7305
3467.702221 0.7331 0.7366 0.7400 0.7416 0.7430
3472.830443 0.7435 0.7441 0.7451 0.7461 0.7481
3477.958665 0.7500 0.7505 0.7512 0.7532 0.7551
3483.086887 0.7561 0.7570 0.7570 0.7571 0.7576
3488.215108 0.7580 0.7580 0.7580 0.7580 0.7580
3493.343330 0.7580 0.7580 0.7580 0.7580 0.7580
3498.471552 0.7580 0.7580 0.7580 0.7580 0.7580
3503.599773 0.7580 0.7580 0.7580 0.7580 0.7580
3508.727995 0.7580 0.7580 0.7580 0.7580 0.7580
3513.856217 0.7580 0.7580 0.7580 0.7578 0.7573
3518.984438 0.7570 0.7570 0.7570 0.7570 0.7566
3524.112660 0.7556 0.7550 0.7550 0.7550 0.7550
3529.240882 0.7550 0.7550 0.7548 0.7543 0.7540
3534.369103 0.7540 0.7537 0.7532 0.7525 0.7515
3539.497325 0.7507 0.7502 0.7500 0.7500 0.7500
3544.625547 0.7500 0.7500 0.7500 0.7500 0.7500
3549.753769 0.7494 0.7484 0.7480 0.7480 0.7477
3554.881990 0.7472 0.7473 0.7478 0.7477 0.7472
3560.010212 0.7470 0.7470 0.7466 0.7461 0.7460
3565.138434 0.7460 0.7460 0.7460 0.7460 0.7460
3570.266655 0.7452 0.7442 0.7440 0.7440 0.7436
3575.394877 0.7431 0.7430 0.7430 0.7430 0.7430
3580.523099 0.7426 0.7421 0.7420 0.7420 0.7411
3585.651320 0.7401 0.7395 0.7390 0.7390 0.7390
3590.779542 0.7381 0.7371 0.7365 0.7360 0.7360
3595.907764 0.7360 0.7345 0.7330 0.7325 0.7320
3601.035985 0.7315 0.7310 0.7310 0.7310 0.7310
3606.164207 0.7310 0.7310 0.7309 0.7299 0.7290
3611.292429 0.7290 0.7290 0.7290 0.7289 0.7284
3616.420651 0.7280 0.7280 0.7280 0.7280 0.7277
3621.548872 0.7257 0.7240 0.7240 0.7240 0.7240
3626.677094 0.7238 0.7228 0.7220 0.7220 0.7220
3631.805316 0.7220 0.7217 0.7207 0.7200 0.7200
3636.933537 0.7200 0.7200 0.7197 0.7187 0.7180
3642.061759 0.7180 0.7180 0.7180 0.7180 0.7180
3647.189981 0.7180 0.7180 0.7180 0.7180 0.7180
3652.318202 0.7180 0.7180 0.7180 0.7178 0.7173
3657.446424 0.7170 0.7170 0.7166 0.7155 0.7150
3662.574646 0.7150 0.7150 0.7150 0.7148 0.7143
3667.702867 0.7140 0.7140 0.7140 0.7140 0.7137
3672.831089 0.7132 0.7130 0.7130 0.7130 0.7130
3677.959311 0.7130 0.7130 0.7124 0.7114 0.7110
3683.087532 0.7110 0.7110 0.7110 0.7110 0.7110
3688.215754 0.7107 0.7102 0.7100 0.7100 0.7100
3693.343976 0.7100 0.7100 0.7100 0.7093 0.7083
3698.472198 0.7080 0.7080 0.7080 0.7080 0.7072
3703.600419 0.7062 0.7060 0.7060 0.7052 0.7042
3708.728641 0.7040 0.7040 0.7036 0.7031 0.7030
3713.856863 0.7030 0.7026 0.7021 0.7020 0.7020
3718.985084 0.7007 0.6992 0.6990 0.6990 0.6981
3724.113306 0.6971 0.6965 0.6960 0.6960 0.6960
3729.241528 0.6960 0.6960 0.6955 0.6950 0.6940
3734.369749 0.6930 0.6925 0.6920 0.6915 0.6910
3739.497971 0.6900 0.6890 0.6890 0.6890 0.6890
3744.626193 0.6891 0.6901 0.6910 0.6910 0.6911
3749.754414 0.6921 0.6931 0.6941 0.6950 0.6950
3754.882636 0.6950 0.6950 0.6947 0.6932 0.6917
3760.010858 0.6902 0.6890 0.6890 0.6892 0.6902
3765.139080 0.6911 0.6916 0.6921 0.6926 0.6930
3770.267301 0.6930 0.6930 0.6930 0.6930 0.6930
3775.395523 0.6930 0.6930 0.6923 0.6903 0.6890
3780.523745 0.6890 0.6895 0.6911 0.6920 0.6920
3785.651966 0.6920 0.6920 0.6918 0.6913 0.6904
3790.780188 0.6888 0.6880 0.6880 0.6875 0.6865
3795.908410 0.6860 0.6860 0.6860 0.6860
##END=
