##TITLE=2-Mercaptothiazole
##JCAMP-DX=4.24
##DATA TYPE=INFRARED SPECTRUM
##ORIGIN=EPA-IR VAPOR PHASE LIBRARY
##OWNER=SRD/NIST
Collection (C) 2018 copyright by the U.S. Secretary of Commerce
on behalf of the United States of America. All rights reserved.
##CAS REGISTRY NO=82358-09-6
##MOLFORM=C 3 H 3 N S 2
##$NIST SOURCE=MSDC-IR
##STATE=gas
##XUNITS=1/CM
##YUNITS=ABSORBANCE
##XFACTOR=1.
##YFACTOR=0.001
##DELTAX=1.92898
##FIRSTX=549.8
##LASTX=4000.7
##FIRSTY=3.151
##MAXX=4000.7
##MINX=549.759
##MAXY=0.060281
##MINY=0
##NPOINTS=1790
##XYDATA=(X++(Y..Y))
549.759 3.151 2.941 2.811 2.761 2.461 2.931 3.541 3.861 3.531 3.451
569.049 4.371 4.591 4.621 5.311 5.801 6.911 7.421 6.681 7.311 7.841
588.339 8.691 9.751 9.761 9.641 9.391 8.881 7.921 7.111 6.691 6.861
607.628 6.521 6.371 6.611 6.371 6.641 6.901 7.471 7.131 6.211 6.411
626.918 6.661 6.771 7.131 6.721 5.871 6.521 6.801 6.311 6.361 5.971
646.208 5.461 4.921 4.731 5.391 6.521 7.281 8.161 8.541 8.781 9.601
665.498 10.091 10.411 11.611 14.211 23.321 28.791 19.411 13.041 12.461 11.851
684.787 12.001 12.101 11.971 11.421 10.791 10.261 9.511 8.701 7.651 7.231
704.077 7.911 7.861 7.501 7.261 6.361 5.921 5.991 5.691 5.161 4.861
723.367 4.721 4.771 5.021 4.871 4.641 4.661 4.171 3.451 3.471 3.531
742.657 3.141 2.931 2.721 2.361 2.511 2.521 2.251 2.241 1.991 2.151
761.947 2.231 1.641 1.257 1.0822 1.43 1.611 1.651 1.871 1.5738 1.601
781.236 1.841 1.611 1.2017 1.1533 1.1584 1.2002 1.3789 1.3013 1.5301 1.5114
800.526 1.2897 1.2087 1.3655 1.4441 1.3993 1.5324 1.701 2.101 2.381 2.661
819.816 3.241 4.011 5.131 6.411 7.861 9.181 9.861 9.821 8.811 8.381
839.106 9.531 9.101 8.451 9.631 10.051 9.671 8.761 7.301 5.951 4.541
858.395 3.621 3.081 2.811 2.691 2.481 2.451 2.471 2.631 2.681 2.711
877.685 2.801 2.901 2.291 1.921 2.091 1.991 1.981 2.021 1.831 2.001
896.975 2.041 1.831 2.121 2.521 2.851 2.601 2.141 2.081 2.471 2.701
916.265 2.491 2.291 2.341 2.261 2.471 2.561 2.081 1.991 2.051 1.841
935.555 1.751 1.621 1.821 1.821 0.9624 1.0009 1.3461 1.1326 1.3522 1.5393
954.844 1.2874 1.2644 1.2858 1.4824 1.891 1.891 1.651 1.2801 1.1782 1.3774
974.134 1.631 1.3336 1.3209 1.4481 1.1678 1.4983 1.971 2.491 2.681 2.791
993.424 3.001 2.931 2.701 2.491 3.161 4.121 4.591 5.401 6.221 7.471
1012.714 8.161 8.741 10.151 11.301 13.381 14.961 15.761 16.951 18.331 19.341
1032.003 19.251 18.831 19.151 19.591 19.711 19.811 20.061 20.561 20.621 19.861
1051.293 18.791 17.661 16.191 14.281 13.321 14.381 14.481 13.671 13.281 13.081
1070.583 12.431 11.011 10.141 9.341 7.561 6.441 6.491 6.061 5.581 4.841
1089.873 4.071 4.491 4.271 3.861 3.351 1.911 2.681 3.071 1.961 1.2726
1109.163 1.2807 1.971 2.461 2.311 1.891 3.161 5.421 6.671 8.181 10.011
1128.452 10.651 11.881 13.071 13.111 14.291 15.491 15.751 16.351 17.081 18.131
1147.742 19.091 18.101 16.201 15.611 15.461 14.831 14.461 15.191 15.181 14.491
1167.032 14.341 14.211 13.821 12.441 11.801 11.841 11.271 11.131 11.051 10.391
1186.322 9.491 8.311 7.811 8.901 10.301 11.311 12.761 14.421 15.771 16.141
1205.611 15.261 15.671 16.031 14.641 14.451 14.961 14.271 13.261 12.081 11.011
1224.901 8.531 6.261 5.721 3.671 2.411 2.301 2.071 2.001 1.651 1.891
1244.191 1.4285 1.179 1.4413 1.4455 1.5061 1.2089 1.0321 1.108 1.4538 1.3453
1263.481 1.0787 1.0515 1.0669 1.3749 1.2686 0.9743 0.9233 1.1253 1.1301 0.8279
1282.771 0.7467 0.7561 1.0203 1.641 1.971 2.021 2.471 2.841 3.051 3.621
1302.060 4.221 4.951 6.101 7.331 8.781 10.481 11.931 12.871 13.411 13.411
1321.350 13.281 13.621 14.461 14.071 12.511 12.591 13.051 12.151 10.441 8.421
1340.640 6.431 5.041 4.141 3.511 3.391 3.321 3.081 3.081 3.231 3.231
1359.930 3.221 3.131 3.061 3.151 3.281 3.531 3.771 4.011 4.411 4.831
1379.219 5.321 5.751 6.311 6.891 7.481 8.051 8.601 9.261 9.901 10.531
1398.509 10.981 11.381 12.071 13.271 14.861 17.021 19.721 23.071 27.491 32.841
1417.799 38.931 45.941 52.101 56.461 58.871 59.501 58.871 58.761 60.211 60.281
1437.089 55.431 51.881 52.241 49.671 42.231 32.351 22.801 15.331 10.251 7.381
1456.378 5.691 4.831 4.461 4.341 4.421 4.311 4.351 4.661 4.741 4.631
1475.668 4.411 4.321 4.281 4.281 4.231 4.101 4.101 4.201 4.131 3.861
1494.958 3.761 3.651 3.441 3.471 3.741 3.791 3.571 3.361 3.221 3.101
1514.248 2.951 2.951 3.071 3.061 3.041 2.891 2.641 2.631 2.671 2.641
1533.538 2.571 2.501 2.501 2.601 2.531 2.461 2.641 2.641 2.461 2.441
1552.827 2.611 2.681 2.591 2.591 2.341 2.231 2.081 2.091 2.281 2.241
1572.117 2.221 2.161 2.161 1.771 1.3383 1.4214 1.651 1.594 1.5098 1.5972
1591.407 1.5134 1.3327 1.2873 1.0896 1.0871 1.1597 0.9871 0.9464 0.8976 0.9684
1610.697 1.1741 1.1646 1.0421 1.0211 1.1002 1.1412 1.2174 1.1108 0.949 0.9848
1629.986 1.0223 0.8596 0.8241 0.9252 0.9027 0.9309 1.015 1.0257 0.9574 1.0203
1649.276 1.0858 1.0797 0.9987 0.9498 1.0807 1.19 1.3022 1.4859 1.5588 1.621
1668.566 1.611 1.611 1.661 1.791 2.001 1.801 1.5313 1.5234 1.641 1.751
1687.856 1.761 1.751 1.661 1.5224 1.2816 1.132 1.1953 1.179 0.9888 0.9422
1707.146 0.9876 0.8818 0.8596 1.0204 1.0268 0.9585 0.9767 0.9744 0.9579 0.9177
1726.435 0.8403 0.7121 0.8003 0.9873 0.9299 0.8037 0.8965 1.0461 1.1017 1.017
1745.725 0.9214 0.8548 0.7571 0.8979 1.0174 0.8182 0.8108 0.9409 0.9447 0.9337
1765.015 0.9779 1.0552 1.0305 0.9398 0.8837 0.896 0.9215 1.0254 1.057 0.9036
1784.305 0.8342 0.8638 0.8203 0.7919 0.8393 0.7773 0.69056 0.8186 0.9035 0.8468
1803.594 0.7341 0.63662 0.6308 0.59359 0.6055 0.67657 0.8348 0.9055 0.69459 0.7061
1822.884 0.8045 0.7186 0.731 0.8269 0.8694 0.8424 0.9249 0.9685 0.8777 0.8066
1842.174 0.7401 0.8019 0.7912 0.749 0.8353 0.728 0.6797 0.8084 0.949 0.9244
1861.464 0.69987 0.62082 0.7362 0.9507 0.9149 0.8029 0.8989 0.9106 0.8839 0.9266
1880.754 0.9354 0.9117 0.9494 0.9458 0.954 1.0385 1.1336 1.1976 1.106 1.0045
1900.043 1.037 1.0345 0.9806 1.0171 0.9057 0.8751 0.9257 0.7198 0.607688 0.68011
1919.333 0.8647 0.9285 0.8339 0.7856 0.8283 0.7978 0.758 0.7817 0.7477 0.7715
1938.623 0.8045 0.8288 0.7429 0.6622 0.8374 0.8487 0.8351 0.8791 0.8757 0.9605
1957.913 0.8613 0.881 0.8734 0.8283 1.016 0.8888 0.7056 0.7542 0.7298 0.7212
1977.202 0.7696 0.70025 0.7051 0.8375 0.7826 0.62105 0.66734 0.68784 0.7256 0.8134
1996.492 0.779 0.9154 0.9097 0.8276 0.8017 0.8306 0.8123 0.7911 0.9155 0.8302
2015.782 0.7507 0.8889 1.0594 0.9359 0.8934 0.8849 0.8886 0.9537 0.9153 0.9439
2035.072 0.8658 0.9265 0.911 0.8496 0.8712 0.8542 0.7616 0.7627 0.8602 0.8851
2054.362 0.9366 0.9307 0.9786 0.9357 0.9029 1.0514 0.9815 0.9205 0.8948 0.69833
2073.651 0.69129 0.773 0.7671 0.7774 0.8986 0.9627 0.9294 1.0112 0.9079 0.7588
2092.941 0.7945 1.0232 1.1674 1.046 1.1819 1.2643 1.0258 1.0227 1.0634 0.8442
2112.231 0.7555 0.8106 0.8321 0.8647 0.9217 0.9721 1.0223 1.0902 1.0809 0.9579
2131.521 0.9601 1.0138 1.055 0.9605 0.8906 0.8852 0.8377 0.979 1.0867 0.9803
2150.810 0.8564 0.9058 1.0129 1.0761 1.1585 1.1246 0.9736 0.9124 1.0007 1.1354
2170.100 1.0588 0.9752 1.148 1.1101 1.007 1.142 1.0555 1.0818 1.2666 1.1025
2189.390 0.8693 0.861 0.951 0.9749 0.9488 0.926 0.9963 1.0157 0.9796 0.9699
2208.680 1.0496 1.0828 0.9222 1.0103 1.0286 0.9815 1.031 1.0811 1.034 0.9519
2227.970 0.9825 1.0239 1.0965 1.1222 1.1671 1.2156 1.4065 1.5324 1.4245 1.2935
2247.259 1.2271 1.2823 1.2708 1.2217 1.3619 1.486 1.4619 1.4177 1.3729 1.3528
2266.549 1.2466 1.1408 1.1994 1.1475 0.9881 1.0133 1.0834 1.2123 1.4164 1.2381
2285.839 0.966 1.0579 1.1061 1.0374 1.0205 1.0195 0.9817 0.9005 0.9254 0.9279
2305.129 0.9466 0.9682 1.0351 0.964 0.9039 1.0426 1.1242 1.0343 0.8543 0.9897
2324.418 1.0912 0.993 1.107 1.1409 1.0975 1.1932 1.1085 0.9802 0.9845 0.9411
2343.708 0.9847 1.0951 1.0957 1.0593 0.9736 0.9459 1.0728 1.3457 1.5879 1.5037
2362.998 1.1976 1.0232 1.0994 1.2436 1.2396 1.1134 1.0067 1.0133 1.0131 1.1332
2382.288 1.2222 1.0227 0.8267 0.9005 0.987 0.9477 0.9163 0.8956 1.0395 1.1499
2401.578 1.0855 1.0114 0.9996 1.0559 1.126 1.0442 0.89 0.9907 1.0758 1.006
2420.867 1.0149 0.9701 1.1345 1.1481 0.978 0.9658 0.9475 0.9538 1.1092 1.2663
2440.157 1.2016 1.233 1.2828 1.182 1.2321 1.3637 1.2715 1.3185 1.4415 1.5464
2459.447 1.5001 1.4643 1.5185 1.5654 1.5109 1.4186 1.3259 1.3092 1.4139 1.2871
2478.737 1.2167 1.146 1.1032 1.0981 0.967 0.8813 1.0249 1.1891 1.076 1.0802
2498.026 1.1755 0.994 0.8888 0.9066 0.9661 1.165 1.1742 0.9884 0.9225 1.0308
2517.316 0.9141 0.8262 0.9694 0.9707 0.8825 0.8078 0.9313 0.9403 0.83 0.963
2536.606 1.0636 0.9607 1.1836 1.2533 0.905 1.0702 1.2306 1.0475 1.184 1.2822
2555.896 1.2435 1.1414 1.1298 1.2337 1.133 1.1912 1.2118 1.0246 0.9824 1.2013
2575.186 1.3334 1.1508 1.1276 1.1355 1.1572 1.2132 1.3177 1.2517 1.1544 1.2448
2594.475 1.1205 1.0794 1.2197 1.1316 0.995 1.2331 1.5378 1.4346 1.211 1.2851
2613.765 1.1235 0.8812 0.9587 1.0684 0.8847 0.8053 1.0674 1.0436 0.9447 0.93
2633.055 1.1595 1.3908 1.2625 1.0438 1.0549 1.145 1.161 1.2297 1.2515 1.316
2652.345 1.3771 1.2735 1.1589 1.3062 1.2187 0.9562 0.8411 0.8356 0.8247 0.7699
2671.634 1.0077 0.8436 0.69901 1.0035 1.0861 1.0814 0.996 0.9883 0.956 0.8734
2690.924 0.9831 1.08 1.0099 0.9913 0.9293 1.0002 1.3334 1.4029 1.1554 1.1414
2710.214 1.1945 0.9384 0.65025 0.7262 0.9551 0.9784 0.8242 0.9137 1.1574 1.0151
2729.504 0.9173 0.8666 0.9492 1.11 1.1012 1.1602 0.8717 0.748 1.1472 1.1795
2748.794 1.147 1.2548 1.3399 1.3227 1.1107 0.9362 0.8039 0.9142 0.9715 0.8466
2768.083 0.8811 1.1003 1.2766 1.1343 0.9783 0.9008 0.9827 1.1023 1.0148 1.1039
2787.373 1.053 1.0748 1.2036 1.0773 1.0186 0.8405 0.8684 0.9837 1.115 1.2831
2806.663 1.0676 0.9604 1.0554 0.9098 0.83 0.8855 0.9117 1.0409 0.9044 0.7872
2825.953 0.9329 1.1114 1.0324 0.8861 0.851 0.8079 0.8809 1.0122 1.219 1.0216
2845.242 1.0693 1.1938 0.9077 0.8754 1.1757 1.2495 1.0137 1.1239 1.0294 1.1333
2864.532 1.3037 0.8451 0.68473 0.9271 0.9209 1.0493 1.2333 1.0254 0.7487 0.7162
2883.822 0.8788 0.8606 0.984 1.1169 0.7416 0.419 0.66998 1.0848 1.4019 1.5176
2903.112 1.0527 0.8915 1.1277 1.2064 1.3813 1.2272 0.9913 1.1642 1.089 0.9934
2922.401 1.0767 0.9097 0.63835 0.478 0.7744 0.8249 0.7275 0.8087 0.8287 0.9408
2941.691 0.9989 1.0041 1.1727 1.1722 1.017 1.0515 1.0047 1.0898 1.09 1.0178
2960.981 0.9919 1.0819 1.1523 1.0573 1.1917 1.1033 0.9434 0.9379 1.1125 1.3863
2980.271 1.41 1.3325 0.8864 0.7087 0.9359 1.0363 0.7562 0.654 1.0482 0.9739
2999.561 0.9094 0.8655 0.7718 1.0476 1.0334 0.8944 1.0359 1.1233 1.2926 1.2605
3018.850 0.8699 0.9328 1.0469 0.8919 0.816 0.7138 0.63083 0.8062 1.0507 0.8922
3038.140 0.9256 0.8026 0.7307 0.9448 0.7545 0.5814 0.433 0.64701 1.0448 1.238
3057.430 1.2576 0.9814 0.9947 0.9755 0.8324 0.66577 0.6886 1.0631 1.1811 1.2194
3076.720 1.2637 1.2897 1.5016 1.5991 1.5468 1.5245 1.5203 1.741 1.801 1.781
3096.009 1.5242 1.5394 1.981 1.931 1.921 1.831 1.611 1.811 2.111 2.141
3115.299 1.851 1.5946 1.631 1.731 1.791 1.701 1.621 1.611 1.5274 1.4881
3134.589 1.426 1.601 1.3667 1.227 1.2761 1.3746 1.741 1.3009 1.1554 1.2867
3153.879 1.3604 1.3813 0.9516 0.95 1.3389 1.3211 0.9905 1.1119 1.1175 0.7718
3173.169 0.8306 0.969 1.0101 0.9022 0.8161 0.8964 0.9344 0.9688 1.0675 1.1517
3192.458 0.9509 0.9755 1.1297 1.0452 0.9826 1.0188 0.8405 0.5073 0.9607 1.3246
3211.748 0.9466 0.8005 0.69486 0.9053 1.3558 1.0035 0.66483 0.7982 0.8096 0.8811
3231.038 0.68087 0.5302 0.8009 0.8261 0.8274 0.68044 0.606915 0.8579 0.9986 1.2503
3250.328 1.0172 0.62562 0.7589 0.59739 0.5111 0.7889 0.9186 1.0261 1.2591 1.3212
3269.617 0.9161 0.8341 0.9245 0.8082 0.7671 0.7541 0.7997 1.3016 1.4561 1.0886
3288.907 1.0737 0.9148 0.9919 1.2601 1.1614 1.0579 1.0654 0.9351 0.7297 0.7229
3308.197 0.5374 0.402 0.5102 0.9217 1.1759 1.3876 1.601 1.1654 0.9387 0.9528
3327.487 0.7198 0.7082 0.62905 0.38 0.445 0.424 0.437 0.9195 1.4313 1.26
3346.777 0.7042 0.471 0.59722 0.68336 0.64956 0.483 0.69708 0.8695 0.69806 0.8779
3366.066 0.8637 0.5616 0.5678 0.8306 0.6842 0.453 0.9124 1.0663 0.8329 0.9882
3385.356 1.1766 1.2184 0.973 0.8266 1.2505 1.1202 0.8743 1.0438 0.8831 0.9932
3404.646 1.1775 0.948 0.9236 1.2119 1.801 2.331 2.401 2.201 2.341 2.801
3423.936 3.311 3.781 4.321 4.991 5.411 5.941 6.721 7.541 8.181 8.751
3443.225 9.771 10.961 11.611 11.671 11.181 10.401 9.601 9.241 9.361 9.941
3462.515 10.191 9.891 9.211 7.901 6.651 5.381 4.311 3.511 2.771 2.421
3481.805 2.351 2.131 1.5617 1.0837 0.903 0.8342 1.0879 1.2783 1.2674 1.0969
3501.095 0.9582 0.8645 0.7085 0.67536 0.7439 0.9537 1.0956 0.8402 0.67829 0.7527
3520.385 0.5778 0.483 0.4 0.338 0.5256 0.46 0.337 0.5525 0.69365 0.5813
3539.674 0.309 0.299 0.5266 0.66498 0.5682 0.188 0.162 0.423 0.73 0.8545
3558.964 0.467 0.522 1.0803 1.3752 1.0318 0.5835 0.28 0.481 0.7158 0.284
3578.254 0.076 0.463 0.7221 0.59699 0.9534 0.8447 0.8704 1.2845 0.9076 0.469
3597.544 0.5579 0.56 0.195 0.275 0.37 0.7758 1.1304 0.7192 0.7181 0.8467
3616.833 0.9104 0.7397 0.48 0.63587 0.59883 0.65976 0.9605 0.7308 0.48 0.447
3636.123 0.446 0.449 0.396 0.259 0.398 0.8775 1.0893 1.0639 0.7756 0.67379
3655.413 0.59662 0.69593 0.7996 0.5084 0.7273 1.011 0.904 0.8137 0.8626 0.7558
3674.703 0.64636 0.6478 0.8868 0.69726 0.335 0.62889 0.66769 0.455 0.448 0.5715
3693.993 0.494 0.497 0.61131 0.494 0.600323 0.69457 0.8558 0.7932 0.5144 0.458
3713.282 0.479 0.5899 0.7111 0.7846 0.893 0.69347 0.286 0.429 0.66904 0.63961
3732.572 0.46 0.5447 0.7335 0.69841 0.5386 0.288 0.327 0.5218 0.414 0.5379
3751.862 0.69687 0.8182 0.7742 0.5066 0.5748 0.8116 0.7587 0.61114 0.7531 0.8683
3771.152 0.7271 0.254 0.029 0.5487 0.8659 0.8899 1.0634 0.8877 0.5896 0.19
3790.441 0.309 0.7321 0.68582 0.407 0.5557 0.7633 0.5737 0.5228 0.526 0.218
3809.731 0.041 0.02 0.251 0.65963 0.386 0 0.326 0.357 0.371 0.7291
3829.021 0.7666 0.8575 0.9717 0.8261 0.61776 0.65012 0.7871 0.8317 0.708 0.8879
3848.311 0.741 0.8063 0.8658 0.8287 0.7995 0.68499 0.5319 0.788 1.2971 0.922
3867.601 0.67724 0.7076 0.27 0.191 0.62847 1.0517 1.0629 0.8135 1.0116 0.8517
3886.890 0.7416 0.9146 0.812 0.7491 0.7818 0.7521 0.5324 0.5461 0.8495 0.86
3906.180 0.797 0.7172 0.607653 0.8009 0.414 0.124 0.66667 0.8603 1.0106 1.0747
3925.470 0.8532 0.8062 0.971 0.9137 0.5485 0.482 0.491 0.49 0.704 0.7622
3944.760 0.8608 0.9667 1.1597 1.0289 0.8356 1.1144 0.9481 0.435 0.373 0.431
3964.049 0.407 0.7498 0.9111 0.64493 0.996 1.1464 0.8748 0.733 0.42 0.419
3983.339 0.8177 0.7459 0.22 0.326 0.5771 1.0465 1.1076 0.64695 0.5079 0.59539
##END=
