##TITLE=Carbonic acid, cyclicvinylene ester
##JCAMP-DX=4.24
##DATA TYPE=INFRARED SPECTRUM
##CLASS=COBLENTZ III
##ORIGIN=WYANDOTTE CHEMICALS CORP.
##OWNER=Copyright (C) 1987 by the Coblentz Society
Collection (C) 2018 copyright by the U.S. Secretary of Commerce
on behalf of the United States of America. All rights reserved.
##DATE=1958/11/04
##NAMES=1,3-dioxol-2-one
##CAS REGISTRY NO=872-36-6
##MOLFORM=C3 H2 O3
##SOURCE REFERENCE=COBLENTZ NO. 5895
##$NIST SOURCE=COBLENTZ
##$NIST IMAGE=cob5895
##SPECTROMETER/DATA SYSTEM=BAIRD (GRATING)
##INSTRUMENT PARAMETERS=NaCl PRISM
##STATE=LIQUID (NEAT)
##PATH LENGTH=0.003 CM
##RESOLUTION=2
##XUNITS=1/CM
##YUNITS=TRANSMITTANCE
##XFACTOR=1.0
##YFACTOR=1
##FIRSTX=625
##LASTX=4000
##FIRSTY=0.7315
##MAXX=4000
##MINX=625
##MAXY=0.9779
##MINY=0.0191
##NPOINTS=3376
##XYDATA=(X++(Y..Y))
625.000000 0.7315 0.7340 0.7341 0.7347 0.7380
630.000000 0.7424 0.7465 0.7498 0.7528 0.7544
635.000000 0.7558 0.7579 0.7608 0.7638 0.7661
640.000000 0.7672 0.7682 0.7689 0.7695 0.7700
645.000000 0.7703 0.7710 0.7718 0.7733 0.7731
650.000000 0.7726 0.7737 0.7756 0.7767 0.7774
655.000000 0.7781 0.7797 0.7846 0.7884 0.7895
660.000000 0.7899 0.7890 0.7859 0.7809 0.7657
665.000000 0.7477 0.7396 0.7398 0.7453 0.7509
670.000000 0.7548 0.7567 0.7602 0.7523 0.7487
675.000000 0.7447 0.7406 0.7353 0.7279 0.7205
680.000000 0.7115 0.7010 0.6905 0.6786 0.6663
685.000000 0.6523 0.6371 0.6201 0.6017 0.5814
690.000000 0.5600 0.5376 0.5123 0.4866 0.4489
695.000000 0.4061 0.3738 0.3284 0.2796 0.2473
700.000000 0.2213 0.1913 0.1641 0.1375 0.1183
705.000000 0.1027 0.0897 0.0813 0.0775 0.0718
710.000000 0.0658 0.0603 0.0596 0.0636 0.0655
715.000000 0.0606 0.0554 0.0547 0.0550 0.0544
720.000000 0.0547 0.0554 0.0565 0.0577 0.0588
725.000000 0.0599 0.0618 0.0643 0.0669 0.0710
730.000000 0.0754 0.0827 0.0909 0.1010 0.1114
735.000000 0.1220 0.1325 0.1391 0.1395 0.1343
740.000000 0.1183 0.0938 0.0727 0.0619 0.0605
745.000000 0.1025 0.1541 0.2056 0.2580 0.2982
750.000000 0.3511 0.4133 0.4513 0.4804 0.5026
755.000000 0.5174 0.5320 0.5458 0.5594 0.5729
760.000000 0.5859 0.5983 0.6066 0.6147 0.6202
765.000000 0.6248 0.6269 0.6275 0.6271 0.6209
770.000000 0.6158 0.6085 0.5973 0.5804 0.5622
775.000000 0.5315 0.4934 0.4554 0.4175 0.3797
780.000000 0.3534 0.3511 0.3941 0.4420 0.4898
785.000000 0.5374 0.5849 0.6324 0.6784 0.7063
790.000000 0.7245 0.7410 0.7531 0.7622 0.7707
795.000000 0.7770 0.7828 0.7875 0.7914 0.7952
800.000000 0.7974 0.7995 0.8002 0.8006 0.8015
805.000000 0.8005 0.7996 0.7988 0.7964 0.7936
810.000000 0.7929 0.7933 0.7933 0.7929 0.7923
815.000000 0.7913 0.7905 0.7899 0.7895 0.7890
820.000000 0.7889 0.7894 0.7904 0.7899 0.7964
825.000000 0.7993 0.8021 0.8047 0.8071 0.8096
830.000000 0.8122 0.8149 0.8176 0.8202 0.8229
835.000000 0.8255 0.8281 0.8309 0.8333 0.8357
840.000000 0.8381 0.8405 0.8429 0.8449 0.8467
845.000000 0.8487 0.8506 0.8518 0.8526 0.8534
850.000000 0.8541 0.8535 0.8527 0.8520 0.8509
855.000000 0.8519 0.8528 0.8537 0.8537 0.8553
860.000000 0.8554 0.8556 0.8553 0.8543 0.8533
865.000000 0.8523 0.8508 0.8492 0.8475 0.8457
870.000000 0.8432 0.8407 0.8382 0.8348 0.8315
875.000000 0.8280 0.8230 0.8159 0.8067 0.7972
880.000000 0.7876 0.7740 0.7589 0.7404 0.7176
885.000000 0.6834 0.6530 0.6129 0.5448 0.4724
890.000000 0.4003 0.3282 0.2564 0.2231 0.2250
895.000000 0.2819 0.3253 0.3685 0.3960 0.3967
900.000000 0.3743 0.3428 0.3114 0.2800 0.2488
905.000000 0.2175 0.1864 0.1617 0.1608 0.1618
910.000000 0.1815 0.2396 0.3112 0.3827 0.4540
915.000000 0.5251 0.5944 0.6602 0.7093 0.7427
920.000000 0.7714 0.7972 0.8146 0.8272 0.8395
925.000000 0.8504 0.8577 0.8643 0.8695 0.8741
930.000000 0.8787 0.8829 0.8860 0.8891 0.8920
935.000000 0.8943 0.8966 0.8989 0.9009 0.9024
940.000000 0.9040 0.9055 0.9070 0.9087 0.9103
945.000000 0.9119 0.9135 0.9140 0.9141 0.9142
950.000000 0.9144 0.9147 0.9154 0.9164 0.9174
955.000000 0.9181 0.9180 0.9180 0.9179 0.9179
960.000000 0.9178 0.9177 0.9176 0.9175 0.9174
965.000000 0.9172 0.9169 0.9167 0.9164 0.9164
970.000000 0.9185 0.9166 0.9160 0.9144 0.9128
975.000000 0.9103 0.9074 0.9058 0.9056 0.9054
980.000000 0.9054 0.9054 0.9054 0.9056 0.9060
985.000000 0.9063 0.9066 0.9068 0.9069 0.9069
990.000000 0.9067 0.9065 0.9063 0.9061 0.9060
995.000000 0.9058 0.9052 0.9045 0.9039 0.9032
1000.000000 0.9026 0.9018 0.9004 0.8989 0.8974
1005.000000 0.8958 0.8944 0.8930 0.8915 0.8901
1010.000000 0.8887 0.8872 0.8852 0.8833 0.8812
1015.000000 0.8793 0.8767 0.8732 0.8698 0.8663
1020.000000 0.8619 0.8572 0.8524 0.8459 0.8392
1025.000000 0.8314 0.8235 0.8142 0.8044 0.7934
1030.000000 0.7822 0.7714 0.7606 0.7512 0.7425
1035.000000 0.7336 0.7229 0.7093 0.6933 0.6717
1040.000000 0.6628 0.6620 0.6594 0.6648 0.6691
1045.000000 0.6764 0.6838 0.6926 0.7004 0.7040
1050.000000 0.7025 0.7001 0.6962 0.6922 0.6880
1055.000000 0.6802 0.6719 0.6631 0.6523 0.6332
1060.000000 0.6167 0.5848 0.5582 0.5240 0.4799
1065.000000 0.4580 0.4576 0.4606 0.4614 0.4589
1070.000000 0.4461 0.4248 0.3915 0.3561 0.3206
1075.000000 0.2853 0.2501 0.2149 0.1798 0.1448
1080.000000 0.1170 0.0825 0.0485 0.0324 0.0274
1085.000000 0.0236 0.0221 0.0208 0.0199 0.0196
1090.000000 0.0193 0.0193 0.0192 0.0191 0.0191
1095.000000 0.0191 0.0192 0.0193 0.0194 0.0195
1100.000000 0.0198 0.0202 0.0205 0.0209 0.0213
1105.000000 0.0217 0.0218 0.0193 0.0219 0.0219
1110.000000 0.0219 0.0217 0.0216 0.0214 0.0212
1115.000000 0.0213 0.0214 0.0215 0.0216 0.0223
1120.000000 0.0232 0.0241 0.0256 0.0280 0.0471
1125.000000 0.0707 0.0943 0.1177 0.1412 0.1647
1130.000000 0.1881 0.2115 0.2348 0.2581 0.2813
1135.000000 0.3045 0.3277 0.3490 0.3676 0.3901
1140.000000 0.3953 0.3975 0.3984 0.3980 0.3978
1145.000000 0.3949 0.3898 0.3825 0.3703 0.3424
1150.000000 0.3097 0.2772 0.2446 0.2121 0.1797
1155.000000 0.1473 0.1150 0.0828 0.0551 0.0426
1160.000000 0.0328 0.0277 0.0257 0.0247 0.0241
1165.000000 0.0238 0.0236 0.0234 0.0231 0.0229
1170.000000 0.0208 0.0231 0.0232 0.0235 0.0242
1175.000000 0.0248 0.0260 0.0295 0.0404 0.0594
1180.000000 0.0916 0.1403 0.1889 0.2375 0.2860
1185.000000 0.3344 0.3827 0.4309 0.4790 0.5191
1190.000000 0.5312 0.5685 0.5889 0.6031 0.6152
1195.000000 0.6274 0.6492 0.6666 0.6807 0.7135
1200.000000 0.7513 0.7693 0.7792 0.7868 0.7944
1205.000000 0.8018 0.8080 0.8137 0.8195 0.8252
1210.000000 0.8307 0.8353 0.8399 0.8445 0.8490
1215.000000 0.8528 0.8564 0.8601 0.8637 0.8672
1220.000000 0.8705 0.8736 0.8768 0.8800 0.8831
1225.000000 0.8862 0.8892 0.8921 0.8951 0.8980
1230.000000 0.9010 0.9034 0.9055 0.9075 0.9095
1235.000000 0.9116 0.9137 0.9156 0.9166 0.9176
1240.000000 0.9186 0.9196 0.9206 0.9216 0.9225
1245.000000 0.9230 0.9234 0.9239 0.9244 0.9249
1250.000000 0.9254 0.9257 0.9262 0.9265 0.9267
1255.000000 0.9270 0.9273 0.9276 0.9278 0.9280
1260.000000 0.9283 0.9285 0.9285 0.9285 0.9285
1265.000000 0.9284 0.9284 0.9284 0.9283 0.9282
1270.000000 0.9280 0.9278 0.9277 0.9275 0.9273
1275.000000 0.9270 0.9267 0.9264 0.9260 0.9256
1280.000000 0.9250 0.9260 0.9238 0.9236 0.9235
1285.000000 0.9233 0.9232 0.9235 0.9240 0.9244
1290.000000 0.9249 0.9256 0.9264 0.9271 0.9279
1295.000000 0.9286 0.9293 0.9302 0.9309 0.9316
1300.000000 0.9319 0.9322 0.9325 0.9328 0.9330
1305.000000 0.9328 0.9324 0.9321 0.9318 0.9315
1310.000000 0.9308 0.9299 0.9290 0.9281 0.9268
1315.000000 0.9250 0.9232 0.9214 0.9195 0.9175
1320.000000 0.9143 0.9110 0.9070 0.9022 0.8974
1325.000000 0.8921 0.8865 0.8806 0.8743 0.8680
1330.000000 0.8596 0.8507 0.8407 0.8246 0.8094
1335.000000 0.7983 0.7874 0.7750 0.7378 0.6709
1340.000000 0.5967 0.5226 0.4486 0.3746 0.3008
1345.000000 0.2310 0.2023 0.2022 0.2022 0.2100
1350.000000 0.2169 0.2230 0.2248 0.2238 0.2013
1355.000000 0.1825 0.1636 0.1449 0.1266 0.1219
1360.000000 0.1226 0.1470 0.2018 0.2565 0.3111
1365.000000 0.3657 0.4201 0.4745 0.5288 0.5830
1370.000000 0.6373 0.6913 0.7566 0.7777 0.7897
1375.000000 0.7996 0.8140 0.8297 0.8417 0.8520
1380.000000 0.8590 0.8661 0.8714 0.8760 0.8807
1385.000000 0.8848 0.8883 0.8920 0.8955 0.8985
1390.000000 0.9015 0.9044 0.9071 0.9089 0.9107
1395.000000 0.9124 0.9142 0.9156 0.9165 0.9173
1400.000000 0.9182 0.9189 0.9193 0.9197 0.9201
1405.000000 0.9201 0.9182 0.9197 0.9195 0.9191
1410.000000 0.9186 0.9178 0.9172 0.9165 0.9159
1415.000000 0.9152 0.9142 0.9129 0.9117 0.9102
1420.000000 0.9076 0.9049 0.9015 0.8957 0.8899
1425.000000 0.8842 0.8785 0.8727 0.8658 0.8589
1430.000000 0.8502 0.8456 0.8435 0.8479 0.8516
1435.000000 0.8588 0.8657 0.8678 0.8682 0.8678
1440.000000 0.8681 0.8660 0.8642 0.8611 0.8576
1445.000000 0.8546 0.8528 0.8514 0.8511 0.8519
1450.000000 0.8535 0.8568 0.8606 0.8640 0.8673
1455.000000 0.8706 0.8730 0.8751 0.8773 0.8794
1460.000000 0.8813 0.8832 0.8852 0.8869 0.8881
1465.000000 0.8892 0.8903 0.8913 0.8924 0.8935
1470.000000 0.8952 0.8970 0.8988 0.9015 0.9047
1475.000000 0.9060 0.9073 0.9086 0.9097 0.9105
1480.000000 0.9111 0.9117 0.9123 0.9130 0.9138
1485.000000 0.9145 0.9153 0.9161 0.9169 0.9176
1490.000000 0.9181 0.9187 0.9192 0.9197 0.9202
1495.000000 0.9196 0.9190 0.9181 0.9162 0.9142
1500.000000 0.9122 0.9102 0.9082 0.9060 0.9039
1505.000000 0.9017 0.8996 0.8974 0.8953 0.8932
1510.000000 0.8911 0.8891 0.8870 0.8844 0.8813
1515.000000 0.8782 0.8749 0.8705 0.8661 0.8616
1520.000000 0.8569 0.8510 0.8448 0.8387 0.8324
1525.000000 0.8244 0.8158 0.8090 0.8030 0.7972
1530.000000 0.7913 0.7857 0.7802 0.7748 0.7694
1535.000000 0.7641 0.7588 0.7535 0.7482 0.7424
1540.000000 0.7359 0.7299 0.7261 0.7232 0.7201
1545.000000 0.7172 0.7142 0.7113 0.7084 0.7056
1550.000000 0.7027 0.6999 0.6969 0.6937 0.6904
1555.000000 0.6870 0.6837 0.6803 0.6770 0.6738
1560.000000 0.6706 0.6673 0.6641 0.6608 0.6574
1565.000000 0.6540 0.6506 0.6470 0.6427 0.6380
1570.000000 0.6326 0.6264 0.6176 0.6032 0.5866
1575.000000 0.5702 0.5537 0.5373 0.5208 0.5056
1580.000000 0.4987 0.4967 0.4961 0.4963 0.4956
1585.000000 0.4978 0.4993 0.5105 0.5324 0.5572
1590.000000 0.5820 0.6068 0.6316 0.6563 0.6810
1595.000000 0.7057 0.7303 0.7549 0.7794 0.8028
1600.000000 0.8171 0.8233 0.8278 0.8310 0.8340
1605.000000 0.8367 0.8391 0.8409 0.8415 0.8419
1610.000000 0.8420 0.8420 0.8419 0.8395 0.8413
1615.000000 0.8407 0.8403 0.8397 0.8389 0.8381
1620.000000 0.8367 0.8349 0.8330 0.8310 0.8284
1625.000000 0.8256 0.8226 0.8188 0.8146 0.8104
1630.000000 0.8061 0.8018 0.7970 0.7914 0.7876
1635.000000 0.7849 0.7842 0.7846 0.7852 0.7858
1640.000000 0.7866 0.7883 0.7908 0.7932 0.7942
1645.000000 0.7939 0.7932 0.7920 0.7903 0.7884
1650.000000 0.7856 0.7825 0.7802 0.7785 0.7775
1655.000000 0.7772 0.7773 0.7782 0.7779 0.7784
1660.000000 0.7787 0.7792 0.7808 0.7885 0.7970
1665.000000 0.8050 0.8132 0.8227 0.8337 0.8416
1670.000000 0.8463 0.8511 0.8549 0.8581 0.8611
1675.000000 0.8641 0.8669 0.8696 0.8719 0.8742
1680.000000 0.8764 0.8786 0.8801 0.8813 0.8826
1685.000000 0.8838 0.8850 0.8863 0.8875 0.8887
1690.000000 0.8899 0.8913 0.8928 0.8943 0.8959
1695.000000 0.8976 0.9007 0.9028 0.9033 0.9029
1700.000000 0.8990 0.9018 0.9011 0.9004 0.8993
1705.000000 0.8981 0.8962 0.8942 0.8923 0.8905
1710.000000 0.8884 0.8873 0.8868 0.8865 0.8863
1715.000000 0.8862 0.8861 0.8860 0.8851 0.8843
1720.000000 0.8834 0.8826 0.8815 0.8802 0.8783
1725.000000 0.8753 0.8719 0.8684 0.8648 0.8611
1730.000000 0.8574 0.8538 0.8502 0.8464 0.8423
1735.000000 0.8381 0.8338 0.8290 0.8241 0.8192
1740.000000 0.8142 0.8093 0.8040 0.7987 0.7934
1745.000000 0.7881 0.7827 0.7766 0.7696 0.7624
1750.000000 0.7540 0.7451 0.7375 0.7317 0.7224
1755.000000 0.7078 0.6925 0.6759 0.6314 0.5927
1760.000000 0.5547 0.5166 0.4786 0.4406 0.4027
1765.000000 0.3648 0.3270 0.2892 0.2514 0.2137
1770.000000 0.1760 0.1384 0.1008 0.0632 0.0427
1775.000000 0.0332 0.0292 0.0265 0.0246 0.0239
1780.000000 0.0235 0.0231 0.0228 0.0225 0.0222
1785.000000 0.0220 0.0218 0.0216 0.0215 0.0213
1790.000000 0.0212 0.0210 0.0210 0.0210 0.0209
1795.000000 0.0209 0.0209 0.0209 0.0208 0.0208
1800.000000 0.0207 0.0207 0.0207 0.0208 0.0208
1805.000000 0.0208 0.0208 0.0209 0.0209 0.0209
1810.000000 0.0209 0.0210 0.0210 0.0211 0.0211
1815.000000 0.0211 0.0211 0.0212 0.0212 0.0201
1820.000000 0.0214 0.0215 0.0216 0.0217 0.0218
1825.000000 0.0220 0.0220 0.0222 0.0223 0.0225
1830.000000 0.0225 0.0227 0.0228 0.0230 0.0232
1835.000000 0.0234 0.0236 0.0238 0.0240 0.0242
1840.000000 0.0243 0.0246 0.0247 0.0249 0.0251
1845.000000 0.0253 0.0255 0.0259 0.0266 0.0274
1850.000000 0.0282 0.0290 0.0300 0.0321 0.0363
1855.000000 0.0425 0.0512 0.0688 0.0865 0.1042
1860.000000 0.1219 0.1396 0.1573 0.1749 0.1925
1865.000000 0.2101 0.2277 0.2453 0.2628 0.2803
1870.000000 0.2978 0.3153 0.3328 0.3503 0.3678
1875.000000 0.3851 0.4025 0.4199 0.4373 0.4546
1880.000000 0.4719 0.4892 0.5065 0.5238 0.5410
1885.000000 0.5583 0.5755 0.5927 0.6098 0.6202
1890.000000 0.6271 0.6310 0.6331 0.6351 0.6371
1895.000000 0.6389 0.6406 0.6421 0.6437 0.6451
1900.000000 0.6464 0.6477 0.6486 0.6487 0.6497
1905.000000 0.6492 0.6432 0.6322 0.6212 0.6102
1910.000000 0.5992 0.5882 0.5773 0.5663 0.5554
1915.000000 0.5445 0.5337 0.5234 0.5216 0.5208
1920.000000 0.5218 0.5349 0.5552 0.5834 0.6116
1925.000000 0.6398 0.6679 0.6960 0.7241 0.7522
1930.000000 0.7802 0.8082 0.8360 0.8446 0.8497
1935.000000 0.8516 0.8532 0.8544 0.8553 0.8561
1940.000000 0.8569 0.8576 0.8578 0.8579 0.8578
1945.000000 0.8576 0.8596 0.8568 0.8559 0.8493
1950.000000 0.8355 0.8209 0.8063 0.7917 0.7771
1955.000000 0.7626 0.7480 0.7334 0.7189 0.7043
1960.000000 0.6898 0.6753 0.6608 0.6464 0.6319
1965.000000 0.6175 0.6030 0.5886 0.5742 0.5598
1970.000000 0.5454 0.5311 0.5167 0.5024 0.4881
1975.000000 0.4738 0.4595 0.4452 0.4311 0.4176
1980.000000 0.4121 0.4123 0.4125 0.4127 0.4127
1985.000000 0.4102 0.4383 0.4544 0.4705 0.4866
1990.000000 0.5026 0.5186 0.5346 0.5506 0.5666
1995.000000 0.5826 0.5985 0.6145 0.6304 0.6463
2000.000000 0.6622 0.6780 0.6939 0.7097 0.7255
2005.000000 0.7413 0.7571 0.7729 0.7886 0.8044
2010.000000 0.8201 0.8358 0.8515 0.8672 0.8829
2015.000000 0.8985 0.9141 0.9255 0.9337 0.9338
2020.000000 0.9328 0.9339 0.9290 0.9236 0.9173
2025.000000 0.9110 0.9047 0.8985 0.8922 0.8859
2030.000000 0.8797 0.8734 0.8672 0.8610 0.8547
2035.000000 0.8485 0.8423 0.8361 0.8299 0.8237
2040.000000 0.8175 0.8113 0.8051 0.7990 0.7928
2045.000000 0.7866 0.7805 0.7743 0.7682 0.7621
2050.000000 0.7559 0.7498 0.7437 0.7376 0.7315
2055.000000 0.7228 0.7261 0.7299 0.7353 0.7432
2060.000000 0.7511 0.7589 0.7667 0.7745 0.7824
2065.000000 0.7902 0.7979 0.8057 0.8135 0.8214
2070.000000 0.8291 0.8369 0.8447 0.8524 0.8601
2075.000000 0.8679 0.8756 0.8833 0.8910 0.8970
2080.000000 0.9020 0.9020 0.9007 0.9017 0.9013
2085.000000 0.9008 0.8915 0.8816 0.8717 0.8617
2090.000000 0.8518 0.8419 0.8319 0.8221 0.8122
2095.000000 0.8023 0.7925 0.7827 0.7728 0.7630
2100.000000 0.7531 0.7433 0.7335 0.7237 0.7139
2105.000000 0.7042 0.6944 0.6846 0.6748 0.6651
2110.000000 0.6554 0.6457 0.6360 0.6263 0.6166
2115.000000 0.6068 0.5972 0.5875 0.5779 0.5694
2120.000000 0.5630 0.5603 0.5606 0.5598 0.5611
2125.000000 0.5759 0.5917 0.6100 0.6283 0.6465
2130.000000 0.6647 0.6828 0.7010 0.7192 0.7374
2135.000000 0.7555 0.7736 0.7917 0.8098 0.8278
2140.000000 0.8459 0.8640 0.8819 0.8962 0.9092
2145.000000 0.9105 0.9109 0.9111 0.9114 0.9116
2150.000000 0.9119 0.9107 0.9083 0.9045 0.9007
2155.000000 0.8969 0.8931 0.8894 0.8856 0.8817
2160.000000 0.8779 0.8741 0.8703 0.8666 0.8628
2165.000000 0.8591 0.8553 0.8515 0.8477 0.8460
2170.000000 0.8450 0.8435 0.8449 0.8450 0.8452
2175.000000 0.8458 0.8466 0.8476 0.8488 0.8503
2180.000000 0.8521 0.8543 0.8568 0.8598 0.8629
2185.000000 0.8661 0.8678 0.8688 0.8698 0.8708
2190.000000 0.8718 0.8729 0.8738 0.8747 0.8755
2195.000000 0.8763 0.8772 0.8781 0.8788 0.8795
2200.000000 0.8802 0.8810 0.8817 0.8824 0.8831
2205.000000 0.8839 0.8850 0.8861 0.8874 0.8886
2210.000000 0.8899 0.8929 0.8971 0.9015 0.9059
2215.000000 0.9102 0.9145 0.9189 0.9233 0.9272
2220.000000 0.9308 0.9363 0.9424 0.9463 0.9495
2225.000000 0.9512 0.9524 0.9534 0.9544 0.9553
2230.000000 0.9561 0.9569 0.9576 0.9584 0.9591
2235.000000 0.9599 0.9606 0.9613 0.9620 0.9627
2240.000000 0.9633 0.9640 0.9647 0.9652 0.9657
2245.000000 0.9661 0.9666 0.9670 0.9675 0.9679
2250.000000 0.9684 0.9688 0.9691 0.9694 0.9698
2255.000000 0.9701 0.9704 0.9707 0.9709 0.9713
2260.000000 0.9716 0.9719 0.9722 0.9725 0.9728
2265.000000 0.9730 0.9732 0.9748 0.9736 0.9737
2270.000000 0.9739 0.9741 0.9742 0.9743 0.9742
2275.000000 0.9741 0.9740 0.9738 0.9737 0.9735
2280.000000 0.9734 0.9733 0.9731 0.9729 0.9725
2285.000000 0.9720 0.9716 0.9711 0.9706 0.9702
2290.000000 0.9698 0.9693 0.9688 0.9684 0.9679
2295.000000 0.9675 0.9670 0.9666 0.9662 0.9657
2300.000000 0.9653 0.9647 0.9642 0.9636 0.9629
2305.000000 0.9623 0.9616 0.9610 0.9603 0.9597
2310.000000 0.9591 0.9584 0.9578 0.9572 0.9565
2315.000000 0.9559 0.9552 0.9545 0.9539 0.9532
2320.000000 0.9526 0.9519 0.9512 0.9505 0.9499
2325.000000 0.9492 0.9486 0.9479 0.9473 0.9467
2330.000000 0.9461 0.9455 0.9449 0.9443 0.9437
2335.000000 0.9431 0.9425 0.9419 0.9414 0.9408
2340.000000 0.9403 0.9398 0.9393 0.9388 0.9383
2345.000000 0.9378 0.9375 0.9372 0.9371 0.9370
2350.000000 0.9370 0.9370 0.9370 0.9371 0.9372
2355.000000 0.9348 0.9375 0.9378 0.9382 0.9386
2360.000000 0.9392 0.9397 0.9403 0.9409 0.9421
2365.000000 0.9433 0.9446 0.9458 0.9476 0.9497
2370.000000 0.9519 0.9546 0.9573 0.9605 0.9636
2375.000000 0.9646 0.9652 0.9655 0.9656 0.9695
2380.000000 0.9657 0.9658 0.9658 0.9658 0.9656
2385.000000 0.9652 0.9648 0.9644 0.9638 0.9629
2390.000000 0.9619 0.9604 0.9588 0.9572 0.9556
2395.000000 0.9541 0.9526 0.9511 0.9496 0.9482
2400.000000 0.9468 0.9454 0.9440 0.9425 0.9409
2405.000000 0.9386 0.9362 0.9339 0.9316 0.9291
2410.000000 0.9266 0.9240 0.9214 0.9188 0.9162
2415.000000 0.9136 0.9111 0.9085 0.9061 0.9041
2420.000000 0.9022 0.9017 0.9014 0.9013 0.9013
2425.000000 0.8979 0.9013 0.9014 0.9018 0.9022
2430.000000 0.9027 0.9033 0.9040 0.9052 0.9064
2435.000000 0.9078 0.9093 0.9109 0.9126 0.9144
2440.000000 0.9162 0.9179 0.9197 0.9215 0.9233
2445.000000 0.9252 0.9272 0.9297 0.9323 0.9348
2450.000000 0.9373 0.9398 0.9423 0.9447 0.9467
2455.000000 0.9485 0.9503 0.9520 0.9537 0.9552
2460.000000 0.9566 0.9579 0.9592 0.9605 0.9617
2465.000000 0.9629 0.9641 0.9653 0.9664 0.9672
2470.000000 0.9680 0.9687 0.9694 0.9724 0.9704
2475.000000 0.9708 0.9709 0.9709 0.9708 0.9708
2480.000000 0.9708 0.9708 0.9708 0.9707 0.9707
2485.000000 0.9707 0.9706 0.9706 0.9705 0.9703
2490.000000 0.9701 0.9698 0.9696 0.9694 0.9692
2495.000000 0.9690 0.9687 0.9685 0.9681 0.9676
2500.000000 0.9671 0.9665 0.9659 0.9654 0.9648
2505.000000 0.9643 0.9633 0.9623 0.9614 0.9605
2510.000000 0.9596 0.9586 0.9575 0.9563 0.9548
2515.000000 0.9533 0.9519 0.9506 0.9494 0.9484
2520.000000 0.9474 0.9470 0.9466 0.9463 0.9461
2525.000000 0.9459 0.9460 0.9462 0.9464 0.9466
2530.000000 0.9468 0.9471 0.9476 0.9481 0.9485
2535.000000 0.9489 0.9496 0.9506 0.9515 0.9529
2540.000000 0.9543 0.9553 0.9553 0.9553 0.9552
2545.000000 0.9550 0.9549 0.9547 0.9544 0.9542
2550.000000 0.9540 0.9538 0.9535 0.9533 0.9530
2555.000000 0.9525 0.9521 0.9516 0.9511 0.9506
2560.000000 0.9500 0.9493 0.9489 0.9485 0.9482
2565.000000 0.9483 0.9484 0.9487 0.9494 0.9501
2570.000000 0.9508 0.9515 0.9521 0.9529 0.9536
2575.000000 0.9543 0.9550 0.9556 0.9563 0.9570
2580.000000 0.9577 0.9583 0.9590 0.9597 0.9604
2585.000000 0.9611 0.9618 0.9625 0.9632 0.9638
2590.000000 0.9645 0.9652 0.9658 0.9665 0.9672
2595.000000 0.9679 0.9686 0.9693 0.9699 0.9706
2600.000000 0.9713 0.9719 0.9726 0.9733 0.9739
2605.000000 0.9747 0.9754 0.9761 0.9765 0.9768
2610.000000 0.9772 0.9775 0.9778 0.9779 0.9779
2615.000000 0.9779 0.9779 0.9779 0.9779 0.9779
2620.000000 0.9779 0.9778 0.9778 0.9778 0.9777
2625.000000 0.9777 0.9777 0.9776 0.9776 0.9775
2630.000000 0.9773 0.9772 0.9770 0.9768 0.9766
2635.000000 0.9764 0.9762 0.9760 0.9757 0.9755
2640.000000 0.9752 0.9750 0.9748 0.9745 0.9741
2645.000000 0.9737 0.9732 0.9726 0.9721 0.9716
2650.000000 0.9711 0.9706 0.9700 0.9693 0.9687
2655.000000 0.9680 0.9673 0.9666 0.9659 0.9652
2660.000000 0.9645 0.9638 0.9631 0.9628 0.9627
2665.000000 0.9626 0.9625 0.9624 0.9623 0.9619
2670.000000 0.9615 0.9611 0.9607 0.9603 0.9599
2675.000000 0.9594 0.9590 0.9586 0.9580 0.9574
2680.000000 0.9568 0.9561 0.9554 0.9548 0.9542
2685.000000 0.9535 0.9529 0.9523 0.9517 0.9511
2690.000000 0.9505 0.9499 0.9493 0.9487 0.9481
2695.000000 0.9481 0.9480 0.9480 0.9481 0.9482
2700.000000 0.9483 0.9485 0.9487 0.9489 0.9492
2705.000000 0.9494 0.9497 0.9499 0.9502 0.9505
2710.000000 0.9507 0.9510 0.9512 0.9514 0.9516
2715.000000 0.9517 0.9517 0.9517 0.9518 0.9518
2720.000000 0.9518 0.9515 0.9512 0.9509 0.9500
2725.000000 0.9490 0.9479 0.9467 0.9454 0.9441
2730.000000 0.9426 0.9411 0.9396 0.9379 0.9362
2735.000000 0.9344 0.9327 0.9309 0.9291 0.9272
2740.000000 0.9251 0.9230 0.9211 0.9193 0.9175
2745.000000 0.9163 0.9154 0.9144 0.9106 0.9129
2750.000000 0.9122 0.9120 0.9118 0.9117 0.9117
2755.000000 0.9117 0.9117 0.9129 0.9149 0.9168
2760.000000 0.9190 0.9213 0.9236 0.9258 0.9281
2765.000000 0.9304 0.9326 0.9349 0.9372 0.9395
2770.000000 0.9417 0.9440 0.9462 0.9485 0.9508
2775.000000 0.9530 0.9553 0.9575 0.9596 0.9610
2780.000000 0.9625 0.9639 0.9648 0.9657 0.9666
2785.000000 0.9671 0.9677 0.9682 0.9686 0.9689
2790.000000 0.9693 0.9695 0.9697 0.9699 0.9701
2795.000000 0.9703 0.9705 0.9706 0.9706 0.9706
2800.000000 0.9706 0.9706 0.9706 0.9706 0.9706
2805.000000 0.9706 0.9706 0.9706 0.9706 0.9706
2810.000000 0.9706 0.9706 0.9706 0.9706 0.9706
2815.000000 0.9706 0.9706 0.9706 0.9706 0.9705
2820.000000 0.9705 0.9705 0.9704 0.9703 0.9702
2825.000000 0.9701 0.9701 0.9700 0.9700 0.9699
2830.000000 0.9698 0.9697 0.9696 0.9695 0.9694
2835.000000 0.9693 0.9693 0.9692 0.9691 0.9690
2840.000000 0.9689 0.9688 0.9688 0.9687 0.9687
2845.000000 0.9686 0.9685 0.9684 0.9683 0.9683
2850.000000 0.9683 0.9682 0.9682 0.9681 0.9680
2855.000000 0.9680 0.9679 0.9679 0.9678 0.9678
2860.000000 0.9678 0.9677 0.9677 0.9676 0.9700
2865.000000 0.9675 0.9675 0.9674 0.9674 0.9674
2870.000000 0.9674 0.9674 0.9674 0.9674 0.9674
2875.000000 0.9674 0.9674 0.9673 0.9673 0.9673
2880.000000 0.9673 0.9673 0.9673 0.9673 0.9672
2885.000000 0.9672 0.9672 0.9671 0.9671 0.9671
2890.000000 0.9671 0.9670 0.9670 0.9670 0.9669
2895.000000 0.9669 0.9669 0.9668 0.9668 0.9667
2900.000000 0.9667 0.9666 0.9666 0.9666 0.9665
2905.000000 0.9665 0.9664 0.9663 0.9663 0.9663
2910.000000 0.9663 0.9662 0.9662 0.9661 0.9660
2915.000000 0.9660 0.9660 0.9660 0.9659 0.9658
2920.000000 0.9658 0.9657 0.9657 0.9656 0.9655
2925.000000 0.9655 0.9655 0.9655 0.9654 0.9654
2930.000000 0.9653 0.9652 0.9651 0.9651 0.9650
2935.000000 0.9644 0.9635 0.9627 0.9617 0.9600
2940.000000 0.9583 0.9566 0.9544 0.9521 0.9498
2945.000000 0.9476 0.9455 0.9435 0.9414 0.9393
2950.000000 0.9373 0.9353 0.9332 0.9311 0.9291
2955.000000 0.9270 0.9248 0.9225 0.9202 0.9178
2960.000000 0.9152 0.9126 0.9101 0.9089 0.9078
2965.000000 0.9067 0.9060 0.9059 0.9058 0.9057
2970.000000 0.9036 0.9055 0.9055 0.9054 0.9054
2975.000000 0.9054 0.9054 0.9054 0.9055 0.9056
2980.000000 0.9057 0.9059 0.9062 0.9064 0.9068
2985.000000 0.9073 0.9077 0.9083 0.9097 0.9111
2990.000000 0.9125 0.9138 0.9150 0.9162 0.9173
2995.000000 0.9192 0.9211 0.9229 0.9250 0.9273
3000.000000 0.9296 0.9319 0.9338 0.9356 0.9375
3005.000000 0.9393 0.9409 0.9426 0.9442 0.9457
3010.000000 0.9470 0.9484 0.9497 0.9509 0.9520
3015.000000 0.9532 0.9541 0.9547 0.9553 0.9559
3020.000000 0.9561 0.9561 0.9561 0.9562 0.9562
3025.000000 0.9563 0.9563 0.9564 0.9564 0.9565
3030.000000 0.9565 0.9566 0.9566 0.9567 0.9568
3035.000000 0.9568 0.9568 0.9568 0.9569 0.9569
3040.000000 0.9569 0.9569 0.9570 0.9570 0.9571
3045.000000 0.9571 0.9572 0.9572 0.9572 0.9579
3050.000000 0.9572 0.9572 0.9572 0.9572 0.9572
3055.000000 0.9572 0.9572 0.9572 0.9572 0.9572
3060.000000 0.9571 0.9563 0.9554 0.9546 0.9534
3065.000000 0.9515 0.9497 0.9478 0.9459 0.9440
3070.000000 0.9421 0.9402 0.9383 0.9365 0.9346
3075.000000 0.9327 0.9308 0.9290 0.9271 0.9252
3080.000000 0.9234 0.9215 0.9197 0.9178 0.9160
3085.000000 0.9141 0.9122 0.9104 0.9087 0.9070
3090.000000 0.9053 0.9047 0.9045 0.9043 0.9041
3095.000000 0.9045 0.9051 0.9056 0.9061 0.9069
3100.000000 0.9077 0.9086 0.9094 0.9102 0.9110
3105.000000 0.9119 0.9127 0.9135 0.9143 0.9152
3110.000000 0.9159 0.9166 0.9173 0.9180 0.9182
3115.000000 0.9181 0.9180 0.9180 0.9106 0.9013
3120.000000 0.8920 0.8827 0.8550 0.8253 0.7956
3125.000000 0.7659 0.7362 0.7065 0.6769 0.6472
3130.000000 0.6177 0.5881 0.5585 0.5290 0.4995
3135.000000 0.4700 0.4405 0.4110 0.3816 0.3521
3140.000000 0.3227 0.2933 0.2640 0.2346 0.2053
3145.000000 0.1775 0.1527 0.1280 0.1033 0.0881
3150.000000 0.0881 0.0881 0.0881 0.0885 0.0881
3155.000000 0.0882 0.0882 0.0883 0.0883 0.0884
3160.000000 0.0884 0.0895 0.0919 0.0943 0.0966
3165.000000 0.1029 0.1141 0.1253 0.1365 0.1477
3170.000000 0.1588 0.1700 0.1812 0.1923 0.2035
3175.000000 0.2146 0.2257 0.2369 0.2480 0.2591
3180.000000 0.2702 0.2813 0.2924 0.3035 0.3145
3185.000000 0.3256 0.3366 0.3477 0.3587 0.3697
3190.000000 0.3808 0.3918 0.4028 0.4138 0.4248
3195.000000 0.4358 0.4468 0.4578 0.4688 0.4797
3200.000000 0.4907 0.5017 0.5126 0.5236 0.5345
3205.000000 0.5454 0.5564 0.5673 0.5782 0.5891
3210.000000 0.6000 0.6109 0.6218 0.6327 0.6435
3215.000000 0.6543 0.6652 0.6760 0.6868 0.6977
3220.000000 0.7085 0.7193 0.7279 0.7324 0.7369
3225.000000 0.7414 0.7451 0.7451 0.7452 0.7453
3230.000000 0.7453 0.7453 0.7452 0.7451 0.7451
3235.000000 0.7439 0.7425 0.7411 0.7397 0.7383
3240.000000 0.7370 0.7356 0.7342 0.7328 0.7315
3245.000000 0.7301 0.7288 0.7274 0.7260 0.7247
3250.000000 0.7233 0.7219 0.7219 0.7219 0.7218
3255.000000 0.7218 0.7218 0.7219 0.7219 0.7220
3260.000000 0.7292 0.7424 0.7555 0.7687 0.7808
3265.000000 0.7907 0.8006 0.8105 0.8202 0.8238
3270.000000 0.8274 0.8310 0.8346 0.8375 0.8401
3275.000000 0.8427 0.8453 0.8478 0.8503 0.8528
3280.000000 0.8553 0.8578 0.8601 0.8624 0.8646
3285.000000 0.8669 0.8692 0.8714 0.8737 0.8760
3290.000000 0.8779 0.8794 0.8809 0.8824 0.8839
3295.000000 0.8854 0.8868 0.8882 0.8896 0.8911
3300.000000 0.8925 0.8939 0.8953 0.8967 0.8982
3305.000000 0.8996 0.9010 0.9024 0.9038 0.9052
3310.000000 0.9065 0.9079 0.9092 0.9106 0.9119
3315.000000 0.9132 0.9145 0.9158 0.9171 0.9184
3320.000000 0.9197 0.9211 0.9224 0.9238 0.9252
3325.000000 0.9267 0.9282 0.9297 0.9312 0.9327
3330.000000 0.9342 0.9357 0.9372 0.9387 0.9397
3335.000000 0.9405 0.9413 0.9421 0.9429 0.9437
3340.000000 0.9445 0.9453 0.9461 0.9468 0.9476
3345.000000 0.9484 0.9492 0.9499 0.9507 0.9514
3350.000000 0.9521 0.9528 0.9533 0.9537 0.9541
3355.000000 0.9546 0.9550 0.9554 0.9558 0.9562
3360.000000 0.9567 0.9571 0.9575 0.9579 0.9583
3365.000000 0.9588 0.9592 0.9595 0.9599 0.9603
3370.000000 0.9606 0.9608 0.9610 0.9612 0.9614
3375.000000 0.9615 0.9617 0.9618 0.9620 0.9621
3380.000000 0.9622 0.9623 0.9624 0.9637 0.9625
3385.000000 0.9625 0.9625 0.9625 0.9625 0.9625
3390.000000 0.9625 0.9625 0.9625 0.9624 0.9624
3395.000000 0.9624 0.9624 0.9624 0.9624 0.9624
3400.000000 0.9624 0.9624 0.9624 0.9624 0.9624
3405.000000 0.9624 0.9623 0.9623 0.9623 0.9623
3410.000000 0.9623 0.9622 0.9622 0.9622 0.9622
3415.000000 0.9622 0.9621 0.9621 0.9620 0.9620
3420.000000 0.9619 0.9619 0.9618 0.9618 0.9617
3425.000000 0.9616 0.9616 0.9615 0.9614 0.9614
3430.000000 0.9613 0.9612 0.9612 0.9611 0.9611
3435.000000 0.9610 0.9609 0.9609 0.9608 0.9607
3440.000000 0.9606 0.9604 0.9603 0.9601 0.9600
3445.000000 0.9598 0.9597 0.9595 0.9594 0.9593
3450.000000 0.9591 0.9590 0.9589 0.9588 0.9586
3455.000000 0.9585 0.9583 0.9582 0.9580 0.9579
3460.000000 0.9577 0.9576 0.9574 0.9573 0.9571
3465.000000 0.9570 0.9569 0.9567 0.9566 0.9564
3470.000000 0.9563 0.9561 0.9560 0.9557 0.9555
3475.000000 0.9552 0.9549 0.9547 0.9544 0.9541
3480.000000 0.9538 0.9535 0.9532 0.9529 0.9526
3485.000000 0.9524 0.9521 0.9518 0.9515 0.9512
3490.000000 0.9509 0.9506 0.9503 0.9501 0.9498
3495.000000 0.9495 0.9492 0.9489 0.9486 0.9483
3500.000000 0.9481 0.9478 0.9475 0.9472 0.9469
3505.000000 0.9466 0.9463 0.9460 0.9457 0.9454
3510.000000 0.9451 0.9447 0.9443 0.9438 0.9433
3515.000000 0.9427 0.9422 0.9417 0.9413 0.9408
3520.000000 0.9403 0.9398 0.9393 0.9388 0.9383
3525.000000 0.9378 0.9373 0.9368 0.9363 0.9358
3530.000000 0.9353 0.9348 0.9342 0.9336 0.9330
3535.000000 0.9324 0.9318 0.9311 0.9303 0.9296
3540.000000 0.9288 0.9281 0.9274 0.9266 0.9259
3545.000000 0.9252 0.9244 0.9237 0.9230 0.9222
3550.000000 0.9215 0.9208 0.9200 0.9193 0.9186
3555.000000 0.9178 0.9171 0.9162 0.9153 0.9145
3560.000000 0.9136 0.9127 0.9117 0.9106 0.9096
3565.000000 0.9085 0.9075 0.9065 0.9054 0.9044
3570.000000 0.9034 0.9024 0.9014 0.9004 0.8993
3575.000000 0.8983 0.8973 0.8963 0.8953 0.8943
3580.000000 0.8932 0.8922 0.8911 0.8897 0.8884
3585.000000 0.8870 0.8856 0.8843 0.8829 0.8816
3590.000000 0.8802 0.8788 0.8775 0.8761 0.8748
3595.000000 0.8734 0.8721 0.8707 0.8695 0.8682
3600.000000 0.8670 0.8658 0.8645 0.8634 0.8622
3605.000000 0.8611 0.8600 0.8588 0.8577 0.8566
3610.000000 0.8554 0.8543 0.8532 0.8520 0.8509
3615.000000 0.8498 0.8486 0.8475 0.8464 0.8453
3620.000000 0.8442 0.8431 0.8420 0.8409 0.8397
3625.000000 0.8385 0.8373 0.8361 0.8349 0.8337
3630.000000 0.8324 0.8312 0.8299 0.8287 0.8276
3635.000000 0.8269 0.8262 0.8255 0.8248 0.8242
3640.000000 0.8238 0.8235 0.8231 0.8228 0.8225
3645.000000 0.8223 0.8223 0.8222 0.8222 0.8222
3650.000000 0.8222 0.8222 0.8222 0.8222 0.8222
3655.000000 0.8222 0.8222 0.8222 0.8223 0.8223
3660.000000 0.8223 0.8224 0.8224 0.8225 0.8226
3665.000000 0.8226 0.8207 0.8232 0.8236 0.8240
3670.000000 0.8244 0.8248 0.8252 0.8257 0.8261
3675.000000 0.8265 0.8269 0.8274 0.8278 0.8283
3680.000000 0.8287 0.8292 0.8296 0.8302 0.8308
3685.000000 0.8313 0.8319 0.8325 0.8332 0.8341
3690.000000 0.8350 0.8358 0.8367 0.8377 0.8392
3695.000000 0.8407 0.8422 0.8436 0.8451 0.8469
3700.000000 0.8488 0.8507 0.8525 0.8544 0.8564
3705.000000 0.8585 0.8606 0.8626 0.8647 0.8668
3710.000000 0.8695 0.8723 0.8750 0.8778 0.8806
3715.000000 0.8834 0.8864 0.8894 0.8924 0.8954
3720.000000 0.8984 0.9010 0.9033 0.9057 0.9081
3725.000000 0.9105 0.9127 0.9144 0.9161 0.9177
3730.000000 0.9194 0.9211 0.9223 0.9233 0.9243
3735.000000 0.9253 0.9263 0.9273 0.9283 0.9293
3740.000000 0.9303 0.9313 0.9323 0.9333 0.9342
3745.000000 0.9351 0.9360 0.9368 0.9377 0.9385
3750.000000 0.9392 0.9400 0.9407 0.9415 0.9422
3755.000000 0.9430 0.9437 0.9445 0.9452 0.9460
3760.000000 0.9467 0.9474 0.9481 0.9489 0.9496
3765.000000 0.9503 0.9510 0.9518 0.9525 0.9533
3770.000000 0.9540 0.9547 0.9552 0.9557 0.9562
3775.000000 0.9566 0.9571 0.9576 0.9581 0.9586
3780.000000 0.9590 0.9595 0.9600 0.9605 0.9609
3785.000000 0.9614 0.9619 0.9623 0.9628 0.9633
3790.000000 0.9637 0.9642 0.9647 0.9652 0.9656
3795.000000 0.9660 0.9664 0.9667 0.9671 0.9675
3800.000000 0.9678 0.9680 0.9683 0.9685 0.9688
3805.000000 0.9690 0.9692 0.9695 0.9697 0.9699
3810.000000 0.9701 0.9704 0.9706 0.9708 0.9710
3815.000000 0.9712 0.9715 0.9717 0.9719 0.9722
3820.000000 0.9724 0.9727 0.9729 0.9731 0.9733
3825.000000 0.9735 0.9736 0.9738 0.9740 0.9741
3830.000000 0.9743 0.9744 0.9745 0.9747 0.9748
3835.000000 0.9749 0.9750 0.9750 0.9751 0.9752
3840.000000 0.9752 0.9753 0.9753 0.9753 0.9753
3845.000000 0.9753 0.9753 0.9753 0.9753 0.9753
3850.000000 0.9753 0.9753 0.9753 0.9753 0.9753
3855.000000 0.9753 0.9753 0.9753 0.9753 0.9753
3860.000000 0.9753 0.9753 0.9753 0.9753 0.9752
3865.000000 0.9752 0.9752 0.9751 0.9751 0.9751
3870.000000 0.9750 0.9750 0.9749 0.9749 0.9748
3875.000000 0.9748 0.9747 0.9747 0.9746 0.9746
3880.000000 0.9745 0.9745 0.9744 0.9744 0.9743
3885.000000 0.9743 0.9743 0.9742 0.9742 0.9741
3890.000000 0.9741 0.9740 0.9740 0.9739 0.9739
3895.000000 0.9746 0.9738 0.9738 0.9737 0.9737
3900.000000 0.9737 0.9736 0.9735 0.9735 0.9734
3905.000000 0.9733 0.9733 0.9732 0.9732 0.9731
3910.000000 0.9731 0.9730 0.9730 0.9729 0.9729
3915.000000 0.9728 0.9728 0.9727 0.9727 0.9726
3920.000000 0.9726 0.9725 0.9724 0.9724 0.9723
3925.000000 0.9722 0.9722 0.9721 0.9721 0.9720
3930.000000 0.9720 0.9719 0.9719 0.9718 0.9717
3935.000000 0.9717 0.9716 0.9716 0.9715 0.9715
3940.000000 0.9714 0.9714 0.9713 0.9713 0.9712
3945.000000 0.9712 0.9711 0.9711 0.9710 0.9710
3950.000000 0.9709 0.9709 0.9708 0.9707 0.9707
3955.000000 0.9706 0.9705 0.9705 0.9704 0.9703
3960.000000 0.9703 0.9702 0.9701 0.9701 0.9700
3965.000000 0.9700 0.9699 0.9698 0.9698 0.9697
3970.000000 0.9697 0.9696 0.9696 0.9695 0.9695
3975.000000 0.9694 0.9694 0.9693 0.9692 0.9692
3980.000000 0.9691 0.9690 0.9690 0.9689 0.9689
3985.000000 0.9688 0.9687 0.9687 0.9686 0.9685
3990.000000 0.9685 0.9684 0.9684 0.9683 0.9682
3995.000000 0.9682 0.9681 0.9680 0.9680 0.9679
4000.000000 0.9679
##END=
