##TITLE=3,3-Dimethyl-1-butyne
##JCAMP-DX=4.24
##DATA TYPE=INFRARED SPECTRUM
##ORIGIN=NIST Mass Spectrometry Data Center
##OWNER=NIST Standard Reference Data Program
Collection (C) 2018 copyright by the U.S. Secretary of Commerce
on behalf of the United States of America. All rights reserved.
##CAS REGISTRY NO=917-92-0
##MOLFORM=C 6 H 10
##$NIST SOURCE=MSDC-IR
##SPECTROMETER/DATA SYSTEM=HP-GC/MS/IRD
##STATE=gas
##XUNITS=1/CM
##YUNITS=ABSORBANCE
##XFACTOR=1.0
##YFACTOR=0.000003800
##DELTAX=4.0
##FIRSTX=550.0
##LASTX=3846.0
##FIRSTY=0.005043
##MAXX=3846
##MINX=550
##MAXY=0.038
##MINY=0
##NPOINTS=825
##XYDATA=(X++(Y..Y))
550.0 1327 1100 935 767 623 490 374 306 274 281
590.0 300 333 419 575 849 1279 2010 3119 4573 6638
630.0 9051 10000 8795 6713 4690 3115 2013 1274 806 532
670.0 374 279 224 205 194 177 156 133 118 107
710.0 93 89 83 66 56 64 80 82 63 49
750.0 58 50 40 51 62 63 54 49 64 66
790.0 54 77 96 73 69 84 74 76 71 62
830.0 63 46 46 53 36 27 33 35 42 59
870.0 69 80 81 92 95 82 82 84 77 71
910.0 74 72 62 63 65 62 51 42 41 31
950.0 29 25 9 0 8 24 33 34 34 41
990.0 48 44 46 60 66 59 52 72 82 71
1030.0 90 101 79 75 80 72 62 59 61 69
1070.0 82 91 100 102 98 89 76 78 82 74
1110.0 64 57 55 60 65 72 69 77 86 98
1150.0 129 142 165 193 235 299 356 452 585 753
1190.0 935 1122 1302 1399 1370 1248 1089 946 891 1041
1230.0 1437 2100 2814 3223 3152 3572 3888 2995 2639 2528
1270.0 1912 1240 716 426 278 199 155 134 115 102
1310.0 91 85 87 91 110 138 186 269 389 543
1350.0 724 873 977 1136 1477 1557 1207 1046 1035 888
1390.0 667 495 379 291 263 254 242 229 227 254
1430.0 305 386 490 600 707 803 909 1052 1162 1189
1470.0 1142 1077 1071 959 771 705 622 483 343 242
1510.0 173 128 106 90 77 71 63 64 61 45
1550.0 39 42 45 43 44 45 43 41 36 34
1590.0 34 32 40 41 32 31 43 46 41 40
1630.0 41 45 48 46 48 53 57 57 49 45
1670.0 47 43 36 32 36 35 35 41 40 38
1710.0 41 40 37 35 34 35 39 37 30 28
1750.0 31 30 33 30 26 33 36 38 34 30
1790.0 33 31 28 27 26 27 33 37 32 27
1830.0 29 30 24 23 27 28 22 22 28 28
1870.0 25 24 34 38 33 32 34 31 27 28
1910.0 29 26 28 35 33 32 32 32 32 25
1950.0 21 22 19 12 13 12 9 12 10 10
1990.0 13 15 15 15 14 14 14 9 13 18
2030.0 18 21 28 29 29 34 39 49 59 70
2070.0 96 125 155 186 224 264 296 325 345 346
2110.0 327 306 282 253 214 175 152 135 118 99
2150.0 83 60 41 29 21 16 18 15 11 7
2190.0 1 4 6 8 9 6 7 7 3 10
2230.0 18 17 16 19 23 21 23 31 33 27
2270.0 25 32 33 28 23 27 32 26 24 26
2310.0 22 18 14 8 4 2 9 10 5 1
2350.0 1 7 6 6 2 2 6 7 13 19
2390.0 22 21 15 18 18 15 14 14 13 5
2430.0 1 2 5 7 5 10 15 9 4 6
2470.0 4 5 9 17 17 11 4 3 10 17
2510.0 14 10 8 7 7 5 9 13 11 10
2550.0 10 16 20 21 21 23 27 31 34 31
2590.0 26 29 28 21 21 26 25 20 23 22
2630.0 21 27 29 28 27 33 36 28 28 37
2670.0 37 36 44 50 58 65 82 93 84 71
2710.0 78 92 91 92 86 81 83 79 75 75
2750.0 72 76 79 72 79 87 93 100 110 126
2790.0 141 154 168 183 186 187 197 201 209 227
2830.0 244 267 302 346 419 531 702 920 1156 1370
2870.0 1565 1810 2031 2107 2090 2131 2220 2315 2423 2509
2910.0 2614 2757 2892 2990 3035 3084 3249 3506 3730 3917
2950.0 4241 4892 5907 6994 7865 8536 9326 9644 9172 8191
2990.0 6796 5395 3984 2713 1730 1067 667 442 314 248
3030.0 205 173 153 134 127 126 114 101 101 106
3070.0 108 112 113 113 109 109 113 123 117 98
3110.0 107 119 122 126 129 136 140 141 147 149
3150.0 156 156 154 151 138 128 117 115 119 121
3190.0 129 129 136 136 126 118 111 115 127 128
3230.0 140 147 142 148 156 162 163 175 216 261
3270.0 291 338 409 556 748 886 1043 1194 1622 2180
3310.0 2410 2715 2768 3046 3385 2690 2429 2478 1994 1406
3350.0 934 652 497 393 293 212 151 103 81 83
3390.0 57 36 39 36 40 38 32 31 36 16
3430.0 13 18 16 28 24 21 19 24 25 24
3470.0 31 33 37 36 42 50 49 49 59 61
3510.0 54 64 73 56 38 39 43 47 51 40
3550.0 28 19 22 16 5 3 8 20 20 16
3590.0 12 14 17 22 27 33 25 17 15 7
3630.0 14 12 12 21 19 26 24 24 18 5
3670.0 2 19 25 22 28 22 14 16 12 14
3710.0 22 20 11 5 8 19 19 7 3 10
3750.0 11 7 14 11 6 12 18 21 27 22
3790.0 19 24 14 13 24 27 23 24 24 25
3830.0 30 34 32 29 44
##END=
