##TITLE=3-Butyn-1-ol
##JCAMP-DX=4.24
##DATA TYPE=INFRARED SPECTRUM
##ORIGIN=NIST Mass Spectrometry Data Center
##OWNER=NIST Standard Reference Data Program
Collection (C) 2018 copyright by the U.S. Secretary of Commerce
on behalf of the United States of America. All rights reserved.
##CAS REGISTRY NO=927-74-2
##MOLFORM=C 4 H 6 O
##$NIST SOURCE=MSDC-IR
##SPECTROMETER/DATA SYSTEM=HP-GC/MS/IRD
##STATE=gas
##XUNITS=1/CM
##YUNITS=ABSORBANCE
##XFACTOR=1.0
##YFACTOR=0.000001400
##DELTAX=4.0
##FIRSTX=550.0
##LASTX=3846.0
##FIRSTY=0.000585
##MAXX=3846
##MINX=550
##MAXY=0.014
##MINY=0
##NPOINTS=825
##XYDATA=(X++(Y..Y))
550.0 418 647 611 591 513 404 337 301 299 336
590.0 288 358 483 706 923 1167 1636 2321 3284 4687
630.0 6320 8062 9707 10000 8494 6445 4686 3318 2309 1551
670.0 1046 713 544 415 289 217 123 113 132 89
710.0 71 80 58 40 88 116 83 75 95 66
750.0 16 0 15 43 52 25 25 66 80 92
790.0 106 121 121 137 182 195 269 346 356 411
830.0 440 479 505 503 506 451 439 467 440 426
870.0 399 325 272 242 236 204 184 211 212 211
910.0 229 223 207 229 261 310 401 464 507 551
950.0 581 598 619 627 636 651 670 741 818 877
990.0 985 1079 1155 1279 1418 1596 1856 2257 2724 3330
1030.0 4050 4801 5459 5909 6235 6477 6522 6074 5221 4411
1070.0 3835 3379 2928 2424 1922 1485 1189 974 772 663
1110.0 573 497 493 444 412 430 406 385 405 425
1150.0 445 473 494 517 530 584 638 658 683 695
1190.0 714 786 806 780 787 793 804 822 851 892
1230.0 971 1103 1315 1589 1818 1945 1953 1966 2049 2063
1270.0 1952 1771 1485 1214 1037 911 833 796 786 783
1310.0 783 804 816 805 824 867 881 888 883 869
1350.0 860 873 911 992 1105 1209 1320 1405 1452 1477
1390.0 1473 1428 1376 1306 1204 1094 995 898 811 749
1430.0 722 688 635 592 553 496 449 419 377 334
1470.0 317 321 302 279 277 277 253 212 184 191
1510.0 171 130 127 129 132 136 119 105 106 85
1550.0 71 83 103 70 47 59 62 57 54 43
1590.0 27 33 35 47 59 52 50 49 40 30
1630.0 32 42 48 52 56 73 68 30 23 33
1670.0 35 40 26 26 38 42 51 53 51 55
1710.0 36 42 55 27 20 22 18 31 46 41
1750.0 21 8 3 7 16 42 35 20 44 50
1790.0 44 51 51 41 30 39 39 24 23 25
1830.0 10 4 16 25 36 33 21 16 27 41
1870.0 43 39 51 70 78 74 67 77 66 45
1910.0 49 47 36 46 62 52 31 32 34 31
1950.0 21 21 25 28 34 34 42 47 48 36
1990.0 29 44 36 39 48 40 41 40 32 49
2030.0 68 68 58 61 74 71 76 97 108 119
2070.0 120 112 116 118 150 178 194 215 224 248
2110.0 277 302 317 300 300 288 252 218 167 134
2150.0 94 73 73 74 73 55 55 58 56 56
2190.0 61 67 60 52 51 45 32 31 47 56
2230.0 54 56 56 54 52 45 44 50 61 64
2270.0 56 44 27 26 38 41 38 50 61 56
2310.0 51 57 60 62 62 62 73 83 72 63
2350.0 68 64 74 83 85 82 74 81 67 61
2390.0 66 55 44 56 76 82 85 79 73 82
2430.0 59 40 59 66 48 55 49 30 36 54
2470.0 59 60 60 63 56 49 45 32 34 38
2510.0 52 66 52 29 29 36 35 40 44 29
2550.0 9 9 25 13 4 33 50 39 27 43
2590.0 55 28 13 29 34 33 46 63 62 72
2630.0 74 62 60 78 91 79 80 96 82 74
2670.0 117 124 118 146 157 165 150 134 150 158
2710.0 151 143 142 131 131 156 168 160 157 170
2750.0 187 177 167 168 191 201 180 177 177 171
2790.0 186 202 220 227 229 263 294 313 348 378
2830.0 394 429 496 549 584 638 742 863 944 1078
2870.0 1228 1388 1596 1789 1946 2090 2105 2068 2113 2157
2910.0 2204 2268 2314 2341 2435 2572 2670 2724 2779 2863
2950.0 3007 3015 2825 2685 2532 2272 1995 1807 1643 1474
2990.0 1252 990 748 580 479 382 300 233 196 147
3030.0 95 79 77 80 82 103 114 88 81 99
3070.0 104 102 92 58 61 51 18 12 11 44
3110.0 44 25 9 4 41 50 40 48 33 16
3150.0 38 45 40 31 38 36 27 22 38 32
3190.0 27 54 45 49 69 49 13 12 1 10
3230.0 52 62 26 10 82 154 158 153 175 226
3270.0 302 362 408 514 697 931 1207 1492 1699 1968
3310.0 2403 2994 3523 3407 3096 2824 2694 2950 2634 1813
3350.0 1119 684 465 369 294 237 228 194 166 119
3390.0 57 64 50 38 63 52 46 51 43 78
3430.0 85 48 69 91 55 16 55 97 61 31
3470.0 25 33 59 78 72 50 42 40 74 130
3510.0 114 81 104 119 113 119 76 53 73 84
3550.0 69 53 100 127 90 58 53 44 74 131
3590.0 161 184 233 292 412 575 678 735 765 749
3630.0 753 828 877 862 855 819 815 834 847 905
3670.0 933 896 807 712 609 512 408 308 220 175
3710.0 186 203 190 193 232 216 176 193 182 151
3750.0 173 180 132 105 104 90 59 72 117 101
3790.0 75 65 69 84 78 68 75 102 100 119
3830.0 132 118 116 149 161
##END=
