##TITLE=2-PROPANONE, 1,3-DIHYDROXY-
##JCAMP-DX=4.24
$$ By DXEDIT 1.05 (RS McDonald)
##DATA TYPE=INFRARED SPECTRUM
##CLASS=COBLENTZ III
##ORIGIN=WESTERN REGIONAL RES. USDA
##OWNER=COBLENTZ SOC.
Collection (C) 2018 copyright by the U.S. Secretary of Commerce
on behalf of the United States of America. All rights reserved.
##DATE=1965/10/08
##NAMES=1,3-dihydroxyacetone
##CAS REGISTRY NO=96-26-4
##MOLFORM=C3 H6 O3
##SOURCE REFERENCE=COBLENTZ NO. 06302
##$NIST SOURCE=COBLENTZ
##$NIST IMAGE=cob6302
##SPECTROMETER/DATA SYSTEM=CARY 90 (GRATING)
##INSTRUMENT PARAMETERS=ORDER CHANGES: 3000, 2000, 1200 CM^-^1
##STATE=SOLID (1% KBr DISC)
##SAMPLING PROCEDURE=TRANSMISSION
##RESOLUTION=2
##DATA PROCESSING=DIGITIZED BY COBLENTZ SOCIETY (BATCH I) FROM HARD COPY
##XUNITS=1/CM
##YUNITS=TRANSMITTANCE
##XLABEL=Wavenumbers (cm-1)
##YLABEL=Transmittance
##XFACTOR=1
##YFACTOR=1
##DELTAX=1
##FIRSTX=4014
##LASTX=484
##FIRSTY=0.8521
##MAXX=4014
##MINX=484
##MAXY=0.9105
##MINY=0.0259
##NPOINTS=3531
##XYDATA=(X++(Y..Y))
4014.000000 0.8521 0.8521 0.8523 0.8523 0.8524
4009.000000 0.8525 0.8525 0.8525 0.8527 0.8528
4004.000000 0.8528 0.8528 0.8530 0.8531 0.8532
3999.000000 0.8532 0.8533 0.8533 0.8534 0.8535
3994.000000 0.8535 0.8535 0.8535 0.8535 0.8535
3989.000000 0.8535 0.8535 0.8535 0.8535 0.8534
3984.000000 0.8534 0.8534 0.8534 0.8534 0.8534
3979.000000 0.8534 0.8534 0.8534 0.8534 0.8534
3974.000000 0.8535 0.8535 0.8536 0.8536 0.8537
3969.000000 0.8537 0.8538 0.8538 0.8539 0.8539
3964.000000 0.8540 0.8540 0.8541 0.8541 0.8542
3959.000000 0.8542 0.8543 0.8543 0.8544 0.8544
3954.000000 0.8545 0.8545 0.8546 0.8546 0.8547
3949.000000 0.8547 0.8547 0.8547 0.8547 0.8547
3944.000000 0.8548 0.8548 0.8548 0.8548 0.8548
3939.000000 0.8548 0.8549 0.8549 0.8549 0.8549
3934.000000 0.8549 0.8549 0.8550 0.8550 0.8550
3929.000000 0.8550 0.8550 0.8549 0.8548 0.8546
3924.000000 0.8545 0.8544 0.8543 0.8542 0.8541
3919.000000 0.8539 0.8538 0.8537 0.8536 0.8535
3914.000000 0.8534 0.8532 0.8531 0.8530 0.8528
3909.000000 0.8528 0.8528 0.8528 0.8528 0.8527
3904.000000 0.8527 0.8527 0.8527 0.8527 0.8527
3899.000000 0.8527 0.8527 0.8525 0.8525 0.8525
3894.000000 0.8525 0.8525 0.8525 0.8525 0.8525
3889.000000 0.8525 0.8525 0.8525 0.8525 0.8525
3884.000000 0.8525 0.8525 0.8525 0.8524 0.8523
3879.000000 0.8521 0.8521 0.8521 0.8521 0.8520
3874.000000 0.8520 0.8518 0.8518 0.8518 0.8517
3869.000000 0.8516 0.8516 0.8515 0.8515 0.8514
3864.000000 0.8514 0.8513 0.8513 0.8512 0.8512
3859.000000 0.8511 0.8510 0.8509 0.8509 0.8508
3854.000000 0.8508 0.8506 0.8505 0.8503 0.8502
3849.000000 0.8500 0.8499 0.8497 0.8496 0.8494
3844.000000 0.8493 0.8491 0.8490 0.8488 0.8487
3839.000000 0.8485 0.8484 0.8482 0.8481 0.8478
3834.000000 0.8478 0.8475 0.8475 0.8473 0.8471
3829.000000 0.8470 0.8468 0.8467 0.8466 0.8464
3824.000000 0.8463 0.8461 0.8460 0.8458 0.8457
3819.000000 0.8455 0.8453 0.8451 0.8450 0.8448
3814.000000 0.8447 0.8445 0.8444 0.8442 0.8441
3809.000000 0.8439 0.8437 0.8434 0.8432 0.8428
3804.000000 0.8427 0.8424 0.8421 0.8418 0.8416
3799.000000 0.8413 0.8411 0.8408 0.8405 0.8402
3794.000000 0.8400 0.8397 0.8395 0.8392 0.8389
3789.000000 0.8386 0.8384 0.8381 0.8378 0.8375
3784.000000 0.8373 0.8370 0.8368 0.8365 0.8363
3779.000000 0.8360 0.8357 0.8354 0.8352 0.8349
3774.000000 0.8347 0.8344 0.8341 0.8338 0.8336
3769.000000 0.8333 0.8331 0.8328 0.8325 0.8321
3764.000000 0.8320 0.8316 0.8313 0.8309 0.8305
3759.000000 0.8301 0.8297 0.8293 0.8289 0.8285
3754.000000 0.8281 0.8277 0.8274 0.8270 0.8266
3749.000000 0.8262 0.8258 0.8254 0.8250 0.8246
3744.000000 0.8242 0.8238 0.8235 0.8231 0.8227
3739.000000 0.8223 0.8218 0.8215 0.8211 0.8207
3734.000000 0.8203 0.8199 0.8195 0.8191 0.8188
3729.000000 0.8184 0.8180 0.8174 0.8168 0.8161
3724.000000 0.8156 0.8150 0.8144 0.8137 0.8131
3719.000000 0.8125 0.8118 0.8112 0.8107 0.8101
3714.000000 0.8095 0.8089 0.8083 0.8075 0.8069
3709.000000 0.8064 0.8058 0.8051 0.8046 0.8040
3704.000000 0.8034 0.8028 0.8021 0.8015 0.8008
3699.000000 0.8001 0.7996 0.7988 0.7980 0.7971
3694.000000 0.7964 0.7956 0.7948 0.7940 0.7932
3689.000000 0.7924 0.7915 0.7908 0.7900 0.7892
3684.000000 0.7884 0.7875 0.7868 0.7857 0.7847
3679.000000 0.7836 0.7825 0.7814 0.7803 0.7792
3674.000000 0.7781 0.7769 0.7758 0.7748 0.7737
3669.000000 0.7725 0.7715 0.7703 0.7692 0.7681
3664.000000 0.7669 0.7657 0.7645 0.7632 0.7619
3659.000000 0.7607 0.7594 0.7581 0.7568 0.7556
3654.000000 0.7543 0.7530 0.7518 0.7505 0.7493
3649.000000 0.7480 0.7467 0.7454 0.7442 0.7428
3644.000000 0.7415 0.7393 0.7369 0.7339 0.7308
3639.000000 0.7280 0.7251 0.7222 0.7195 0.7165
3634.000000 0.7138 0.7107 0.7076 0.7045 0.7014
3629.000000 0.6982 0.6951 0.6918 0.6887 0.6857
3624.000000 0.6828 0.6801 0.6775 0.6748 0.6721
3619.000000 0.6695 0.6668 0.6642 0.6615 0.6590
3614.000000 0.6564 0.6536 0.6508 0.6480 0.6451
3609.000000 0.6422 0.6395 0.6367 0.6339 0.6310
3604.000000 0.6282 0.6253 0.6225 0.6187 0.6149
3599.000000 0.6109 0.6070 0.6030 0.5991 0.5951
3594.000000 0.5910 0.5871 0.5832 0.5793 0.5754
3589.000000 0.5716 0.5678 0.5640 0.5602 0.5564
3584.000000 0.5526 0.5488 0.5450 0.5410 0.5371
3579.000000 0.5325 0.5280 0.5234 0.5189 0.5143
3574.000000 0.5098 0.5053 0.5008 0.4962 0.4917
3569.000000 0.4871 0.4825 0.4779 0.4733 0.4687
3564.000000 0.4641 0.4595 0.4549 0.4510 0.4474
3559.000000 0.4437 0.4400 0.4362 0.4326 0.4289
3554.000000 0.4253 0.4216 0.4179 0.4140 0.4102
3549.000000 0.4062 0.4022 0.3980 0.3941 0.3900
3544.000000 0.3860 0.3821 0.3780 0.3741 0.3700
3539.000000 0.3656 0.3610 0.3564 0.3518 0.3473
3534.000000 0.3427 0.3380 0.3334 0.3288 0.3242
3529.000000 0.3194 0.3147 0.3099 0.3051 0.3003
3524.000000 0.2956 0.2908 0.2861 0.2781 0.2702
3519.000000 0.2625 0.2549 0.2511 0.2474 0.2435
3514.000000 0.2399 0.2361 0.2324 0.2285 0.2248
3509.000000 0.2209 0.2171 0.2121 0.2071 0.2019
3504.000000 0.1968 0.1916 0.1865 0.1813 0.1762
3499.000000 0.1710 0.1658 0.1606 0.1555 0.1503
3494.000000 0.1452 0.1400 0.1349 0.1296 0.1246
3489.000000 0.1194 0.1142 0.1091 0.1039 0.0987
3484.000000 0.0936 0.0884 0.0833 0.0781 0.0730
3479.000000 0.0678 0.0627 0.0575 0.0524 0.0471
3474.000000 0.0419 0.0411 0.0403 0.0402 0.0402
3469.000000 0.0404 0.0382 0.0415 0.0423 0.0436
3464.000000 0.0449 0.0467 0.0485 0.0501 0.0518
3459.000000 0.0533 0.0548 0.0563 0.0578 0.0583
3454.000000 0.0589 0.0591 0.0633 0.0596 0.0597
3449.000000 0.0597 0.0596 0.0593 0.0591 0.0587
3444.000000 0.0583 0.0579 0.0575 0.0571 0.0568
3439.000000 0.0563 0.0558 0.0551 0.0544 0.0537
3434.000000 0.0530 0.0523 0.0517 0.0511 0.0506
3429.000000 0.0501 0.0496 0.0490 0.0485 0.0480
3424.000000 0.0475 0.0467 0.0462 0.0455 0.0449
3419.000000 0.0442 0.0436 0.0430 0.0411 0.0421
3414.000000 0.0421 0.0419 0.0419 0.0419 0.0421
3409.000000 0.0423 0.0425 0.0434 0.0444 0.0459
3404.000000 0.0473 0.0492 0.0511 0.0532 0.0554
3399.000000 0.0575 0.0596 0.0617 0.0638 0.0672
3394.000000 0.0707 0.0742 0.0778 0.0814 0.0850
3389.000000 0.0883 0.0916 0.0942 0.0970 0.0996
3384.000000 0.1022 0.1049 0.1076 0.1103 0.1130
3379.000000 0.1152 0.1174 0.1195 0.1217 0.1238
3374.000000 0.1260 0.1282 0.1304 0.1325 0.1346
3369.000000 0.1370 0.1394 0.1419 0.1445 0.1471
3364.000000 0.1496 0.1522 0.1548 0.1574 0.1600
3359.000000 0.1623 0.1646 0.1670 0.1693 0.1716
3354.000000 0.1739 0.1762 0.1784 0.1808 0.1831
3349.000000 0.1854 0.1877 0.1899 0.1922 0.1942
3344.000000 0.1963 0.1977 0.1991 0.2004 0.2019
3339.000000 0.2033 0.2046 0.2061 0.2075 0.2089
3334.000000 0.2103 0.2117 0.2131 0.2145 0.2159
3329.000000 0.2173 0.2187 0.2200 0.2214 0.2225
3324.000000 0.2235 0.2246 0.2257 0.2268 0.2279
3319.000000 0.2290 0.2301 0.2311 0.2322 0.2333
3314.000000 0.2344 0.2355 0.2366 0.2376 0.2387
3309.000000 0.2398 0.2409 0.2419 0.2430 0.2441
3304.000000 0.2452 0.2462 0.2473 0.2483 0.2493
3299.000000 0.2503 0.2513 0.2523 0.2533 0.2543
3294.000000 0.2553 0.2563 0.2573 0.2583 0.2593
3289.000000 0.2603 0.2613 0.2623 0.2633 0.2642
3284.000000 0.2651 0.2660 0.2669 0.2678 0.2687
3279.000000 0.2695 0.2704 0.2712 0.2721 0.2729
3274.000000 0.2737 0.2745 0.2753 0.2760 0.2768
3269.000000 0.2776 0.2784 0.2791 0.2799 0.2806
3264.000000 0.2813 0.2817 0.2821 0.2825 0.2829
3259.000000 0.2833 0.2837 0.2841 0.2845 0.2846
3254.000000 0.2848 0.2849 0.2850 0.2851 0.2853
3249.000000 0.2854 0.2855 0.2855 0.2856 0.2856
3244.000000 0.2857 0.2851 0.2845 0.2834 0.2823
3239.000000 0.2812 0.2802 0.2791 0.2780 0.2769
3234.000000 0.2758 0.2743 0.2728 0.2713 0.2698
3229.000000 0.2683 0.2668 0.2652 0.2637 0.2621
3224.000000 0.2606 0.2588 0.2570 0.2552 0.2534
3219.000000 0.2517 0.2499 0.2481 0.2463 0.2445
3214.000000 0.2427 0.2408 0.2390 0.2366 0.2342
3209.000000 0.2317 0.2293 0.2269 0.2245 0.2220
3204.000000 0.2196 0.2171 0.2147 0.2117 0.2088
3199.000000 0.2057 0.2027 0.1995 0.1966 0.1934
3194.000000 0.1904 0.1874 0.1844 0.1818 0.1792
3189.000000 0.1768 0.1744 0.1720 0.1696 0.1673
3184.000000 0.1650 0.1626 0.1602 0.1577 0.1553
3179.000000 0.1528 0.1503 0.1478 0.1453 0.1428
3174.000000 0.1404 0.1375 0.1346 0.1317 0.1288
3169.000000 0.1268 0.1248 0.1240 0.1232 0.1227
3164.000000 0.1223 0.1218 0.1214 0.1213 0.1212
3159.000000 0.1211 0.1156 0.1209 0.1209 0.1209
3154.000000 0.1209 0.1208 0.1208 0.1214 0.1220
3149.000000 0.1230 0.1240 0.1249 0.1259 0.1269
3144.000000 0.1279 0.1294 0.1309 0.1346 0.1385
3139.000000 0.1425 0.1466 0.1510 0.1555 0.1599
3134.000000 0.1644 0.1689 0.1734 0.1781 0.1829
3129.000000 0.1876 0.1924 0.1968 0.2012 0.2050
3124.000000 0.2089 0.2127 0.2166 0.2204 0.2243
3119.000000 0.2284 0.2327 0.2397 0.2468 0.2530
3114.000000 0.2593 0.2644 0.2695 0.2746 0.2797
3109.000000 0.2853 0.2909 0.2964 0.3020 0.3073
3104.000000 0.3127 0.3172 0.3218 0.3264 0.3309
3099.000000 0.3356 0.3402 0.3443 0.3484 0.3521
3094.000000 0.3558 0.3594 0.3630 0.3668 0.3705
3089.000000 0.3741 0.3778 0.3812 0.3849 0.3880
3084.000000 0.3912 0.3945 0.3977 0.4009 0.4042
3079.000000 0.4074 0.4106 0.4143 0.4180 0.4232
3074.000000 0.4285 0.4337 0.4389 0.4441 0.4494
3069.000000 0.4557 0.4620 0.4669 0.4719 0.4762
3064.000000 0.4807 0.4851 0.4895 0.4937 0.4980
3059.000000 0.5018 0.5056 0.5094 0.5133 0.5171
3054.000000 0.5209 0.5247 0.5285 0.5307 0.5330
3049.000000 0.5352 0.5374 0.5396 0.5419 0.5437
3044.000000 0.5456 0.5472 0.5488 0.5504 0.5520
3039.000000 0.5536 0.5552 0.5568 0.5584 0.5600
3034.000000 0.5616 0.5631 0.5647 0.5662 0.5679
3029.000000 0.5695 0.5710 0.5725 0.5739 0.5752
3024.000000 0.5765 0.5778 0.5792 0.5803 0.5815
3019.000000 0.5826 0.5838 0.5848 0.5858 0.5866
3014.000000 0.5875 0.5879 0.5951 0.5888 0.5893
3009.000000 0.5895 0.5898 0.5900 0.5903 0.5903
3004.000000 0.5904 0.5795 0.5686 0.5320 0.4955
2999.000000 0.4589 0.4124 0.4175 0.4128 0.4124
2994.000000 0.4121 0.4120 0.4120 0.4179 0.4239
2989.000000 0.4322 0.4405 0.4488 0.4571 0.4654
2984.000000 0.4738 0.4821 0.4904 0.4987 0.5070
2979.000000 0.5153 0.5236 0.5319 0.5402 0.5442
2974.000000 0.5482 0.5499 0.5516 0.5533 0.5550
2969.000000 0.5562 0.5643 0.5583 0.5589 0.5594
2964.000000 0.5599 0.5484 0.5369 0.4959 0.4550
2959.000000 0.4141 0.3732 0.3506 0.3280 0.3280
2954.000000 0.3279 0.3279 0.3278 0.3278 0.3278
2949.000000 0.3279 0.3280 0.3280 0.3282 0.3282
2944.000000 0.3284 0.3312 0.3340 0.3391 0.3442
2939.000000 0.3493 0.3544 0.3595 0.3646 0.3697
2934.000000 0.3748 0.3799 0.3850 0.3900 0.3952
2929.000000 0.4003 0.4054 0.4105 0.4156 0.4207
2924.000000 0.4258 0.4309 0.4360 0.4410 0.4462
2919.000000 0.4497 0.4533 0.4542 0.4551 0.4558
2914.000000 0.4566 0.4566 0.4567 0.4567 0.4568
2909.000000 0.4568 0.4569 0.4569 0.4568 0.4568
2904.000000 0.4566 0.4562 0.4558 0.4554 0.4551
2899.000000 0.4547 0.4543 0.4539 0.4535 0.4530
2894.000000 0.4529 0.4528 0.4440 0.4549 0.4568
2889.000000 0.4587 0.4606 0.4640 0.4674 0.4725
2884.000000 0.4776 0.4820 0.4865 0.4905 0.4945
2879.000000 0.4985 0.5025 0.5065 0.5106 0.5148
2874.000000 0.5191 0.5233 0.5275 0.5315 0.5356
2869.000000 0.5394 0.5432 0.5477 0.5522 0.5583
2864.000000 0.5645 0.5712 0.5782 0.5809 0.5836
2859.000000 0.5860 0.5884 0.5901 0.5918 0.5928
2854.000000 0.5938 0.5938 0.5938 0.5936 0.5935
2849.000000 0.5932 0.5929 0.5926 0.5923 0.5920
2844.000000 0.5917 0.5917 0.5918 0.5918 0.5918
2839.000000 0.5918 0.5919 0.5921 0.5924 0.5929
2834.000000 0.5934 0.5939 0.5944 0.5949 0.5954
2829.000000 0.5989 0.6025 0.6069 0.6112 0.6155
2824.000000 0.6198 0.6235 0.6272 0.6294 0.6316
2819.000000 0.6338 0.6360 0.6382 0.6404 0.6425
2814.000000 0.6448 0.6469 0.6492 0.6514 0.6536
2809.000000 0.6558 0.6580 0.6601 0.6622 0.6644
2804.000000 0.6665 0.6685 0.6706 0.6725 0.6747
2799.000000 0.6767 0.6788 0.6808 0.6828 0.6849
2794.000000 0.6869 0.6890 0.6911 0.6932 0.6953
2789.000000 0.6968 0.6983 0.6998 0.7012 0.7028
2784.000000 0.7043 0.7058 0.7072 0.7088 0.7103
2779.000000 0.7117 0.7132 0.7147 0.7161 0.7176
2774.000000 0.7192 0.7207 0.7221 0.7237 0.7251
2769.000000 0.7267 0.7282 0.7294 0.7307 0.7317
2764.000000 0.7328 0.7338 0.7349 0.7358 0.7368
2759.000000 0.7378 0.7390 0.7400 0.7410 0.7419
2754.000000 0.7431 0.7441 0.7451 0.7461 0.7471
2749.000000 0.7482 0.7493 0.7503 0.7512 0.7522
2744.000000 0.7533 0.7542 0.7551 0.7560 0.7569
2739.000000 0.7578 0.7589 0.7598 0.7608 0.7617
2734.000000 0.7625 0.7635 0.7645 0.7654 0.7664
2729.000000 0.7672 0.7683 0.7692 0.7701 0.7710
2724.000000 0.7719 0.7728 0.7739 0.7749 0.7758
2719.000000 0.7768 0.7778 0.7788 0.7798 0.7808
2714.000000 0.7818 0.7826 0.7837 0.7847 0.7858
2709.000000 0.7874 0.7890 0.7906 0.7921 0.7938
2704.000000 0.7954 0.7969 0.7986 0.8000 0.8014
2699.000000 0.8028 0.8042 0.8056 0.8069 0.8078
2694.000000 0.8086 0.8088 0.8091 0.8093 0.8096
2689.000000 0.8097 0.8098 0.8086 0.8075 0.8061
2684.000000 0.8048 0.8034 0.8019 0.8006 0.7993
2679.000000 0.7978 0.7965 0.7951 0.7938 0.7924
2674.000000 0.7910 0.7894 0.7878 0.7862 0.7847
2669.000000 0.7831 0.7815 0.7800 0.7784 0.7768
2664.000000 0.7751 0.7739 0.7725 0.7717 0.7708
2659.000000 0.7699 0.7691 0.7694 0.7698 0.7708
2654.000000 0.7718 0.7728 0.7740 0.7750 0.7761
2649.000000 0.7771 0.7782 0.7792 0.7803 0.7812
2644.000000 0.7824 0.7834 0.7844 0.7854 0.7864
2639.000000 0.7874 0.7884 0.7893 0.7903 0.7912
2634.000000 0.7922 0.7933 0.7943 0.7951 0.7961
2629.000000 0.7971 0.7982 0.7991 0.8001 0.8011
2624.000000 0.8021 0.8028 0.8036 0.8044 0.8051
2619.000000 0.8058 0.8067 0.8074 0.8082 0.8089
2614.000000 0.8097 0.8105 0.8112 0.8119 0.8128
2609.000000 0.8135 0.8143 0.8150 0.8158 0.8165
2604.000000 0.8174 0.8181 0.8189 0.8196 0.8203
2599.000000 0.8209 0.8216 0.8221 0.8228 0.8234
2594.000000 0.8241 0.8247 0.8254 0.8260 0.8267
2589.000000 0.8273 0.8280 0.8286 0.8293 0.8299
2584.000000 0.8305 0.8311 0.8318 0.8324 0.8331
2579.000000 0.8337 0.8344 0.8350 0.8357 0.8363
2574.000000 0.8370 0.8375 0.8383 0.8389 0.8396
2569.000000 0.8397 0.8398 0.8392 0.8387 0.8382
2564.000000 0.8377 0.8371 0.8366 0.8361 0.8356
2559.000000 0.8350 0.8345 0.8340 0.8335 0.8328
2554.000000 0.8324 0.8318 0.8314 0.8308 0.8303
2549.000000 0.8297 0.8292 0.8287 0.8282 0.8277
2544.000000 0.8273 0.8268 0.8267 0.8266 0.8268
2539.000000 0.8273 0.8278 0.8284 0.8290 0.8296
2534.000000 0.8302 0.8307 0.8313 0.8318 0.8324
2529.000000 0.8330 0.8336 0.8341 0.8347 0.8352
2524.000000 0.8358 0.8364 0.8370 0.8375 0.8381
2519.000000 0.8386 0.8392 0.8398 0.8404 0.8409
2514.000000 0.8415 0.8420 0.8425 0.8431 0.8437
2509.000000 0.8443 0.8449 0.8454 0.8460 0.8465
2504.000000 0.8471 0.8475 0.8482 0.8487 0.8493
2499.000000 0.8499 0.8505 0.8510 0.8516 0.8521
2494.000000 0.8527 0.8532 0.8538 0.8543 0.8549
2489.000000 0.8554 0.8560 0.8565 0.8571 0.8575
2484.000000 0.8581 0.8586 0.8591 0.8596 0.8601
2479.000000 0.8606 0.8612 0.8617 0.8621 0.8627
2474.000000 0.8632 0.8637 0.8642 0.8647 0.8653
2469.000000 0.8657 0.8662 0.8666 0.8670 0.8674
2464.000000 0.8678 0.8682 0.8686 0.8690 0.8694
2459.000000 0.8698 0.8702 0.8706 0.8710 0.8714
2454.000000 0.8718 0.8721 0.8725 0.8730 0.8734
2449.000000 0.8738 0.8742 0.8746 0.8750 0.8754
2444.000000 0.8759 0.8763 0.8767 0.8771 0.8775
2439.000000 0.8774 0.8774 0.8773 0.8773 0.8771
2434.000000 0.8771 0.8770 0.8768 0.8764 0.8760
2429.000000 0.8755 0.8751 0.8746 0.8742 0.8738
2424.000000 0.8734 0.8728 0.8725 0.8721 0.8718
2419.000000 0.8717 0.8716 0.8715 0.8714 0.8712
2414.000000 0.8711 0.8709 0.8708 0.8707 0.8706
2409.000000 0.8704 0.8704 0.8704 0.8705 0.8707
2404.000000 0.8710 0.8712 0.8715 0.8717 0.8720
2399.000000 0.8723 0.8725 0.8728 0.8731 0.8733
2394.000000 0.8736 0.8741 0.8746 0.8751 0.8756
2389.000000 0.8761 0.8766 0.8771 0.8777 0.8782
2384.000000 0.8787 0.8792 0.8797 0.8802 0.8808
2379.000000 0.8813 0.8818 0.8823 0.8828 0.8833
2374.000000 0.8839 0.8843 0.8848 0.8852 0.8856
2369.000000 0.8859 0.8863 0.8866 0.8870 0.8874
2364.000000 0.8878 0.8881 0.8885 0.8888 0.8892
2359.000000 0.8896 0.8900 0.8900 0.8900 0.8899
2354.000000 0.8898 0.8896 0.8894 0.8892 0.8891
2349.000000 0.8889 0.8887 0.8885 0.8884 0.8882
2344.000000 0.8880 0.8877 0.8875 0.8871 0.8868
2339.000000 0.8866 0.8863 0.8860 0.8857 0.8854
2334.000000 0.8852 0.8849 0.8846 0.8843 0.8840
2329.000000 0.8837 0.8834 0.8834 0.8835 0.8835
2324.000000 0.8836 0.8837 0.8838 0.8838 0.8839
2319.000000 0.8839 0.8840 0.8840 0.8841 0.8842
2314.000000 0.8843 0.8843 0.8844 0.8845 0.8847
2309.000000 0.8850 0.8853 0.8856 0.8859 0.8862
2304.000000 0.8865 0.8868 0.8871 0.8874 0.8877
2299.000000 0.8880 0.8883 0.8885 0.8888 0.8891
2294.000000 0.8894 0.8897 0.8900 0.8903 0.8906
2289.000000 0.8909 0.8912 0.8915 0.8918 0.8921
2284.000000 0.8924 0.8927 0.8930 0.8932 0.8935
2279.000000 0.8936 0.8938 0.8940 0.8942 0.8944
2274.000000 0.8946 0.8947 0.8949 0.8951 0.8953
2269.000000 0.8955 0.8957 0.8958 0.8960 0.8962
2264.000000 0.8964 0.8966 0.8968 0.8968 0.8971
2259.000000 0.8971 0.8974 0.8974 0.8975 0.8975
2254.000000 0.8975 0.8977 0.8978 0.8978 0.8978
2249.000000 0.8978 0.8980 0.8981 0.8982 0.8982
2244.000000 0.8983 0.8983 0.8984 0.8984 0.8985
2239.000000 0.8986 0.8987 0.8987 0.8988 0.8988
2234.000000 0.8989 0.8989 0.8990 0.8990 0.8990
2229.000000 0.8990 0.8990 0.8990 0.8991 0.8991
2224.000000 0.8991 0.8991 0.8991 0.8991 0.8991
2219.000000 0.8991 0.8991 0.8991 0.8991 0.8991
2214.000000 0.8992 0.8992 0.8992 0.8992 0.8992
2209.000000 0.8992 0.8992 0.8992 0.8992 0.8992
2204.000000 0.8992 0.8992 0.8992 0.8992 0.8992
2199.000000 0.8991 0.8991 0.8990 0.8990 0.8989
2194.000000 0.8989 0.8988 0.8988 0.8987 0.8987
2189.000000 0.8986 0.8986 0.8985 0.8985 0.8984
2184.000000 0.8984 0.8983 0.8983 0.8983 0.8983
2179.000000 0.8982 0.8982 0.8981 0.8981 0.8980
2174.000000 0.8980 0.8978 0.8978 0.8978 0.8977
2169.000000 0.8975 0.8974 0.8973 0.8971 0.8971
2164.000000 0.8970 0.8968 0.8968 0.8966 0.8965
2159.000000 0.8964 0.8963 0.8962 0.8961 0.8960
2154.000000 0.8959 0.8957 0.8955 0.8951 0.8947
2149.000000 0.8942 0.8938 0.8933 0.8928 0.8925
2144.000000 0.8921 0.8916 0.8911 0.8905 0.8899
2139.000000 0.8893 0.8887 0.8881 0.8875 0.8868
2134.000000 0.8864 0.8858 0.8852 0.8846 0.8840
2129.000000 0.8834 0.8828 0.8823 0.8817 0.8811
2124.000000 0.8806 0.8800 0.8795 0.8789 0.8783
2119.000000 0.8777 0.8771 0.8770 0.8768 0.8768
2114.000000 0.8768 0.8768 0.8768 0.8768 0.8768
2109.000000 0.8768 0.8768 0.8768 0.8768 0.8768
2104.000000 0.8768 0.8768 0.8768 0.8768 0.8768
2099.000000 0.8768 0.8768 0.8768 0.8768 0.8768
2094.000000 0.8768 0.8768 0.8768 0.8768 0.8768
2089.000000 0.8767 0.8767 0.8766 0.8766 0.8766
2084.000000 0.8766 0.8765 0.8765 0.8764 0.8764
2079.000000 0.8764 0.8764 0.8763 0.8763 0.8762
2074.000000 0.8762 0.8762 0.8762 0.8761 0.8761
2069.000000 0.8760 0.8760 0.8760 0.8760 0.8759
2064.000000 0.8759 0.8758 0.8758 0.8758 0.8758
2059.000000 0.8757 0.8757 0.8757 0.8757 0.8757
2054.000000 0.8758 0.8758 0.8758 0.8758 0.8758
2049.000000 0.8758 0.8758 0.8758 0.8758 0.8758
2044.000000 0.8758 0.8758 0.8759 0.8760 0.8761
2039.000000 0.8762 0.8764 0.8765 0.8766 0.8767
2034.000000 0.8768 0.8768 0.8771 0.8771 0.8773
2029.000000 0.8774 0.8775 0.8777 0.8778 0.8778
2024.000000 0.8781 0.8783 0.8785 0.8786 0.8788
2019.000000 0.8790 0.8792 0.8793 0.8795 0.8797
2014.000000 0.8799 0.8800 0.8802 0.8802 0.8803
2009.000000 0.8804 0.8805 0.8806 0.8806 0.8806
2004.000000 0.8806 0.8806 0.8806 0.8818 0.8832
1999.000000 0.8866 0.8901 0.8936 0.8970 0.9005
1994.000000 0.9040 0.9075 0.9080 0.9078 0.9078
1989.000000 0.9077 0.9075 0.9075 0.9074 0.9073
1984.000000 0.9073 0.9071 0.9071 0.9070 0.9068
1979.000000 0.9068 0.9067 0.9066 0.9065 0.9064
1974.000000 0.9064 0.9063 0.9063 0.9065 0.9067
1969.000000 0.9070 0.9071 0.9074 0.9075 0.9078
1964.000000 0.9081 0.9083 0.9085 0.9087 0.9089
1959.000000 0.9092 0.9094 0.9096 0.9098 0.9100
1954.000000 0.9102 0.9104 0.9104 0.9105 0.9103
1949.000000 0.9102 0.9100 0.9098 0.9096 0.9094
1944.000000 0.9088 0.9082 0.9075 0.9071 0.9065
1939.000000 0.9059 0.9053 0.9049 0.9047 0.9045
1934.000000 0.9042 0.9040 0.9038 0.9036 0.9034
1929.000000 0.9032 0.9028 0.9027 0.9025 0.9023
1924.000000 0.9021 0.9018 0.9017 0.9017 0.9018
1919.000000 0.9018 0.9018 0.9018 0.9020 0.9021
1914.000000 0.9021 0.9021 0.9021 0.9023 0.9023
1909.000000 0.9024 0.9024 0.9025 0.9025 0.9025
1904.000000 0.9027 0.9027 0.9028 0.9028 0.9028
1899.000000 0.9028 0.9030 0.9030 0.9031 0.9031
1894.000000 0.9031 0.9031 0.9031 0.9031 0.9032
1889.000000 0.9032 0.9032 0.9032 0.9032 0.9033
1884.000000 0.9033 0.9033 0.9033 0.9033 0.9034
1879.000000 0.9034 0.9034 0.9034 0.9034 0.9034
1874.000000 0.9034 0.9033 0.9032 0.9031 0.9031
1869.000000 0.9030 0.9028 0.9028 0.9028 0.9027
1864.000000 0.9027 0.9025 0.9025 0.9025 0.9024
1859.000000 0.9023 0.9023 0.9021 0.9021 0.9021
1854.000000 0.9020 0.9018 0.9018 0.9016 0.9014
1849.000000 0.9012 0.9010 0.9008 0.9006 0.9004
1844.000000 0.9003 0.9001 0.8999 0.8997 0.8995
1839.000000 0.8993 0.8991 0.8989 0.8987 0.8985
1834.000000 0.8984 0.8982 0.8980 0.8978 0.8975
1829.000000 0.8974 0.8971 0.8970 0.8968 0.8966
1824.000000 0.8964 0.8963 0.8961 0.8959 0.8957
1819.000000 0.8955 0.8953 0.8951 0.8949 0.8948
1814.000000 0.8947 0.8945 0.8944 0.8942 0.8941
1809.000000 0.8939 0.8938 0.8936 0.8935 0.8933
1804.000000 0.8932 0.8930 0.8928 0.8927 0.8925
1799.000000 0.8924 0.8923 0.8920 0.8916 0.8913
1794.000000 0.8909 0.8906 0.8902 0.8899 0.8896
1789.000000 0.8892 0.8889 0.8885 0.8882 0.8878
1784.000000 0.8875 0.8871 0.8868 0.8866 0.8860
1779.000000 0.8853 0.8847 0.8841 0.8835 0.8828
1774.000000 0.8823 0.8818 0.8813 0.8808 0.8803
1769.000000 0.8797 0.8792 0.8787 0.8782 0.8777
1764.000000 0.8761 0.8744 0.8727 0.8710 0.8693
1759.000000 0.8675 0.8659 0.8642 0.8617 0.8586
1754.000000 0.8554 0.8518 0.8483 0.8434 0.8381
1749.000000 0.8314 0.8239 0.8164 0.8083 0.7996
1744.000000 0.7837 0.7692 0.7547 0.7401 0.7257
1739.000000 0.7111 0.6967 0.6821 0.6676 0.6532
1734.000000 0.6387 0.6242 0.6097 0.5952 0.5807
1729.000000 0.5662 0.5615 0.5600 0.5601 0.5602
1724.000000 0.5616 0.5651 0.5709 0.5807 0.5920
1719.000000 0.6032 0.6145 0.6257 0.6370 0.6482
1714.000000 0.6594 0.6707 0.6818 0.6932 0.7044
1709.000000 0.7157 0.7268 0.7382 0.7494 0.7606
1704.000000 0.7718 0.7775 0.7814 0.7862 0.7911
1699.000000 0.7961 0.8010 0.8058 0.8108 0.8157
1694.000000 0.8188 0.8216 0.8244 0.8271 0.8299
1689.000000 0.8318 0.8328 0.8340 0.8351 0.8362
1684.000000 0.8373 0.8384 0.8395 0.8401 0.8406
1679.000000 0.8410 0.8415 0.8415 0.8415 0.8413
1674.000000 0.8410 0.8408 0.8405 0.8402 0.8394
1669.000000 0.8387 0.8380 0.8373 0.8365 0.8358
1664.000000 0.8351 0.8344 0.8334 0.8318 0.8302
1659.000000 0.8286 0.8270 0.8255 0.8239 0.8218
1654.000000 0.8187 0.8156 0.8125 0.8094 0.8064
1649.000000 0.8038 0.8014 0.7990 0.7967 0.7943
1644.000000 0.7918 0.7898 0.7875 0.7855 0.7833
1639.000000 0.7811 0.7791 0.7771 0.7751 0.7731
1634.000000 0.7711 0.7692 0.7671 0.7411 0.7311
1629.000000 0.7286 0.7337 0.7393 0.7450 0.7506
1624.000000 0.7562 0.7630 0.7649 0.7647 0.7558
1619.000000 0.7411 0.7265 0.7131 0.7111 0.7111
1614.000000 0.7271 0.7468 0.7582 0.7597 0.7612
1609.000000 0.7628 0.7643 0.7658 0.7674 0.7689
1604.000000 0.7704 0.7722 0.7741 0.7758 0.7778
1599.000000 0.7796 0.7814 0.7833 0.7851 0.7867
1594.000000 0.7880 0.7893 0.7906 0.7918 0.7932
1589.000000 0.7946 0.7958 0.7967 0.7971 0.7975
1584.000000 0.7980 0.7984 0.7989 0.7993 0.7998
1579.000000 0.8001 0.8007 0.8011 0.8014 0.8014
1574.000000 0.8014 0.8015 0.8015 0.8015 0.8015
1569.000000 0.8015 0.8015 0.8015 0.8015 0.8015
1564.000000 0.8015 0.8017 0.8017 0.8015 0.8012
1559.000000 0.8011 0.8008 0.8003 0.7998 0.7992
1554.000000 0.7987 0.7982 0.7976 0.7968 0.7961
1549.000000 0.7951 0.7944 0.7935 0.7925 0.7918
1544.000000 0.7908 0.7901 0.7892 0.7883 0.7875
1539.000000 0.7860 0.7844 0.7828 0.7811 0.7795
1534.000000 0.7778 0.7758 0.7737 0.7715 0.7693
1529.000000 0.7671 0.7649 0.7625 0.7604 0.7582
1524.000000 0.7560 0.7534 0.7507 0.7480 0.7454
1519.000000 0.7426 0.7400 0.7372 0.7346 0.7319
1514.000000 0.7292 0.7261 0.7230 0.7200 0.7168
1509.000000 0.7138 0.7107 0.7075 0.7011 0.6948
1504.000000 0.6885 0.6801 0.6717 0.6632 0.6547
1499.000000 0.6462 0.6378 0.6275 0.6138 0.6001
1494.000000 0.5893 0.5795 0.5697 0.5619 0.5541
1489.000000 0.5462 0.5369 0.5221 0.5007 0.4850
1484.000000 0.4692 0.4535 0.4378 0.4220 0.4062
1479.000000 0.3906 0.3749 0.3591 0.3434 0.3277
1474.000000 0.3119 0.3094 0.3084 0.3078 0.3077
1469.000000 0.3009 0.3083 0.3108 0.3133 0.3158
1464.000000 0.3183 0.3221 0.3268 0.3314 0.3362
1459.000000 0.3422 0.3476 0.3489 0.3503 0.3516
1454.000000 0.3530 0.3543 0.3556 0.3559 0.3564
1449.000000 0.3568 0.3573 0.3587 0.3604 0.3623
1444.000000 0.3673 0.3723 0.3773 0.3858 0.3966
1439.000000 0.4086 0.4231 0.4354 0.4701 0.4738
1434.000000 0.4748 0.4758 0.4766 0.4795 0.4752
1429.000000 0.4722 0.4671 0.4592 0.4495 0.4457
1424.000000 0.4454 0.4453 0.4453 0.4462 0.4491
1419.000000 0.4541 0.4591 0.4641 0.4685 0.4726
1414.000000 0.4767 0.4809 0.4850 0.4892 0.4958
1409.000000 0.5024 0.5129 0.5233 0.5299 0.5370
1404.000000 0.5405 0.5436 0.5446 0.5455 0.5519
1399.000000 0.5465 0.5466 0.5467 0.5468 0.5458
1394.000000 0.5428 0.5391 0.5354 0.5315 0.5275
1389.000000 0.5243 0.5223 0.5215 0.5207 0.5205
1384.000000 0.5204 0.5203 0.5106 0.5201 0.5203
1379.000000 0.5205 0.5215 0.5242 0.5268 0.5294
1374.000000 0.5374 0.5457 0.5555 0.5645 0.5708
1369.000000 0.5770 0.5821 0.5862 0.5903 0.5943
1364.000000 0.5944 0.5939 0.5935 0.5930 0.5926
1359.000000 0.5923 0.5921 0.5921 0.5920 0.5930
1354.000000 0.5940 0.5950 0.5960 0.5970 0.5980
1349.000000 0.5991 0.6001 0.6010 0.6065 0.6026
1344.000000 0.6032 0.6031 0.6031 0.6031 0.6031
1339.000000 0.6003 0.5958 0.5890 0.5822 0.5749
1334.000000 0.5627 0.5504 0.5370 0.5250 0.5159
1329.000000 0.5066 0.4904 0.4722 0.4439 0.4142
1324.000000 0.3844 0.3547 0.3250 0.2953 0.2655
1319.000000 0.2520 0.2531 0.2530 0.2584 0.2715
1314.000000 0.2847 0.2979 0.3111 0.3242 0.3338
1309.000000 0.3347 0.3350 0.3359 0.3316 0.3146
1304.000000 0.2974 0.2802 0.2630 0.2459 0.2287
1299.000000 0.2115 0.1915 0.1932 0.1929 0.2016
1294.000000 0.2311 0.2606 0.2901 0.3196 0.3492
1289.000000 0.3787 0.4082 0.4377 0.4672 0.4967
1284.000000 0.5143 0.5159 0.5172 0.5176 0.5186
1279.000000 0.5066 0.4671 0.4276 0.3880 0.3486
1274.000000 0.3091 0.2696 0.2301 0.2124 0.2135
1269.000000 0.2347 0.2866 0.3384 0.3903 0.4108
1264.000000 0.4262 0.4419 0.4575 0.4731 0.4887
1259.000000 0.5043 0.5199 0.5354 0.5385 0.5398
1254.000000 0.5407 0.5442 0.5422 0.5427 0.5412
1249.000000 0.5326 0.5239 0.5151 0.5064 0.4976
1244.000000 0.4889 0.4802 0.4785 0.4780 0.4770
1239.000000 0.4776 0.4797 0.4866 0.4966 0.5065
1234.000000 0.5165 0.5264 0.5364 0.5462 0.5562
1229.000000 0.5618 0.5623 0.5660 0.5627 0.5626
1224.000000 0.5608 0.5580 0.5551 0.5517 0.5483
1219.000000 0.5443 0.5097 0.4654 0.4210 0.3766
1214.000000 0.3324 0.2881 0.2438 0.1994 0.1659
1209.000000 0.1656 0.1654 0.1659 0.1669 0.1879
1204.000000 0.2149 0.2419 0.2688 0.2958 0.3228
1199.000000 0.3498 0.3768 0.4037 0.4307 0.4577
1194.000000 0.4847 0.5116 0.5299 0.5338 0.5320
1189.000000 0.5320 0.5321 0.5317 0.5174 0.5028
1184.000000 0.4883 0.4737 0.4591 0.4445 0.4299
1179.000000 0.4153 0.4008 0.3862 0.3716 0.3570
1174.000000 0.3424 0.3278 0.3133 0.3083 0.3092
1169.000000 0.3087 0.3218 0.3350 0.3482 0.3614
1164.000000 0.3746 0.3857 0.3871 0.3874 0.3877
1159.000000 0.3759 0.3612 0.3466 0.3318 0.3172
1154.000000 0.3025 0.2878 0.2730 0.2583 0.2435
1149.000000 0.2289 0.2142 0.2095 0.2073 0.2071
1144.000000 0.2167 0.2414 0.2662 0.2910 0.3157
1139.000000 0.3405 0.3653 0.3900 0.4148 0.4396
1134.000000 0.4538 0.4587 0.4633 0.4673 0.4710
1129.000000 0.4729 0.4745 0.4755 0.4751 0.4751
1124.000000 0.4742 0.4708 0.4668 0.4623 0.4392
1119.000000 0.4074 0.3756 0.3438 0.3120 0.2802
1114.000000 0.2484 0.2167 0.1849 0.1531 0.1213
1109.000000 0.1063 0.1062 0.1062 0.1102 0.1160
1104.000000 0.1198 0.1233 0.1268 0.1292 0.1316
1099.000000 0.1338 0.1350 0.1357 0.1363 0.1371
1094.000000 0.1379 0.1396 0.1415 0.1438 0.1494
1089.000000 0.1550 0.1615 0.1691 0.1937 0.1885
1084.000000 0.1902 0.1916 0.1779 0.1622 0.1464
1079.000000 0.1305 0.1146 0.0988 0.0830 0.0671
1074.000000 0.0513 0.0368 0.0321 0.0303 0.0295
1069.000000 0.0291 0.0290 0.0259 0.0298 0.0305
1064.000000 0.0318 0.0333 0.0349 0.0404 0.0507
1059.000000 0.0610 0.0714 0.0817 0.0919 0.0908
1054.000000 0.0897 0.0889 0.0884 0.0881 0.0881
1049.000000 0.0914 0.1117 0.1320 0.1522 0.1725
1044.000000 0.1928 0.2130 0.2333 0.2466 0.2549
1039.000000 0.2924 0.3188 0.3320 0.3450 0.3577
1034.000000 0.3664 0.3734 0.3776 0.3818 0.3898
1029.000000 0.4009 0.4122 0.4234 0.4346 0.4423
1024.000000 0.4471 0.4519 0.4550 0.4579 0.4605
1019.000000 0.4626 0.4642 0.4701 0.4658 0.4651
1014.000000 0.4629 0.4607 0.4576 0.4534 0.4486
1009.000000 0.4431 0.4376 0.4162 0.3834 0.3507
1004.000000 0.3179 0.2851 0.2524 0.2196 0.1868
999.000000 0.1540 0.1213 0.0928 0.0910 0.0904
994.000000 0.0907 0.0960 0.1231 0.1502 0.1774
989.000000 0.2044 0.2316 0.2587 0.2859 0.3130
984.000000 0.3400 0.3672 0.3944 0.4215 0.4486
979.000000 0.4757 0.4829 0.4879 0.4845 0.4568
974.000000 0.4072 0.3576 0.3080 0.2584 0.2089
969.000000 0.1592 0.1096 0.0623 0.0621 0.0621
964.000000 0.0685 0.0640 0.0664 0.0818 0.1185
959.000000 0.1553 0.1920 0.2287 0.2655 0.3022
954.000000 0.3389 0.3756 0.4124 0.4491 0.4858
949.000000 0.4905 0.4893 0.4897 0.4567 0.2930
944.000000 0.2411 0.2422 0.2409 0.2430 0.2824
939.000000 0.3243 0.3660 0.4080 0.4498 0.4917
934.000000 0.5316 0.5424 0.5531 0.5615 0.5673
929.000000 0.5732 0.5790 0.5848 0.5894 0.5940
924.000000 0.5986 0.6032 0.6078 0.6117 0.6149
919.000000 0.6167 0.6185 0.6203 0.6203 0.6202
914.000000 0.6201 0.6199 0.6195 0.6191 0.6190
909.000000 0.6189 0.6193 0.6197 0.6203 0.6210
904.000000 0.6235 0.6283 0.6330 0.6378 0.6371
899.000000 0.6437 0.6436 0.6432 0.6403 0.6304
894.000000 0.6248 0.6223 0.6201 0.6174 0.6146
889.000000 0.6076 0.6028 0.5649 0.5104 0.4560
884.000000 0.4016 0.3472 0.2927 0.2383 0.1954
879.000000 0.1944 0.1948 0.2390 0.2927 0.3464
874.000000 0.4002 0.4408 0.4447 0.3905 0.3290
869.000000 0.2676 0.2062 0.1764 0.1741 0.1771
864.000000 0.2089 0.2406 0.2724 0.3041 0.3358
859.000000 0.3676 0.3993 0.4310 0.4628 0.4946
854.000000 0.5262 0.5580 0.5744 0.5885 0.6001
849.000000 0.6105 0.6160 0.6217 0.6265 0.6306
844.000000 0.6345 0.6378 0.6403 0.6419 0.6432
839.000000 0.6438 0.6451 0.6432 0.6407 0.6381
834.000000 0.6354 0.6321 0.6288 0.6258 0.6234
829.000000 0.6210 0.6181 0.6146 0.6110 0.6077
824.000000 0.6042 0.5997 0.5942 0.5886 0.5802
819.000000 0.5654 0.5492 0.5333 0.4572 0.3755
814.000000 0.2939 0.2122 0.1305 0.0660 0.0639
809.000000 0.0646 0.0683 0.1116 0.1549 0.1981
804.000000 0.2414 0.2847 0.3280 0.3712 0.4145
799.000000 0.4578 0.5010 0.5421 0.5488 0.5555
794.000000 0.5621 0.5688 0.5747 0.5787 0.5823
789.000000 0.5847 0.5870 0.5894 0.5915 0.5932
784.000000 0.5947 0.5947 0.5946 0.5938 0.5928
779.000000 0.5917 0.5885 0.5852 0.5818 0.5767
774.000000 0.5707 0.5633 0.5545 0.5438 0.5303
769.000000 0.5155 0.4876 0.4597 0.4318 0.4039
764.000000 0.3759 0.3480 0.3202 0.3115 0.3105
759.000000 0.3103 0.3309 0.3718 0.4126 0.4534
754.000000 0.4765 0.4794 0.4794 0.4795 0.4814
749.000000 0.4814 0.4805 0.4789 0.4591 0.4387
744.000000 0.4183 0.3979 0.3775 0.3571 0.3366
739.000000 0.3164 0.2960 0.2756 0.2552 0.2473
734.000000 0.2452 0.2432 0.2420 0.2418 0.2438
729.000000 0.2457 0.2530 0.2564 0.2571 0.2579
724.000000 0.2578 0.2578 0.2324 0.2042 0.1760
719.000000 0.1500 0.1519 0.1492 0.1498 0.1879
714.000000 0.2304 0.2728 0.3153 0.3577 0.4002
709.000000 0.4217 0.4342 0.4429 0.4500 0.4571
704.000000 0.4664 0.4702 0.4723 0.4744 0.4757
699.000000 0.4767 0.4822 0.4772 0.4766 0.4758
694.000000 0.4750 0.4742 0.4718 0.4695 0.4672
689.000000 0.4647 0.4612 0.4577 0.4543 0.4508
684.000000 0.4474 0.4439 0.4404 0.4370 0.4333
679.000000 0.4289 0.4246 0.4203 0.4159 0.4110
674.000000 0.4055 0.3998 0.3941 0.3886 0.3837
669.000000 0.3788 0.3739 0.3690 0.3640 0.3590
664.000000 0.3540 0.3490 0.3439 0.3389 0.3330
659.000000 0.3271 0.3212 0.3152 0.3093 0.3033
654.000000 0.2974 0.2909 0.2841 0.2772 0.2704
649.000000 0.2640 0.2590 0.2541 0.2491 0.2441
644.000000 0.2395 0.2350 0.2304 0.2251 0.2194
639.000000 0.2139 0.2101 0.2078 0.2072 0.2075
634.000000 0.2061 0.2071 0.2098 0.2131 0.2171
629.000000 0.2210 0.2250 0.2289 0.2328 0.2368
624.000000 0.2408 0.2451 0.2495 0.2539 0.2581
619.000000 0.2624 0.2666 0.2708 0.2751 0.2790
614.000000 0.2829 0.2868 0.2906 0.2942 0.2979
609.000000 0.3015 0.3041 0.3068 0.3094 0.3116
604.000000 0.3125 0.3124 0.3124 0.3124 0.3124
599.000000 0.3121 0.3113 0.3105 0.3096 0.3081
594.000000 0.3062 0.3043 0.3020 0.2992 0.2964
589.000000 0.2935 0.2901 0.2863 0.2824 0.2767
584.000000 0.2709 0.2680 0.2674 0.2668 0.2662
579.000000 0.2654 0.2645 0.2635 0.2627 0.2609
574.000000 0.2584 0.2561 0.2534 0.2503 0.2472
569.000000 0.2441 0.2422 0.2407 0.2397 0.2393
564.000000 0.2413 0.2390 0.2394 0.2397 0.2437
559.000000 0.2480 0.2524 0.2567 0.2611 0.2654
554.000000 0.2713 0.2729 0.2738 0.2743 0.2745
549.000000 0.2561 0.2245 0.1928 0.1756 0.1777
544.000000 0.1812 0.1852 0.2074 0.2354 0.2634
539.000000 0.2914 0.3126 0.3194 0.3260 0.3328
534.000000 0.3395 0.3459 0.3518 0.3580 0.3641
529.000000 0.3694 0.3737 0.3780 0.3822 0.3864
524.000000 0.3903 0.3936 0.3968 0.4002 0.4036
519.000000 0.4068 0.4104 0.4139 0.4173 0.4208
514.000000 0.4246 0.4286 0.4324 0.4358 0.4390
509.000000 0.4417 0.4445 0.4464 0.4471 0.4482
504.000000 0.4478 0.4353 0.4229 0.4105 0.3980
499.000000 0.3856 0.3732 0.3674 0.3687 0.3700
494.000000 0.3720 0.3742 0.3838 0.3950 0.4064
489.000000 0.4179 0.4293 0.4407 0.4520 0.4627
484.000000 0.4718
##END=
