##TITLE=ETHYLENE CARBONATE
##JCAMP-DX=4.24
##DATA TYPE=INFRARED SPECTRUM
##CLASS=COBLENTZ III
##ORIGIN=STANDARD OIL OF OHIO
##OWNER=COBLENTZ SOCIETY
Collection (C) 2018 copyright by the U.S. Secretary of Commerce
on behalf of the United States of America. All rights reserved.
##DATE=1965/09/21
##NAMES=1,3-dioxolan-2-one
1,3-DIOXOLAN-2-ONE
##CAS REGISTRY NO=96-49-1
##MOLFORM=C3 H4 O3
##SOURCE REFERENCE=COBLENTZ NO. 10176
##$NIST SOURCE=COBLENTZ
##$NIST IMAGE=cob10176
##SPECTROMETER/DATA SYSTEM=PERKIN-ELMER 521 (GRATING)
##INSTRUMENT PARAMETERS=FILTERS AT 3150, 2500, 2000, 1150, 700, 410 AND GRATING CHANGES AT 2000, 630 CM^-^1
##STATE=LIQUID (NEAT)
##PATH LENGTH=SMEAR, CsBr CRYSTALS
##SAMPLING PROCEDURE=TRANSMISSION
##RESOLUTION=4
##DATA PROCESSING=DIGITIZED BY NIST FROM HARD COPY (FROM TWO SEGMENTS)
##XUNITS=1/CM
##YUNITS=TRANSMITTANCE
##XFACTOR=1.000000
##YFACTOR=1
##DELTAX=0.955224
##FIRSTX=308.299
##LASTX=3896.12
##FIRSTY=0.923
##MAXX=3896.12
##MINX=308.299
##MAXY=0.926
##MINY=0.08
##NPOINTS=3757
##XYDATA=(X++(Y..Y))
308.299000 0.9230 0.9230 0.9220 0.9220 0.9220
313.075120 0.9200 0.9200 0.9190 0.9190 0.9190
317.851240 0.9190 0.9190 0.9190 0.9190 0.9190
322.627361 0.9190 0.9190 0.9170 0.9170 0.9160
327.403481 0.9160 0.9160 0.9150 0.9150 0.9140
332.179601 0.9140 0.9130 0.9110 0.9110 0.9100
336.955721 0.9070 0.9050 0.9040 0.9030 0.9020
341.731841 0.9010 0.9010 0.9000 0.9000 0.8980
346.507961 0.8980 0.8970 0.8970 0.8970 0.8970
351.284082 0.8970 0.8960 0.8960 0.8950 0.8950
356.060202 0.8950 0.8950 0.8950 0.8940 0.8940
360.836322 0.8940 0.8920 0.8920 0.8920 0.8920
365.612442 0.8910 0.8910 0.8910 0.8910 0.8910
370.388562 0.8910 0.8910 0.8910 0.8910 0.8900
375.164682 0.8890 0.8880 0.8860 0.8850 0.8850
379.940803 0.8830 0.8830 0.8830 0.8820 0.8820
384.716923 0.8800 0.8800 0.8790 0.8780 0.8780
389.493043 0.8770 0.8770 0.8760 0.8760 0.8760
394.269163 0.8750 0.8750 0.8730 0.8730 0.8730
399.045283 0.8730 0.8710 0.8700 0.8690 0.8660
403.821403 0.8650 0.8630 0.8610 0.8600 0.8600
408.597524 0.8640 0.8710 0.8710 0.8690 0.8690
413.373644 0.8690 0.8690 0.8670 0.8660 0.8660
418.149764 0.8660 0.8660 0.8660 0.8660 0.8670
422.925884 0.8670 0.8670 0.8660 0.8660 0.8650
427.702004 0.8640 0.8640 0.8640 0.8640 0.8640
432.478124 0.8640 0.8640 0.8640 0.8640 0.8640
437.254245 0.8640 0.8640 0.8640 0.8640 0.8640
442.030365 0.8640 0.8640 0.8640 0.8650 0.8660
446.806485 0.8660 0.8670 0.8670 0.8670 0.8660
451.582605 0.8660 0.8650 0.8650 0.8650 0.8660
456.358725 0.8660 0.8670 0.8670 0.8670 0.8670
461.134845 0.8670 0.8670 0.8670 0.8670 0.8670
465.910966 0.8670 0.8670 0.8670 0.8670 0.8670
470.687086 0.8670 0.8670 0.8670 0.8670 0.8670
475.463206 0.8670 0.8670 0.8670 0.8670 0.8670
480.239326 0.8670 0.8670 0.8670 0.8670 0.8670
485.015446 0.8670 0.8670 0.8670 0.8670 0.8670
489.791566 0.8670 0.8670 0.8670 0.8670 0.8670
494.567687 0.8670 0.8670 0.8670 0.8670 0.8690
499.343807 0.8690 0.8690 0.8690 0.8690 0.8690
504.119927 0.8690 0.8690 0.8690 0.8690 0.8690
508.896047 0.8690 0.8690 0.8690 0.8690 0.8690
513.672167 0.8690 0.8690 0.8690 0.8690 0.8690
518.448287 0.8670 0.8670 0.8660 0.8660 0.8660
523.224408 0.8650 0.8640 0.8630 0.8590 0.8520
528.000528 0.8280 0.8110 0.8110 0.8140 0.8290
532.776648 0.8400 0.8520 0.8630 0.8670 0.8700
537.552768 0.8720 0.8730 0.8750 0.8760 0.8770
542.328888 0.8790 0.8790 0.8800 0.8820 0.8820
547.105008 0.8820 0.8830 0.8840 0.8840 0.8850
551.881129 0.8850 0.8860 0.8860 0.8880 0.8880
556.657249 0.8880 0.8890 0.8890 0.8890 0.8890
561.433369 0.8890 0.8890 0.8900 0.8900 0.8910
566.209489 0.8920 0.8920 0.8940 0.8950 0.8950
570.985609 0.8960 0.8960 0.8960 0.8960 0.8960
575.761729 0.8970 0.8970 0.8970 0.8970 0.8980
580.537850 0.8980 0.8980 0.9000 0.9010 0.9010
585.313970 0.9020 0.9020 0.9030 0.9040 0.9040
590.090090 0.9050 0.9050 0.9050 0.9070 0.9080
594.866210 0.9090 0.9110 0.9110 0.9130 0.9130
599.642330 0.9130 0.9140 0.9140 0.9140 0.9150
604.418450 0.9150 0.9150 0.9150 0.9150 0.9150
609.194571 0.9150 0.9150 0.9150 0.9150 0.9150
613.970691 0.9150 0.9150 0.9150 0.9150 0.9150
618.746811 0.9150 0.9160 0.9160 0.9160 0.9160
623.522931 0.9160 0.9160 0.9160 0.9160 0.9160
628.299051 0.9160 0.9160 0.9170 0.9170 0.9170
633.075171 0.9190 0.9200 0.9230 0.9250 0.9260
637.851292 0.9260 0.9250 0.9250 0.9220 0.9210
642.627412 0.9200 0.9190 0.9170 0.9170 0.9160
647.403532 0.9160 0.9160 0.9150 0.9150 0.9150
652.179652 0.9150 0.9140 0.9140 0.9140 0.9130
656.955772 0.9130 0.9110 0.9100 0.9090 0.9080
661.731892 0.9070 0.9050 0.9040 0.9030 0.9030
666.508013 0.9030 0.9020 0.9020 0.9010 0.9000
671.284133 0.8970 0.8950 0.8920 0.8910 0.8880
676.060253 0.8880 0.8850 0.8820 0.8790 0.8760
680.836373 0.8730 0.8720 0.8710 0.8690 0.8630
685.612493 0.8590 0.8530 0.8510 0.8500 0.8470
690.388613 0.8450 0.8410 0.8390 0.8360 0.8340
695.164734 0.8330 0.8320 0.8320 0.8290 0.8280
699.940854 0.8270 0.8260 0.8250 0.8230 0.8210
704.716974 0.8160 0.8100 0.8010 0.7831 0.7571
709.493094 0.7170 0.6710 0.6230 0.5521 0.5131
714.269214 0.4731 0.3843 0.2734 0.2471 0.2470
719.045334 0.2590 0.3410 0.4269 0.6267 0.7228
723.821455 0.7699 0.7959 0.8129 0.8250 0.8389
728.597575 0.8470 0.8520 0.8590 0.8650 0.8690
733.373695 0.8730 0.8750 0.8760 0.8770 0.8780
738.149815 0.8780 0.8770 0.8770 0.8760 0.8760
742.925935 0.8750 0.8720 0.8710 0.8660 0.8580
747.702055 0.8520 0.8500 0.8410 0.8330 0.8320
752.478176 0.8320 0.8320 0.8320 0.8320 0.8300
757.254296 0.8280 0.8210 0.8130 0.7980 0.7820
762.030416 0.7581 0.7291 0.6941 0.6442 0.5913
766.806536 0.5630 0.5340 0.4630 0.3771 0.3091
771.582656 0.2571 0.2201 0.2170 0.2190 0.2220
776.358776 0.2380 0.2550 0.2720 0.3160 0.3549
781.134897 0.3969 0.4459 0.5586 0.6248 0.6748
785.911017 0.7110 0.7510 0.7720 0.7880 0.8010
790.687137 0.8090 0.8190 0.8250 0.8300 0.8340
795.463257 0.8400 0.8470 0.8500 0.8520 0.8540
800.239377 0.8580 0.8630 0.8650 0.8670 0.8700
805.015497 0.8710 0.8720 0.8730 0.8750 0.8760
809.791618 0.8770 0.8780 0.8780 0.8790 0.8790
814.567738 0.8800 0.8800 0.8820 0.8820 0.8820
819.343858 0.8820 0.8820 0.8820 0.8830 0.8830
824.119978 0.8830 0.8840 0.8840 0.8830 0.8830
828.896098 0.8830 0.8830 0.8840 0.8840 0.8830
833.672218 0.8830 0.8820 0.8820 0.8820 0.8820
838.448339 0.8820 0.8820 0.8820 0.8820 0.8800
843.224459 0.8800 0.8800 0.8800 0.8800 0.8800
848.000579 0.8800 0.8790 0.8790 0.8780 0.8780
852.776699 0.8780 0.8780 0.8780 0.8780 0.8770
857.552819 0.8770 0.8770 0.8770 0.8770 0.8770
862.328940 0.8770 0.8770 0.8770 0.8770 0.8760
867.105060 0.8760 0.8750 0.8730 0.8720 0.8710
871.881180 0.8700 0.8700 0.8690 0.8670 0.8670
876.657300 0.8660 0.8650 0.8630 0.8610 0.8600
881.433420 0.8590 0.8580 0.8570 0.8520 0.8480
886.209540 0.8380 0.8260 0.8041 0.7801 0.6596
890.985661 0.6320 0.6050 0.5790 0.5790 0.6139
895.761781 0.6499 0.6849 0.7199 0.7549 0.7908
900.537901 0.8110 0.8330 0.8440 0.8500 0.8510
905.314021 0.8510 0.8520 0.8550 0.8570 0.8570
910.090141 0.8590 0.8600 0.8610 0.8610 0.8630
914.866261 0.8630 0.8630 0.8640 0.8640 0.8630
919.642382 0.8630 0.8610 0.8610 0.8610 0.8610
924.418502 0.8610 0.8610 0.8600 0.8600 0.8600
929.194622 0.8610 0.8610 0.8600 0.8600 0.8600
933.970742 0.8590 0.8580 0.8580 0.8570 0.8570
938.746862 0.8550 0.8540 0.8520 0.8510 0.8500
943.522982 0.8450 0.8420 0.8410 0.8400 0.8380
948.299103 0.8330 0.8280 0.8250 0.8220 0.8170
953.075223 0.8110 0.8040 0.7950 0.7821 0.7721
957.851343 0.7570 0.7380 0.7130 0.6860 0.6571
962.627463 0.6251 0.5911 0.5581 0.5351 0.5131
967.403583 0.4640 0.4140 0.3670 0.3290 0.2961
972.179703 0.2900 0.2900 0.2920 0.3010 0.3129
976.955824 0.3330 0.3650 0.3890 0.4210 0.4570
981.731944 0.5019 0.5718 0.6009 0.6289 0.6519
986.508064 0.6690 0.6820 0.6950 0.7050 0.7160
991.284184 0.7220 0.7280 0.7330 0.7400 0.7460
996.060304 0.7470 0.7500 0.7510 0.7520 0.7520
1000.836424 0.7530 0.7530 0.7520 0.7520 0.7510
1005.612545 0.7510 0.7500 0.7500 0.7450 0.7410
1010.388665 0.7400 0.7380 0.7340 0.7320 0.7280
1015.164785 0.7270 0.7260 0.7260 0.7260 0.7260
1019.940905 0.7260 0.7270 0.7300 0.7320 0.7330
1024.717025 0.7340 0.7340 0.7340 0.7340 0.7340
1029.493145 0.7340 0.7330 0.7320 0.7300 0.7280
1034.269266 0.7270 0.7260 0.7230 0.7150 0.7100
1039.045386 0.7030 0.6980 0.6940 0.6890 0.6771
1043.821506 0.6650 0.6540 0.6420 0.6280 0.6130
1048.597626 0.5960 0.5771 0.5571 0.5450 0.5321
1053.373746 0.5160 0.4960 0.4690 0.4420 0.4051
1058.149866 0.3751 0.3301 0.2951 0.2571 0.2321
1062.925987 0.1890 0.1710 0.1460 0.1320 0.1200
1067.702107 0.1050 0.1010 0.1000 0.1000 0.0980
1072.478227 0.0980 0.1000 0.1030 0.1090 0.1100
1077.254347 0.1130 0.1160 0.1190 0.1210 0.1300
1082.030467 0.1350 0.1450 0.1510 0.1600 0.1710
1086.806587 0.1840 0.2010 0.2209 0.2439 0.2669
1091.582708 0.2830 0.3040 0.3300 0.3550 0.3800
1096.358828 0.4010 0.4190 0.4529 0.4570 0.4699
1101.134948 0.4790 0.4890 0.4950 0.5010 0.5030
1105.911068 0.5100 0.5110 0.5160 0.5210 0.5220
1110.687188 0.5220 0.5230 0.5230 0.5230 0.5220
1115.463308 0.5210 0.5190 0.5150 0.5140 0.5110
1120.239429 0.5090 0.5030 0.5010 0.4970 0.4850
1125.015549 0.4800 0.4710 0.4590 0.4500 0.4470
1129.791669 0.4320 0.4260 0.4130 0.3980 0.3850
1134.567789 0.3710 0.3590 0.3470 0.3331 0.3250
1139.343909 0.3040 0.2910 0.2780 0.2660 0.2520
1144.120029 0.2390 0.2290 0.2230 0.2160 0.2041
1148.896150 0.1910 0.1770 0.1650 0.1550 0.1520
1153.672270 0.1460 0.1400 0.1350 0.1300 0.1270
1158.448390 0.1250 0.1230 0.1230 0.1220 0.1220
1163.224510 0.1220 0.1220 0.1230 0.1230 0.1250
1168.000630 0.1270 0.1300 0.1340 0.1380 0.1400
1172.776750 0.1410 0.1420 0.1450 0.1480 0.1510
1177.552871 0.1550 0.1600 0.1660 0.1720 0.1760
1182.328991 0.1850 0.1880 0.2010 0.2090 0.2200
1187.105111 0.2300 0.2500 0.2690 0.2760 0.2940
1191.881231 0.3090 0.3260 0.3400 0.3540 0.3689
1196.657351 0.3800 0.3910 0.4010 0.4140 0.4260
1201.433471 0.4380 0.4480 0.4540 0.4630 0.4690
1206.209592 0.4750 0.4780 0.4790 0.4790 0.4790
1210.985712 0.4780 0.4750 0.4710 0.4670 0.4630
1215.761832 0.4580 0.4530 0.4470 0.4420 0.4400
1220.537952 0.4400 0.4390 0.4400 0.4460 0.4520
1225.314072 0.4600 0.4700 0.4830 0.4950 0.5010
1230.090192 0.5130 0.5220 0.5300 0.5509 0.5600
1234.866313 0.5670 0.5780 0.5880 0.5970 0.6020
1239.642433 0.6100 0.6170 0.6230 0.6290 0.6340
1244.418553 0.6450 0.6550 0.6650 0.6710 0.6790
1249.194673 0.6910 0.7010 0.7090 0.7130 0.7170
1253.970793 0.7230 0.7270 0.7330 0.7350 0.7390
1258.746913 0.7440 0.7460 0.7480 0.7500 0.7510
1263.523034 0.7520 0.7540 0.7590 0.7600 0.7630
1268.299154 0.7650 0.7670 0.7700 0.7710 0.7730
1273.075274 0.7770 0.7800 0.7830 0.7840 0.7860
1277.851394 0.7900 0.7920 0.7950 0.7960 0.7960
1282.627514 0.7970 0.8000 0.8000 0.8010 0.8020
1287.403634 0.8030 0.8040 0.8090 0.8090 0.8100
1292.179755 0.8110 0.8110 0.8130 0.8140 0.8150
1296.955875 0.8160 0.8160 0.8170 0.8170 0.8190
1301.731995 0.8190 0.8190 0.8200 0.8200 0.8200
1306.508115 0.8200 0.8200 0.8200 0.8200 0.8200
1311.284235 0.8200 0.8200 0.8200 0.8210 0.8210
1316.060355 0.8210 0.8210 0.8210 0.8210 0.8210
1320.836476 0.8200 0.8200 0.8200 0.8200 0.8190
1325.612596 0.8190 0.8190 0.8190 0.8190 0.8190
1330.388716 0.8170 0.8170 0.8160 0.8150 0.8140
1335.164836 0.8130 0.8130 0.8130 0.8110 0.8100
1339.940956 0.8100 0.8070 0.8040 0.8020 0.8010
1344.717076 0.8000 0.7980 0.7970 0.7950 0.7910
1349.493197 0.7880 0.7840 0.7820 0.7790 0.7770
1354.269317 0.7750 0.7710 0.7670 0.7630 0.7550
1359.045437 0.7520 0.7460 0.7340 0.7300 0.7260
1363.821557 0.7150 0.7040 0.6980 0.6900 0.6820
1368.597677 0.6760 0.6730 0.6720 0.6700 0.6660
1373.373797 0.6590 0.6520 0.6440 0.6281 0.5852
1378.149918 0.5520 0.5380 0.5230 0.4960 0.4670
1382.926038 0.4321 0.3861 0.3551 0.3112 0.2732
1387.702158 0.2520 0.2330 0.2260 0.2110 0.2090
1392.478278 0.2110 0.2160 0.2479 0.2580 0.2749
1397.254398 0.2970 0.3380 0.3730 0.4090 0.4439
1402.030518 0.4889 0.5199 0.5778 0.6029 0.6249
1406.806639 0.6440 0.6580 0.6760 0.6830 0.6840
1411.582759 0.6840 0.6780 0.6650 0.6521 0.6391
1416.358879 0.6080 0.5910 0.5630 0.5500 0.5350
1421.134999 0.5340 0.5520 0.5819 0.6079 0.6518
1425.911119 0.6790 0.7020 0.7220 0.7410 0.7550
1430.687240 0.7670 0.7730 0.7790 0.7840 0.7900
1435.463360 0.7980 0.8000 0.8000 0.8010 0.8020
1440.239480 0.8030 0.8040 0.8040 0.8040 0.8040
1445.015600 0.8040 0.8040 0.8040 0.8040 0.8030
1449.791720 0.8010 0.8010 0.8000 0.8000 0.7980
1454.567840 0.7970 0.7960 0.7950 0.7940 0.7900
1459.343961 0.7890 0.7850 0.7800 0.7780 0.7750
1464.120081 0.7670 0.7580 0.7500 0.7390 0.7290
1468.896201 0.7170 0.6970 0.6701 0.6501 0.5952
1473.672321 0.5390 0.5170 0.4820 0.4411 0.3971
1478.448441 0.3661 0.3421 0.3171 0.3170 0.3250
1483.224561 0.3480 0.3900 0.4270 0.4719 0.4860
1488.000682 0.5030 0.5349 0.5898 0.6079 0.6219
1492.776802 0.6400 0.6520 0.6700 0.6770 0.6820
1497.552922 0.6940 0.7030 0.7229 0.7340 0.7450
1502.329042 0.7570 0.7700 0.7760 0.7780 0.7840
1507.105162 0.7910 0.7970 0.8040 0.8070 0.8080
1511.881282 0.8150 0.8170 0.8220 0.8250 0.8280
1516.657403 0.8280 0.8290 0.8300 0.8300 0.8320
1521.433523 0.8320 0.8320 0.8330 0.8330 0.8320
1526.209643 0.8320 0.8320 0.8300 0.8290 0.8290
1530.985763 0.8280 0.8280 0.8270 0.8250 0.8210
1535.761883 0.8150 0.8090 0.8030 0.7950 0.7880
1540.538003 0.7790 0.7690 0.7590 0.7470 0.7360
1545.314124 0.7260 0.7140 0.7030 0.6900 0.6771
1550.090244 0.6660 0.6590 0.6590 0.6650 0.6750
1554.866364 0.6800 0.6950 0.7110 0.7289 0.7420
1559.642484 0.7550 0.7650 0.7730 0.7820 0.7980
1564.418604 0.8040 0.8110 0.8190 0.8260 0.8300
1569.194724 0.8340 0.8350 0.8360 0.8360 0.8380
1573.970845 0.8380 0.8380 0.8390 0.8390 0.8390
1578.746965 0.8390 0.8390 0.8390 0.8390 0.8380
1583.523085 0.8380 0.8380 0.8360 0.8360 0.8350
1588.299205 0.8350 0.8340 0.8330 0.8300 0.8300
1593.075325 0.8290 0.8280 0.8260 0.8250 0.8230
1597.851445 0.8230 0.8220 0.8220 0.8220 0.8210
1602.627566 0.8210 0.8210 0.8210 0.8210 0.8210
1607.403686 0.8210 0.8210 0.8210 0.8210 0.8220
1612.179806 0.8220 0.8220 0.8220 0.8220 0.8210
1616.955926 0.8200 0.8170 0.8160 0.8150 0.8140
1621.732046 0.8140 0.8130 0.8130 0.8110 0.8110
1626.508166 0.8110 0.8100 0.8080 0.8070 0.8050
1631.284287 0.8070 0.8090 0.8090 0.8100 0.8100
1636.060407 0.8110 0.8110 0.8130 0.8130 0.8130
1640.836527 0.8140 0.8140 0.8150 0.8160 0.8190
1645.612647 0.8210 0.8210 0.8220 0.8220 0.8220
1650.388767 0.8230 0.8250 0.8260 0.8260 0.8260
1655.164887 0.8250 0.8250 0.8230 0.8220 0.8220
1659.941008 0.8220 0.8220 0.8200 0.8170 0.8150
1664.717128 0.8140 0.8130 0.8110 0.8110 0.8100
1669.493248 0.8040 0.8020 0.8010 0.8000 0.7970
1674.269368 0.7910 0.7860 0.7830 0.7790 0.7770
1679.045488 0.7720 0.7610 0.7540 0.7520 0.7460
1683.821608 0.7350 0.7330 0.7290 0.7260 0.7250
1688.597729 0.7250 0.7250 0.7250 0.7260 0.7270
1693.373849 0.7280 0.7280 0.7280 0.7280 0.7290
1698.149969 0.7300 0.7300 0.7300 0.7330 0.7330
1702.926089 0.7330 0.7340 0.7350 0.7350 0.7360
1707.702209 0.7380 0.7390 0.7410 0.7420 0.7420
1712.478329 0.7420 0.7420 0.7420 0.7410 0.7400
1717.254450 0.7390 0.7380 0.7380 0.7360 0.7340
1722.030570 0.7320 0.7290 0.7230 0.7200 0.7150
1726.806690 0.7080 0.7020 0.6970 0.6880 0.6761
1731.582810 0.6660 0.6540 0.6450 0.6280 0.6130
1736.358930 0.5960 0.5770 0.5610 0.5550 0.5480
1741.135050 0.5270 0.5190 0.5090 0.4950 0.4800
1745.911171 0.4670 0.4540 0.4510 0.4450 0.4380
1750.687291 0.4260 0.4190 0.4070 0.4000 0.3820
1755.463411 0.3730 0.3551 0.3351 0.3171 0.2921
1760.239531 0.2660 0.2410 0.2160 0.1920 0.1700
1765.015651 0.1500 0.1380 0.1260 0.1131 0.1070
1769.791771 0.1000 0.0960 0.0920 0.0880 0.0860
1774.567892 0.0880 0.0880 0.0900 0.0960 0.1000
1779.344012 0.1070 0.1100 0.1150 0.1220 0.1260
1784.120132 0.1330 0.1340 0.1330 0.1300 0.1270
1788.896252 0.1190 0.1160 0.1090 0.1020 0.1000
1793.672372 0.0960 0.0900 0.0850 0.0820 0.0820
1798.448492 0.0800 0.0800 0.0800 0.0800 0.0800
1803.224613 0.0800 0.0820 0.0820 0.0830 0.0830
1808.000733 0.0840 0.0850 0.0860 0.0880 0.0890
1812.776853 0.0900 0.0910 0.0940 0.1010 0.1030
1817.552973 0.1070 0.1080 0.1100 0.1130 0.1200
1822.329093 0.1220 0.1260 0.1380 0.1440 0.1500
1827.105213 0.1610 0.1670 0.1830 0.1900 0.1980
1831.881334 0.2050 0.2150 0.2250 0.2290 0.2420
1836.657454 0.2510 0.2610 0.2710 0.2800 0.2880
1841.433574 0.2970 0.3010 0.3090 0.3150 0.3200
1846.209694 0.3250 0.3280 0.3320 0.3360 0.3400
1850.985814 0.3450 0.3480 0.3510 0.3510 0.3510
1855.761934 0.3500 0.3500 0.3460 0.3420 0.3400
1860.538055 0.3340 0.3330 0.3330 0.3340 0.3380
1865.314175 0.3440 0.3530 0.3640 0.3780 0.3950
1870.090295 0.4030 0.4160 0.4300 0.4459 0.4599
1874.866415 0.4760 0.4940 0.5040 0.5220 0.5350
1879.642535 0.5589 0.5720 0.5820 0.5880 0.6009
1884.418655 0.6100 0.6160 0.6280 0.6330 0.6390
1889.194776 0.6480 0.6540 0.6590 0.6700 0.6770
1893.970896 0.6840 0.6880 0.6940 0.6980 0.7030
1898.747016 0.7050 0.7080 0.7140 0.7190 0.7220
1903.523136 0.7260 0.7280 0.7290 0.7330 0.7350
1908.299256 0.7360 0.7380 0.7410 0.7450 0.7460
1913.075376 0.7470 0.7480 0.7500 0.7520 0.7530
1917.851497 0.7580 0.7590 0.7600 0.7630 0.7650
1922.627617 0.7650 0.7650 0.7660 0.7660 0.7670
1927.403737 0.7670 0.7670 0.7670 0.7670 0.7670
1932.179857 0.7660 0.7650 0.7640 0.7650 0.7640
1936.955977 0.7640 0.7630 0.7610 0.7610 0.7600
1941.732097 0.7580 0.7550 0.7540 0.7540 0.7530
1946.508218 0.7520 0.7500 0.7460 0.7380 0.7320
1951.284338 0.7260 0.7170 0.7090 0.6980 0.6790
1956.060458 0.6630 0.6500 0.6361 0.6250 0.6091
1960.836578 0.6000 0.5980 0.5980 0.6000 0.6020
1965.612698 0.6080 0.6170 0.6280 0.6350 0.6400
1970.388819 0.6520 0.6610 0.6760 0.6840 0.6980
1975.164939 0.7030 0.7150 0.7260 0.7300 0.7390
1979.941059 0.7470 0.7520 0.7610 0.7690 0.7750
1984.717179 0.7790 0.7840 0.7880 0.7910 0.7920
1989.493299 0.7950 0.7980 0.7980 0.8000 0.8010
1994.269419 0.8010 0.8020 0.8020 0.8020 0.8020
1999.045540 0.8020 0.8020 0.8015 0.8010 0.8010
2003.821660 0.8010 0.8010 0.8010 0.8005 0.8000
2008.597780 0.8000 0.8000 0.7985 0.7970 0.7970
2013.373900 0.7970 0.7965 0.7960 0.7955 0.7950
2018.150020 0.7945 0.7940 0.7930 0.7920 0.7910
2022.926140 0.7900 0.7895 0.7890 0.7885 0.7880
2027.702261 0.7870 0.7860 0.7855 0.7850 0.7840
2032.478381 0.7830 0.7810 0.7790 0.7785 0.7780
2037.254501 0.7780 0.7780 0.7780 0.7780 0.7785
2042.030621 0.7790 0.7795 0.7800 0.7810 0.7820
2046.806741 0.7825 0.7830 0.7835 0.7840 0.7845
2051.582861 0.7851 0.7866 0.7880 0.7890 0.7902
2056.358982 0.7937 0.7971 0.7986 0.8000 0.8000
2061.135102 0.8000 0.8005 0.8012 0.8042 0.8071
2065.911222 0.8086 0.8101 0.8116 0.8131 0.8141
2070.687342 0.8151 0.8171 0.8191 0.8201 0.8210
2075.463462 0.8215 0.8220 0.8220 0.8220 0.8220
2080.239582 0.8221 0.8236 0.8250 0.8255 0.8260
2085.015703 0.8265 0.8270 0.8275 0.8280 0.8280
2089.791823 0.8280 0.8285 0.8290 0.8290 0.8290
2094.567943 0.8290 0.8290 0.8290 0.8290 0.8290
2099.344063 0.8290 0.8290 0.8290 0.8290 0.8290
2104.120183 0.8290 0.8290 0.8290 0.8290 0.8290
2108.896303 0.8290 0.8290 0.8290 0.8290 0.8290
2113.672424 0.8290 0.8290 0.8290 0.8290 0.8290
2118.448544 0.8289 0.8284 0.8280 0.8280 0.8280
2123.224664 0.8280 0.8280 0.8280 0.8280 0.8280
2128.000784 0.8280 0.8280 0.8280 0.8280 0.8280
2132.776904 0.8280 0.8280 0.8280 0.8280 0.8280
2137.553024 0.8280 0.8280 0.8280 0.8280 0.8280
2142.329145 0.8280 0.8281 0.8286 0.8290 0.8290
2147.105265 0.8289 0.8284 0.8280 0.8280 0.8280
2151.881385 0.8280 0.8280 0.8280 0.8280 0.8280
2156.657505 0.8280 0.8280 0.8280 0.8280 0.8280
2161.433625 0.8280 0.8280 0.8280 0.8280 0.8280
2166.209745 0.8280 0.8280 0.8280 0.8280 0.8280
2170.985866 0.8280 0.8280 0.8280 0.8280 0.8280
2175.761986 0.8280 0.8280 0.8280 0.8280 0.8280
2180.538106 0.8280 0.8280 0.8280 0.8280 0.8280
2185.314226 0.8281 0.8286 0.8290 0.8290 0.8290
2190.090346 0.8290 0.8290 0.8290 0.8290 0.8290
2194.866466 0.8291 0.8296 0.8300 0.8300 0.8299
2199.642587 0.8294 0.8289 0.8284 0.8279 0.8274
2204.418707 0.8270 0.8270 0.8269 0.8264 0.8257
2209.194827 0.8242 0.8229 0.8224 0.8220 0.8220
2213.970947 0.8220 0.8220 0.8220 0.8220 0.8218
2218.747067 0.8208 0.8200 0.8200 0.8199 0.8194
2223.523187 0.8188 0.8178 0.8169 0.8164 0.8159
2228.299308 0.8154 0.8150 0.8150 0.8150 0.8150
2233.075428 0.8150 0.8150 0.8150 0.8150 0.8150
2237.851548 0.8150 0.8150 0.8150 0.8150 0.8150
2242.627668 0.8150 0.8150 0.8150 0.8150 0.8150
2247.403788 0.8150 0.8149 0.8144 0.8140 0.8140
2252.179908 0.8140 0.8140 0.8139 0.8134 0.8130
2256.956029 0.8130 0.8130 0.8130 0.8130 0.8130
2261.732149 0.8130 0.8130 0.8130 0.8130 0.8130
2266.508269 0.8130 0.8127 0.8117 0.8108 0.8103
2271.284389 0.8100 0.8100 0.8097 0.8087 0.8075
2276.060509 0.8060 0.8050 0.8050 0.8047 0.8037
2280.836629 0.8028 0.8023 0.8018 0.8013 0.8008
2285.612750 0.8003 0.7997 0.7987 0.7980 0.7980
2290.388870 0.7978 0.7973 0.7960 0.7930 0.7902
2295.164990 0.7877 0.7854 0.7834 0.7814 0.7794
2299.941110 0.7777 0.7767 0.7754 0.7734 0.7712
2304.717230 0.7687 0.7668 0.7663 0.7658 0.7653
2309.493350 0.7650 0.7650 0.7650 0.7650 0.7650
2314.269471 0.7650 0.7650 0.7650 0.7650 0.7650
2319.045591 0.7650 0.7650 0.7650 0.7650 0.7652
2323.821711 0.7657 0.7662 0.7667 0.7674 0.7684
2328.597831 0.7694 0.7704 0.7714 0.7724 0.7735
2333.373951 0.7751 0.7766 0.7781 0.7792 0.7797
2338.150071 0.7804 0.7814 0.7820 0.7820 0.7822
2342.926192 0.7827 0.7832 0.7837 0.7842 0.7847
2347.702312 0.7856 0.7871 0.7888 0.7908 0.7926
2352.478432 0.7941 0.7950 0.7950 0.7956 0.7971
2357.254552 0.7984 0.7994 0.8002 0.8007 0.8010
2362.030672 0.8010 0.8012 0.8017 0.8020 0.8020
2366.806792 0.8022 0.8027 0.8038 0.8058 0.8072
2371.582913 0.8077 0.8082 0.8087 0.8090 0.8090
2376.359033 0.8092 0.8097 0.8102 0.8107 0.8114
2381.135153 0.8124 0.8130 0.8130 0.8132 0.8137
2385.911273 0.8142 0.8147 0.8152 0.8157 0.8162
2390.687393 0.8167 0.8174 0.8184 0.8192 0.8197
2395.463513 0.8202 0.8207 0.8210 0.8210 0.8212
2400.239634 0.8217 0.8220 0.8220 0.8218 0.8213
2405.015754 0.8212 0.8217 0.8222 0.8227 0.8230
2409.791874 0.8230 0.8230 0.8230 0.8230 0.8230
2414.567994 0.8230 0.8230 0.8230 0.8230 0.8230
2419.344114 0.8230 0.8230 0.8230 0.8230 0.8230
2424.120234 0.8230 0.8230 0.8230 0.8230 0.8230
2428.896355 0.8230 0.8230 0.8230 0.8230 0.8230
2433.672475 0.8230 0.8230 0.8230 0.8230 0.8228
2438.448595 0.8223 0.8220 0.8220 0.8220 0.8220
2443.224715 0.8220 0.8220 0.8220 0.8220 0.8218
2448.000835 0.8213 0.8210 0.8210 0.8212 0.8217
2452.776955 0.8220 0.8220 0.8220 0.8220 0.8217
2457.553076 0.8212 0.8210 0.8210 0.8210 0.8210
2462.329196 0.8210 0.8210 0.8210 0.8210 0.8210
2467.105316 0.8210 0.8213 0.8218 0.8220 0.8220
2471.881436 0.8217 0.8212 0.8197 0.8172 0.8152
2476.657556 0.8137 0.8125 0.8115 0.8107 0.8102
2481.433676 0.8097 0.8092 0.8090 0.8090 0.8087
2486.209797 0.8082 0.8077 0.8072 0.8073 0.8078
2490.985917 0.8080 0.8080 0.8085 0.8095 0.8108
2495.762037 0.8123 0.8130 0.8130 0.8119 0.8099
2500.538157 0.8087 0.8082 0.8077 0.8072 0.8062
2505.314277 0.8047 0.8034 0.8024 0.8017 0.8012
2510.090398 0.8010 0.8010 0.8010 0.8010 0.8010
2514.866518 0.8010 0.8010 0.8010 0.8007 0.8002
2519.642638 0.8000 0.8000 0.8000 0.8000 0.7994
2524.418758 0.7984 0.7980 0.7980 0.7980 0.7980
2529.194878 0.7977 0.7972 0.7967 0.7962 0.7957
2533.970998 0.7952 0.7941 0.7926 0.7917 0.7912
2538.747119 0.7910 0.7910 0.7910 0.7910 0.7913
2543.523239 0.7918 0.7920 0.7920 0.7926 0.7936
2548.299359 0.7940 0.7940 0.7940 0.7940 0.7943
2553.075479 0.7948 0.7959 0.7974 0.7980 0.7980
2557.851599 0.7986 0.7996 0.8000 0.8000 0.8003
2562.627719 0.8008 0.8013 0.8018 0.8020 0.8020
2567.403840 0.8023 0.8028 0.8043 0.8063 0.8073
2572.179960 0.8078 0.8083 0.8088 0.8093 0.8098
2576.956080 0.8103 0.8108 0.8116 0.8126 0.8130
2581.732200 0.8130 0.8133 0.8138 0.8140 0.8140
2586.508320 0.8137 0.8132 0.8130 0.8130 0.8130
2591.284440 0.8130 0.8130 0.8130 0.8130 0.8130
2596.060561 0.8130 0.8130 0.8130 0.8130 0.8130
2600.836681 0.8130 0.8130 0.8130 0.8130 0.8130
2605.612801 0.8133 0.8138 0.8140 0.8140 0.8140
2610.388921 0.8140 0.8140 0.8140 0.8143 0.8148
2615.165041 0.8150 0.8150 0.8153 0.8158 0.8160
2619.941161 0.8160 0.8160 0.8160 0.8160 0.8160
2624.717282 0.8160 0.8160 0.8157 0.8152 0.8147
2629.493402 0.8141 0.8140 0.8140 0.8144 0.8149
2634.269522 0.8150 0.8150 0.8146 0.8141 0.8140
2639.045642 0.8140 0.8136 0.8131 0.8130 0.8130
2643.821762 0.8130 0.8130 0.8123 0.8113 0.8106
2648.597882 0.8101 0.8096 0.8091 0.8090 0.8090
2653.374003 0.8090 0.8090 0.8094 0.8099 0.8104
2658.150123 0.8109 0.8117 0.8127 0.8130 0.8130
2662.926243 0.8130 0.8130 0.8130 0.8130 0.8130
2667.702363 0.8130 0.8130 0.8130 0.8130 0.8130
2672.478483 0.8130 0.8130 0.8130 0.8130 0.8130
2677.254603 0.8130 0.8130 0.8130 0.8130 0.8130
2682.030724 0.8122 0.8112 0.8102 0.8092 0.8071
2686.806844 0.8046 0.8040 0.8040 0.8032 0.8022
2691.582964 0.8020 0.8020 0.8020 0.8020 0.8016
2696.359084 0.8011 0.8010 0.8010 0.8010 0.8010
2701.135204 0.8010 0.8010 0.8014 0.8019 0.8020
2705.911324 0.8020 0.8028 0.8038 0.8044 0.8049
2710.687445 0.8058 0.8068 0.8074 0.8079 0.8084
2715.463565 0.8089 0.8090 0.8090 0.8090 0.8090
2720.239685 0.8090 0.8090 0.8090 0.8090 0.8090
2725.015805 0.8090 0.8086 0.8081 0.8084 0.8089
2729.791925 0.8090 0.8090 0.8090 0.8090 0.8090
2734.568045 0.8090 0.8090 0.8090 0.8090 0.8090
2739.344166 0.8090 0.8090 0.8094 0.8099 0.8096
2744.120286 0.8091 0.8090 0.8090 0.8090 0.8090
2748.896406 0.8090 0.8090 0.8086 0.8081 0.8076
2753.672526 0.8071 0.8070 0.8070 0.8062 0.8052
2758.448646 0.8046 0.8041 0.8036 0.8031 0.8030
2763.224766 0.8030 0.8030 0.8030 0.8026 0.8021
2768.000887 0.8020 0.8020 0.8024 0.8029 0.8030
2772.777007 0.8030 0.8034 0.8039 0.8044 0.8049
2777.553127 0.8050 0.8050 0.8050 0.8050 0.8059
2782.329247 0.8069 0.8070 0.8070 0.8061 0.8051
2787.105367 0.8059 0.8069 0.8070 0.8070 0.8070
2791.881487 0.8070 0.8070 0.8070 0.8070 0.8070
2796.657608 0.8070 0.8070 0.8070 0.8070 0.8070
2801.433728 0.8070 0.8061 0.8051 0.8050 0.8050
2806.209848 0.8050 0.8050 0.8050 0.8050 0.8050
2810.985968 0.8050 0.8050 0.8050 0.8050 0.8050
2815.762088 0.8050 0.8050 0.8045 0.8040 0.8040
2820.538208 0.8040 0.8035 0.8030 0.8030 0.8030
2825.314329 0.8025 0.8020 0.8011 0.8001 0.8000
2830.090449 0.8000 0.7991 0.7981 0.7975 0.7970
2834.866569 0.7965 0.7960 0.7955 0.7950 0.7936
2839.642689 0.7921 0.7906 0.7891 0.7885 0.7880
2844.418809 0.7852 0.7822 0.7806 0.7791 0.7781
2849.194929 0.7771 0.7765 0.7760 0.7760 0.7760
2853.971050 0.7760 0.7760 0.7760 0.7760 0.7765
2858.747170 0.7770 0.7765 0.7760 0.7760 0.7760
2863.523290 0.7760 0.7760 0.7755 0.7750 0.7750
2868.299410 0.7750 0.7740 0.7730 0.7730 0.7730
2873.075530 0.7730 0.7730 0.7725 0.7720 0.7715
2877.851650 0.7710 0.7710 0.7710 0.7705 0.7700
2882.627771 0.7685 0.7670 0.7660 0.7650 0.7645
2887.403891 0.7640 0.7625 0.7610 0.7595 0.7580
2892.180011 0.7555 0.7530 0.7520 0.7510 0.7485
2896.956131 0.7460 0.7430 0.7399 0.7344 0.7290
2901.732251 0.7245 0.7200 0.7155 0.7109 0.7059
2906.508371 0.7009 0.6954 0.6899 0.6829 0.6759
2911.284492 0.6694 0.6629 0.6554 0.6479 0.6373
2916.060612 0.6266 0.6141 0.6017 0.5922 0.5826
2920.836732 0.5711 0.5598 0.5523 0.5447 0.5362
2925.612852 0.5279 0.5244 0.5210 0.5210 0.5211
2930.388972 0.5246 0.5287 0.5502 0.5714 0.5835
2935.165092 0.5957 0.6082 0.6204 0.6279 0.6355
2939.941213 0.6455 0.6555 0.6645 0.6733 0.6798
2944.717333 0.6862 0.6907 0.6951 0.6961 0.6970
2949.493453 0.6975 0.6980 0.6975 0.6969 0.6959
2954.269573 0.6949 0.6934 0.6919 0.6899 0.6879
2959.045693 0.6869 0.6858 0.6838 0.6817 0.6772
2963.821813 0.6728 0.6698 0.6669 0.6659 0.6650
2968.597934 0.6645 0.6638 0.6618 0.6598 0.6567
2973.374054 0.6538 0.6518 0.6496 0.6451 0.6406
2978.150174 0.6361 0.6312 0.6227 0.6143 0.6068
2982.926294 0.5993 0.5918 0.5843 0.5768 0.5693
2987.702414 0.5618 0.5549 0.5534 0.5518 0.5498
2992.478534 0.5484 0.5514 0.5542 0.5557 0.5574
2997.254655 0.5609 0.5649 0.5729 0.5803 0.5828
3002.030775 0.5854 0.5884 0.5920 0.6005 0.6088
3006.806895 0.6158 0.6228 0.6293 0.6356 0.6407
3011.583015 0.6456 0.6496 0.6533 0.6553 0.6574
3016.359135 0.6604 0.6635 0.6670 0.6705 0.6740
3021.135255 0.6774 0.6804 0.6832 0.6847 0.6864
3025.911376 0.6889 0.6915 0.6950 0.6984 0.7015
3030.687496 0.7047 0.7092 0.7132 0.7147 0.7169
3035.463616 0.7224 0.7272 0.7287 0.7304 0.7329
3040.239736 0.7355 0.7385 0.7416 0.7451 0.7482
3045.015856 0.7497 0.7513 0.7533 0.7553 0.7573
3049.791976 0.7592 0.7602 0.7613 0.7628 0.7642
3054.568097 0.7652 0.7663 0.7678 0.7691 0.7696
3059.344217 0.7701 0.7706 0.7710 0.7710 0.7712
3064.120337 0.7722 0.7730 0.7730 0.7732 0.7742
3068.896457 0.7750 0.7750 0.7751 0.7756 0.7760
3073.672577 0.7760 0.7761 0.7766 0.7771 0.7776
3078.448698 0.7780 0.7780 0.7780 0.7780 0.7781
3083.224818 0.7786 0.7790 0.7790 0.7791 0.7796
3088.000938 0.7800 0.7800 0.7802 0.7812 0.7821
3092.777058 0.7826 0.7831 0.7836 0.7840 0.7840
3097.553178 0.7840 0.7840 0.7840 0.7840 0.7841
3102.329298 0.7846 0.7850 0.7850 0.7850 0.7850
3107.105419 0.7850 0.7850 0.7850 0.7850 0.7850
3111.881539 0.7850 0.7850 0.7850 0.7850 0.7850
3116.657659 0.7850 0.7850 0.7850 0.7850 0.7850
3121.433779 0.7850 0.7850 0.7850 0.7850 0.7850
3126.209899 0.7850 0.7850 0.7850 0.7850 0.7850
3130.986019 0.7850 0.7851 0.7856 0.7863 0.7873
3135.762140 0.7880 0.7880 0.7881 0.7886 0.7890
3140.538260 0.7890 0.7890 0.7890 0.7889 0.7884
3145.314380 0.7880 0.7880 0.7880 0.7880 0.7877
3150.090500 0.7867 0.7860 0.7860 0.7860 0.7860
3154.866620 0.7860 0.7860 0.7860 0.7860 0.7860
3159.642740 0.7860 0.7859 0.7854 0.7850 0.7850
3164.418861 0.7850 0.7850 0.7850 0.7850 0.7850
3169.194981 0.7850 0.7850 0.7850 0.7850 0.7850
3173.971101 0.7850 0.7850 0.7850 0.7850 0.7850
3178.747221 0.7850 0.7850 0.7850 0.7850 0.7850
3183.523341 0.7850 0.7850 0.7850 0.7850 0.7850
3188.299461 0.7850 0.7850 0.7850 0.7850 0.7850
3193.075582 0.7848 0.7843 0.7840 0.7840 0.7840
3197.851702 0.7840 0.7840 0.7840 0.7840 0.7840
3202.627822 0.7840 0.7840 0.7840 0.7840 0.7838
3207.403942 0.7833 0.7828 0.7823 0.7820 0.7820
3212.180062 0.7816 0.7806 0.7800 0.7800 0.7804
3216.956182 0.7814 0.7822 0.7827 0.7832 0.7837
3221.732303 0.7840 0.7840 0.7840 0.7840 0.7840
3226.508423 0.7840 0.7840 0.7840 0.7840 0.7840
3231.284543 0.7838 0.7833 0.7830 0.7830 0.7830
3236.060663 0.7830 0.7828 0.7823 0.7816 0.7806
3240.836783 0.7798 0.7793 0.7790 0.7790 0.7788
3245.612903 0.7783 0.7780 0.7780 0.7780 0.7780
3250.389024 0.7780 0.7780 0.7780 0.7780 0.7780
3255.165144 0.7780 0.7780 0.7780 0.7780 0.7780
3259.941264 0.7784 0.7794 0.7800 0.7800 0.7800
3264.717384 0.7800 0.7800 0.7800 0.7800 0.7800
3269.493504 0.7800 0.7800 0.7798 0.7793 0.7790
3274.269624 0.7790 0.7790 0.7790 0.7790 0.7790
3279.045745 0.7790 0.7790 0.7790 0.7790 0.7788
3283.821865 0.7783 0.7780 0.7780 0.7778 0.7773
3288.597985 0.7770 0.7770 0.7770 0.7770 0.7768
3293.374105 0.7763 0.7760 0.7760 0.7760 0.7760
3298.150225 0.7760 0.7760 0.7760 0.7760 0.7760
3302.926345 0.7760 0.7760 0.7760 0.7758 0.7753
3307.702466 0.7750 0.7750 0.7745 0.7735 0.7730
3312.478586 0.7730 0.7728 0.7723 0.7720 0.7720
3317.254706 0.7718 0.7713 0.7708 0.7703 0.7700
3322.030826 0.7700 0.7700 0.7700 0.7700 0.7700
3326.806946 0.7700 0.7700 0.7700 0.7700 0.7698
3331.583066 0.7693 0.7690 0.7690 0.7690 0.7690
3336.359187 0.7690 0.7690 0.7685 0.7675 0.7667
3341.135307 0.7662 0.7660 0.7660 0.7657 0.7652
3345.911427 0.7650 0.7650 0.7647 0.7642 0.7640
3350.687547 0.7640 0.7637 0.7632 0.7630 0.7630
3355.463667 0.7630 0.7630 0.7625 0.7615 0.7610
3360.239787 0.7610 0.7610 0.7610 0.7607 0.7602
3365.015908 0.7600 0.7600 0.7597 0.7592 0.7587
3369.792028 0.7582 0.7580 0.7580 0.7577 0.7572
3374.568148 0.7570 0.7570 0.7565 0.7555 0.7550
3379.344268 0.7550 0.7547 0.7542 0.7540 0.7540
3384.120388 0.7537 0.7532 0.7530 0.7530 0.7530
3388.896508 0.7530 0.7530 0.7530 0.7527 0.7522
3393.672629 0.7520 0.7520 0.7520 0.7520 0.7520
3398.448749 0.7520 0.7517 0.7512 0.7510 0.7510
3403.224869 0.7510 0.7510 0.7507 0.7502 0.7500
3408.000989 0.7500 0.7494 0.7484 0.7480 0.7480
3412.777109 0.7480 0.7480 0.7477 0.7472 0.7470
3417.553229 0.7470 0.7470 0.7470 0.7470 0.7470
3422.329350 0.7470 0.7470 0.7470 0.7470 0.7470
3427.105470 0.7470 0.7467 0.7462 0.7460 0.7460
3431.881590 0.7460 0.7460 0.7457 0.7452 0.7450
3436.657710 0.7450 0.7450 0.7450 0.7450 0.7450
3441.433830 0.7447 0.7442 0.7431 0.7416 0.7410
3446.209950 0.7410 0.7407 0.7402 0.7400 0.7400
3450.986071 0.7397 0.7392 0.7390 0.7390 0.7390
3455.762191 0.7390 0.7387 0.7382 0.7374 0.7364
3460.538311 0.7354 0.7344 0.7337 0.7332 0.7330
3465.314431 0.7330 0.7330 0.7330 0.7330 0.7330
3470.090551 0.7330 0.7330 0.7330 0.7330 0.7327
3474.866671 0.7322 0.7313 0.7303 0.7300 0.7300
3479.642792 0.7293 0.7283 0.7277 0.7272 0.7267
3484.418912 0.7262 0.7257 0.7252 0.7243 0.7233
3489.195032 0.7223 0.7213 0.7203 0.7193 0.7183
3493.971152 0.7173 0.7163 0.7153 0.7136 0.7116
3498.747272 0.7103 0.7093 0.7083 0.7073 0.7060
3503.523392 0.7045 0.7030 0.7015 0.7000 0.6985
3508.299513 0.6973 0.6963 0.6946 0.6926 0.6913
3513.075633 0.6903 0.6893 0.6883 0.6870 0.6855
3517.851753 0.6829 0.6799 0.6769 0.6739 0.6720
3522.627873 0.6705 0.6686 0.6666 0.6642 0.6617
3527.403993 0.6603 0.6593 0.6586 0.6581 0.6580
3532.180113 0.6580 0.6580 0.6580 0.6576 0.6571
3536.956234 0.6563 0.6553 0.6546 0.6541 0.6536
3541.732354 0.6531 0.6523 0.6513 0.6499 0.6484
3546.508474 0.6473 0.6463 0.6456 0.6451 0.6439
3551.284594 0.6424 0.6413 0.6403 0.6400 0.6400
3556.060714 0.6396 0.6391 0.6390 0.6390 0.6390
3560.836834 0.6390 0.6390 0.6390 0.6390 0.6390
3565.612955 0.6394 0.6399 0.6404 0.6409 0.6410
3570.389075 0.6410 0.6421 0.6436 0.6444 0.6449
3575.165195 0.6454 0.6459 0.6464 0.6469 0.6489
3579.941315 0.6514 0.6524 0.6529 0.6530 0.6530
3584.717435 0.6530 0.6530 0.6530 0.6530 0.6526
3589.493555 0.6521 0.6516 0.6511 0.6510 0.6510
3594.269676 0.6510 0.6510 0.6510 0.6510 0.6514
3599.045796 0.6519 0.6520 0.6520 0.6524 0.6529
3603.821916 0.6530 0.6530 0.6530 0.6530 0.6534
3608.598036 0.6539 0.6544 0.6549 0.6550 0.6550
3613.374156 0.6558 0.6568 0.6570 0.6570 0.6578
3618.150277 0.6588 0.6590 0.6590 0.6594 0.6599
3622.926397 0.6600 0.6600 0.6600 0.6600 0.6600
3627.702517 0.6600 0.6604 0.6609 0.6610 0.6610
3632.478637 0.6622 0.6637 0.6648 0.6658 0.6672
3637.254757 0.6687 0.6715 0.6745 0.6758 0.6768
3642.030877 0.6774 0.6779 0.6780 0.6780 0.6780
3646.806998 0.6780 0.6780 0.6780 0.6801 0.6826
3651.583118 0.6851 0.6876 0.6893 0.6908 0.6935
3656.359238 0.6965 0.6987 0.7007 0.7023 0.7038
3661.135358 0.7092 0.7152 0.7186 0.7216 0.7242
3665.911478 0.7267 0.7296 0.7326 0.7360 0.7395
3670.687598 0.7422 0.7447 0.7459 0.7469 0.7470
3675.463719 0.7470 0.7474 0.7479 0.7493 0.7508
3680.239839 0.7537 0.7567 0.7606 0.7646 0.7654
3685.015959 0.7659 0.7660 0.7660 0.7664 0.7669
3689.792079 0.7670 0.7670 0.7679 0.7689 0.7690
3694.568199 0.7690 0.7694 0.7699 0.7700 0.7700
3699.344319 0.7705 0.7710 0.7719 0.7729 0.7739
3704.120440 0.7749 0.7759 0.7769 0.7770 0.7770
3708.896560 0.7770 0.7770 0.7770 0.7770 0.7775
3713.672680 0.7780 0.7780 0.7780 0.7775 0.7770
3718.448800 0.7770 0.7770 0.7765 0.7760 0.7765
3723.224920 0.7770 0.7770 0.7770 0.7775 0.7780
3728.001040 0.7785 0.7790 0.7790 0.7790 0.7790
3732.777161 0.7790 0.7790 0.7790 0.7790 0.7790
3737.553281 0.7790 0.7790 0.7790 0.7790 0.7785
3742.329401 0.7780 0.7780 0.7780 0.7775 0.7770
3747.105521 0.7770 0.7770 0.7765 0.7760 0.7760
3751.881641 0.7760 0.7760 0.7760 0.7755 0.7750
3756.657761 0.7740 0.7730 0.7730 0.7730 0.7730
3761.433882 0.7730 0.7730 0.7730 0.7730 0.7730
3766.210002 0.7730 0.7730 0.7730 0.7730 0.7730
3770.986122 0.7730 0.7730 0.7730 0.7730 0.7730
3775.762242 0.7730 0.7730 0.7730 0.7730 0.7730
3780.538362 0.7730 0.7730 0.7730 0.7730 0.7730
3785.314482 0.7730 0.7730 0.7740 0.7750 0.7755
3790.090603 0.7760 0.7760 0.7760 0.7760 0.7760
3794.866723 0.7760 0.7760 0.7755 0.7750 0.7750
3799.642843 0.7750 0.7740 0.7730 0.7730 0.7730
3804.418963 0.7725 0.7720 0.7725 0.7730 0.7730
3809.195083 0.7730 0.7740 0.7750 0.7750 0.7750
3813.971203 0.7750 0.7750 0.7750 0.7750 0.7750
3818.747324 0.7750 0.7750 0.7750 0.7740 0.7730
3823.523444 0.7740 0.7750 0.7750 0.7750 0.7750
3828.299564 0.7750 0.7755 0.7760 0.7760 0.7760
3833.075684 0.7760 0.7760 0.7760 0.7760 0.7760
3837.851804 0.7760 0.7755 0.7750 0.7755 0.7761
3842.627924 0.7771 0.7780 0.7780 0.7780 0.7785
3847.404045 0.7790 0.7785 0.7779 0.7764 0.7748
3852.180165 0.7728 0.7710 0.7705 0.7700 0.7695
3856.956285 0.7690 0.7690 0.7690 0.7690 0.7690
3861.732405 0.7690 0.7690 0.7690 0.7689 0.7679
3866.508525 0.7670 0.7670 0.7670 0.7670 0.7670
3871.284645 0.7670 0.7670 0.7670 0.7670 0.7670
3876.060766 0.7669 0.7664 0.7660 0.7660 0.7660
3880.836886 0.7660 0.7660 0.7660 0.7662 0.7677
3885.613006 0.7689 0.7679 0.7670 0.7670 0.7669
3890.389126 0.7664 0.7660 0.7660 0.7660 0.7660
3895.165246 0.7660 0.7660
##END=
