##TITLE=2-IMIDAZOLIDINETHIONE
##JCAMP-DX=4.24
##DATA TYPE=INFRARED SPECTRUM
##CLASS=COBLENTZ III
##ORIGIN=DOW CHEMICAL COMPANY
##OWNER=COBLENTZ SOCIETY
Collection (C) 2018 copyright by the U.S. Secretary of Commerce
on behalf of the United States of America. All rights reserved.
##DATE=1962/05/28
##CAS REGISTRY NO=96-45-7
##MOLFORM=C3 H6 N2 S
##MP=191 C
##SOURCE REFERENCE=COBLENTZ NO. 10622
##$NIST SOURCE=COBLENTZ
##$NIST IMAGE=cob10622
##SPECTROMETER/DATA SYSTEM=DOW KBr FOREPRISM-GRATING
##INSTRUMENT PARAMETERS=BLAZED AT 3.5, 12.0, 20.0 MICRON, CHANGED AT 5.0, 7.5, 14.9 MICRON
##STATE=SOLID (SPLIT MULL, FLUOROLUBE FOR 3800-1333 AND NUJOL FOR 1333-400 CM ^-^1)
##PATH LENGTH=
$$SPECTRAL CONTAMINATION DUE TO OIL AROUND 721 CM^-^1
##SAMPLING PROCEDURE=TRANSMISSION
##RESOLUTION=4
##DATA PROCESSING=DIGITIZED BY NIST FROM HARD COPY (FROM TWO SEGMENTS)
##XUNITS=1/CM
##YUNITS=TRANSMITTANCE
##XFACTOR=1.000000
##YFACTOR=1
##DELTAX=0.933419
##FIRSTX=452.396
##LASTX=3785.64
##FIRSTY=0.796
##MAXX=3785.64
##MINX=452.396
##MAXY=0.976
##MINY=0.133009
##NPOINTS=3572
##XYDATA=(X++(Y..Y))
452.396000 0.7960 0.7970 0.7970 0.7970 0.7990
457.063095 0.7990 0.7990 0.8000 0.8000 0.8020
461.730191 0.8030 0.8030 0.8030 0.8050 0.8050
466.397286 0.8050 0.8050 0.8050 0.8050 0.8050
471.064382 0.8050 0.8050 0.8050 0.8050 0.8050
475.731477 0.8050 0.8050 0.8050 0.8050 0.8050
480.398572 0.8030 0.8030 0.8030 0.8030 0.8030
485.065668 0.8020 0.8020 0.8000 0.8000 0.7990
489.732763 0.7970 0.7960 0.7950 0.7930 0.7900
494.399859 0.7890 0.7830 0.7810 0.7770 0.7740
499.066954 0.7680 0.7610 0.7550 0.7480 0.7420
503.734049 0.7360 0.7201 0.7001 0.6910 0.6830
508.401145 0.6650 0.6320 0.5241 0.4980 0.4980
513.068240 0.5100 0.5339 0.5629 0.7113 0.7468
517.735336 0.7640 0.7790 0.7840 0.7870 0.7890
522.402431 0.7890 0.7900 0.7900 0.7900 0.7900
527.069527 0.7900 0.7900 0.7900 0.7900 0.7900
531.736622 0.7900 0.7900 0.7900 0.7900 0.7900
536.403717 0.7890 0.7890 0.7890 0.7870 0.7870
541.070813 0.7870 0.7860 0.7860 0.7840 0.7830
545.737908 0.7830 0.7810 0.7810 0.7800 0.7800
550.405004 0.7770 0.7770 0.7760 0.7740 0.7730
555.072099 0.7700 0.7650 0.7630 0.7610 0.7580
559.739194 0.7550 0.7500 0.7480 0.7440 0.7390
564.406290 0.7360 0.7290 0.7250 0.7220 0.7100
569.073385 0.7040 0.6990 0.6910 0.6800 0.6770
573.740481 0.6620 0.6550 0.6450 0.6320 0.6170
578.407576 0.6060 0.5970 0.5880 0.5751 0.5650
583.074671 0.5610 0.5490 0.5390 0.5340 0.5260
587.741767 0.5180 0.5140 0.5130 0.5130 0.5110
592.408862 0.5110 0.5130 0.5130 0.5140 0.5150
597.075958 0.5180 0.5230 0.5260 0.5340 0.5400
601.743053 0.5460 0.5500 0.5560 0.5620 0.5630
606.410148 0.5720 0.5780 0.5870 0.5930 0.6040
611.077244 0.6160 0.6290 0.6330 0.6450 0.6580
615.744339 0.6680 0.6780 0.6860 0.7069 0.7120
620.411435 0.7250 0.7320 0.7380 0.7440 0.7520
625.078530 0.7580 0.7640 0.7700 0.7760 0.7800
629.745625 0.7900 0.7950 0.7960 0.7970 0.8000
634.412721 0.8030 0.8050 0.8080 0.8120 0.8130
639.079816 0.8180 0.8190 0.8210 0.8220 0.8220
643.746912 0.8220 0.8240 0.8240 0.8240 0.8240
648.414007 0.8240 0.8240 0.8240 0.8240 0.8220
653.081102 0.8220 0.8210 0.8190 0.8180 0.8160
657.748198 0.8150 0.8110 0.8060 0.8020 0.7960
662.415293 0.7950 0.7920 0.7810 0.7770 0.7710
667.082389 0.7570 0.7420 0.7320 0.7230 0.7130
671.749484 0.7100 0.7060 0.7000 0.6940 0.6781
676.416580 0.6590 0.6430 0.6260 0.6100 0.5900
681.083675 0.5720 0.5710 0.5710 0.5720 0.5770
685.750770 0.5810 0.5930 0.6060 0.6190 0.6330
690.417866 0.6510 0.6719 0.6810 0.7019 0.7090
695.084961 0.7220 0.7260 0.7310 0.7360 0.7440
699.752057 0.7480 0.7510 0.7520 0.7600 0.7610
704.419152 0.7630 0.7640 0.7640 0.7640 0.7640
709.086247 0.7630 0.7630 0.7600 0.7580 0.7570
713.753343 0.7520 0.7500 0.7450 0.7440 0.7410
718.420438 0.7350 0.7260 0.7190 0.7180 0.7190
723.087534 0.7200 0.7220 0.7230 0.7260 0.7290
727.754629 0.7320 0.7350 0.7410 0.7440 0.7450
732.421724 0.7470 0.7500 0.7510 0.7520 0.7540
737.088820 0.7570 0.7580 0.7600 0.7610 0.7630
741.755915 0.7640 0.7650 0.7680 0.7700 0.7710
746.423011 0.7740 0.7760 0.7770 0.7770 0.7790
751.090106 0.7800 0.7800 0.7810 0.7830 0.7840
755.757201 0.7860 0.7860 0.7870 0.7890 0.7890
760.424297 0.7900 0.7900 0.7920 0.7920 0.7920
765.091392 0.7920 0.7930 0.7950 0.7950 0.7950
769.758488 0.7960 0.7960 0.7970 0.7970 0.7990
774.425583 0.7990 0.7990 0.8000 0.8000 0.8020
779.092678 0.8020 0.8030 0.8050 0.8050 0.8060
783.759774 0.8060 0.8080 0.8080 0.8090 0.8090
788.426869 0.8110 0.8110 0.8120 0.8120 0.8130
793.093965 0.8150 0.8150 0.8150 0.8150 0.8150
797.761060 0.8160 0.8160 0.8160 0.8160 0.8160
802.428156 0.8160 0.8180 0.8180 0.8180 0.8180
807.095251 0.8180 0.8180 0.8180 0.8180 0.8180
811.762346 0.8160 0.8160 0.8160 0.8160 0.8160
816.429442 0.8160 0.8160 0.8160 0.8160 0.8160
821.096537 0.8160 0.8160 0.8160 0.8160 0.8160
825.763633 0.8160 0.8160 0.8160 0.8160 0.8160
830.430728 0.8160 0.8160 0.8160 0.8160 0.8160
835.097823 0.8160 0.8150 0.8150 0.8150 0.8150
839.764919 0.8130 0.8130 0.8130 0.8130 0.8130
844.432014 0.8130 0.8130 0.8150 0.8150 0.8150
849.099110 0.8150 0.8150 0.8160 0.8160 0.8160
853.766205 0.8160 0.8160 0.8180 0.8180 0.8180
858.433300 0.8180 0.8180 0.8180 0.8180 0.8180
863.100396 0.8180 0.8180 0.8180 0.8180 0.8180
867.767491 0.8180 0.8180 0.8180 0.8180 0.8180
872.434587 0.8180 0.8180 0.8160 0.8160 0.8160
877.101682 0.8160 0.8160 0.8160 0.8160 0.8150
881.768777 0.8130 0.8130 0.8130 0.8120 0.8120
886.435873 0.8120 0.8120 0.8120 0.8120 0.8110
891.102968 0.8090 0.8090 0.8080 0.8080 0.8080
895.770064 0.8080 0.8060 0.8060 0.8060 0.8060
900.437159 0.8050 0.8050 0.8050 0.8030 0.8020
905.104254 0.8000 0.8000 0.7990 0.7970 0.7960
909.771350 0.7950 0.7920 0.7890 0.7840 0.7810
914.438445 0.7770 0.7680 0.7580 0.7470 0.7341
919.105541 0.7160 0.7020 0.6860 0.6260 0.4921
923.772636 0.4920 0.5619 0.6109 0.7535 0.7729
928.439731 0.7810 0.7930 0.7990 0.8030 0.8050
933.106827 0.8060 0.8060 0.8060 0.8060 0.8060
937.773922 0.8060 0.8060 0.8060 0.8060 0.8060
942.441018 0.8050 0.8050 0.8050 0.8050 0.8030
947.108113 0.8030 0.8030 0.8030 0.8020 0.8000
951.775209 0.8000 0.8000 0.8000 0.7990 0.7990
956.442304 0.7970 0.7970 0.7970 0.7960 0.7960
961.109399 0.7950 0.7950 0.7930 0.7920 0.7920
965.776495 0.7900 0.7890 0.7890 0.7870 0.7860
970.443590 0.7840 0.7830 0.7800 0.7800 0.7790
975.110686 0.7790 0.7790 0.7790 0.7790 0.7770
979.777781 0.7770 0.7770 0.7770 0.7770 0.7760
984.444876 0.7740 0.7740 0.7730 0.7700 0.7670
989.111972 0.7650 0.7610 0.7580 0.7540 0.7500
993.779067 0.7440 0.7380 0.7290 0.7230 0.7130
998.446163 0.7020 0.6970 0.6910 0.6671 0.6251
1003.113258 0.6029 0.5740 0.5710 0.5720 0.5880
1007.780353 0.6040 0.6320 0.7039 0.7180 0.7409
1012.447449 0.7470 0.7580 0.7640 0.7710 0.7740
1017.114544 0.7740 0.7740 0.7740 0.7740 0.7730
1021.781640 0.7710 0.7700 0.7700 0.7680 0.7670
1026.448735 0.7670 0.7670 0.7650 0.7650 0.7640
1031.115830 0.7640 0.7630 0.7610 0.7610 0.7600
1035.782926 0.7600 0.7580 0.7570 0.7550 0.7510
1040.450021 0.7500 0.7450 0.7420 0.7390 0.7340
1045.117117 0.7260 0.7180 0.7100 0.7090 0.7100
1049.784212 0.7150 0.7200 0.7280 0.7290 0.7340
1054.451307 0.7360 0.7380 0.7390 0.7410 0.7410
1059.118403 0.7410 0.7410 0.7390 0.7390 0.7390
1063.785498 0.7390 0.7380 0.7380 0.7360 0.7360
1068.452594 0.7350 0.7350 0.7340 0.7320 0.7320
1073.119689 0.7310 0.7310 0.7310 0.7310 0.7290
1077.786785 0.7290 0.7290 0.7290 0.7290 0.7290
1082.453880 0.7280 0.7280 0.7280 0.7280 0.7280
1087.120975 0.7280 0.7280 0.7280 0.7280 0.7280
1091.788071 0.7280 0.7280 0.7280 0.7260 0.7260
1096.455166 0.7260 0.7260 0.7260 0.7250 0.7250
1101.122262 0.7250 0.7250 0.7250 0.7250 0.7250
1105.789357 0.7250 0.7250 0.7260 0.7260 0.7260
1110.456452 0.7260 0.7260 0.7280 0.7290 0.7290
1115.123548 0.7310 0.7310 0.7310 0.7310 0.7320
1119.790643 0.7320 0.7340 0.7340 0.7340 0.7340
1124.457739 0.7340 0.7340 0.7320 0.7320 0.7310
1129.124834 0.7290 0.7260 0.7250 0.7230 0.7220
1133.791929 0.7200 0.7190 0.7180 0.7160 0.7150
1138.459025 0.7130 0.7100 0.7100 0.7070 0.7070
1143.126120 0.7060 0.7060 0.7040 0.7040 0.7030
1147.793216 0.7030 0.7020 0.7000 0.7000 0.7000
1152.460311 0.6990 0.6990 0.6970 0.6970 0.6960
1157.127406 0.6940 0.6940 0.6930 0.6910 0.6900
1161.794502 0.6870 0.6860 0.6840 0.6830 0.6810
1166.461597 0.6780 0.6780 0.6750 0.6740 0.6720
1171.128693 0.6700 0.6680 0.6640 0.6610 0.6580
1175.795788 0.6540 0.6520 0.6480 0.6450 0.6390
1180.462883 0.6320 0.6200 0.6160 0.6100 0.6040
1185.129979 0.6000 0.5950 0.5900 0.5840 0.5750
1189.797074 0.5630 0.5530 0.5400 0.5310 0.5200
1194.464170 0.5070 0.4890 0.4621 0.4430 0.4280
1199.131265 0.4040 0.3960 0.3890 0.3690 0.3590
1203.798360 0.3370 0.3020 0.2681 0.2391 0.2191
1208.465456 0.2160 0.2180 0.2230 0.2390 0.2520
1213.132551 0.2740 0.2950 0.3279 0.3539 0.4118
1217.799647 0.4441 0.4881 0.5141 0.5470 0.5690
1222.466742 0.5900 0.6060 0.6220 0.6380 0.6480
1227.133838 0.6560 0.6610 0.6670 0.6740 0.6780
1231.800933 0.6810 0.6860 0.6880 0.6910 0.6910
1236.468028 0.6910 0.6900 0.6900 0.6900 0.6880
1241.135124 0.6880 0.6880 0.6870 0.6870 0.6870
1245.802219 0.6840 0.6830 0.6810 0.6800 0.6770
1250.469315 0.6740 0.6700 0.6670 0.6640 0.6590
1255.136410 0.6510 0.6450 0.6400 0.6350 0.6300
1259.803505 0.6200 0.6140 0.6040 0.6000 0.5910
1264.470601 0.5790 0.5740 0.5610 0.5490 0.5370
1269.137696 0.5170 0.4980 0.4750 0.4530 0.4251
1273.804792 0.4079 0.3899 0.3509 0.3080 0.2810
1278.471887 0.2710 0.2710 0.2770 0.2810 0.2900
1283.138982 0.2960 0.3060 0.3210 0.3451 0.4080
1287.806078 0.4570 0.5070 0.5290 0.5470 0.5490
1292.473173 0.5490 0.5470 0.5450 0.5400 0.5370
1297.140269 0.5340 0.5240 0.5130 0.4910 0.4790
1301.807364 0.4700 0.4590 0.4430 0.4270 0.4150
1306.474459 0.4010 0.3980 0.3930 0.3790 0.3760
1311.141555 0.3760 0.3770 0.3790 0.3820 0.3880
1315.808650 0.4080 0.4180 0.4330 0.4490 0.4699
1320.475746 0.5000 0.5130 0.5260 0.5420 0.5530
1325.142841 0.5680 0.5870 0.5970 0.6070 0.6220
1329.809936 0.6330 0.6430 0.6480 0.6540 0.6610
1334.477032 0.6620 0.6650 0.6650 0.6670 0.6670
1339.144127 0.6670 0.6670 0.6670 0.6670 0.6680
1343.811223 0.6680 0.6700 0.6710 0.6740 0.6750
1348.478318 0.6780 0.6830 0.6870 0.6900 0.6900
1353.145414 0.6900 0.6880 0.6870 0.6860 0.6830
1357.812509 0.6750 0.6650 0.6480 0.6230 0.6000
1362.479604 0.5880 0.5880 0.5930 0.6000 0.6130
1367.146700 0.6200 0.6200 0.6000 0.5870 0.5740
1371.813795 0.5300 0.5270 0.5300 0.5470 0.5689
1376.480891 0.7161 0.7450 0.7650 0.7800 0.7870
1381.147986 0.7920 0.7930 0.7950 0.7950 0.7950
1385.815081 0.7930 0.7900 0.7900 0.7890 0.7870
1390.482177 0.7860 0.7830 0.7810 0.7800 0.7800
1395.149272 0.7790 0.7790 0.7770 0.7760 0.7760
1399.816368 0.7730 0.7710 0.7700 0.7700 0.7680
1404.483463 0.7670 0.7650 0.7640 0.7610 0.7600
1409.150558 0.7580 0.7550 0.7540 0.7520 0.7480
1413.817654 0.7470 0.7440 0.7420 0.7410 0.7410
1418.484749 0.7350 0.7340 0.7320 0.7290 0.7280
1423.151845 0.7250 0.7230 0.7220 0.7190 0.7160
1427.818940 0.7150 0.7100 0.7090 0.7060 0.7000
1432.486035 0.7000 0.6990 0.6960 0.6910 0.6860
1437.153131 0.6810 0.6720 0.6650 0.6640 0.6590
1441.820226 0.6490 0.6450 0.6350 0.6300 0.6190
1446.487322 0.6100 0.5940 0.5790 0.5630 0.5500
1451.154417 0.5400 0.5269 0.5080 0.4949 0.4649
1455.821512 0.4040 0.3800 0.3570 0.3540 0.3570
1460.488608 0.3610 0.3640 0.3660 0.3630 0.3560
1465.155703 0.3440 0.3440 0.3600 0.4299 0.4629
1469.822799 0.4981 0.5311 0.5591 0.6380 0.6390
1474.489894 0.6380 0.6320 0.6290 0.6070 0.5791
1479.156989 0.5579 0.5369 0.4939 0.4340 0.4170
1483.824085 0.4180 0.4600 0.4660 0.4620 0.4490
1488.491180 0.4219 0.3957 0.3059 0.2550 0.2440
1493.158276 0.2420 0.2410 0.2390 0.1901 0.1521
1497.825371 0.1350 0.1330 0.1361 0.1610 0.1870
1502.492467 0.2120 0.2500 0.3030 0.4139 0.4150
1507.159562 0.4140 0.4110 0.4060 0.4010 0.3950
1511.826657 0.3760 0.3510 0.3130 0.2870 0.2551
1516.493753 0.2189 0.1900 0.1870 0.1860 0.1860
1521.160848 0.1860 0.1870 0.1880 0.1910 0.2030
1525.827944 0.2151 0.2470 0.2581 0.2921 0.3221
1530.495039 0.3531 0.3990 0.4370 0.4690 0.5139
1535.162134 0.5631 0.5951 0.6141 0.6391 0.7101
1539.829230 0.7670 0.7920 0.8110 0.8160 0.8290
1544.496325 0.8380 0.8480 0.8610 0.8720 0.8760
1549.163421 0.8790 0.8890 0.8990 0.9080 0.9110
1553.830516 0.9150 0.9220 0.9310 0.9370 0.9410
1558.497611 0.9530 0.9540 0.9570 0.9590 0.9600
1563.164707 0.9620 0.9650 0.9690 0.9700 0.9720
1567.831802 0.9730 0.9750 0.9750 0.9760 0.9760
1572.498898 0.9760 0.9760 0.9760 0.9760 0.9760
1577.165993 0.9750 0.9750 0.9750 0.9730 0.9730
1581.833088 0.9730 0.9730 0.9720 0.9720 0.9700
1586.500184 0.9700 0.9690 0.9690 0.9680 0.9680
1591.167279 0.9680 0.9660 0.9660 0.9650 0.9650
1595.834375 0.9630 0.9630 0.9620 0.9600 0.9590
1600.501470 0.9570 0.9570 0.9560 0.9540 0.9540
1605.168565 0.9530 0.9530 0.9530 0.9530 0.9520
1609.835661 0.9520 0.9520 0.9520 0.9520 0.9520
1614.502756 0.9500 0.9500 0.9500 0.9500 0.9500
1619.169852 0.9500 0.9490 0.9490 0.9490 0.9490
1623.836947 0.9490 0.9500 0.9500 0.9500 0.9520
1628.504043 0.9520 0.9520 0.9530 0.9530 0.9540
1633.171138 0.9560 0.9560 0.9570 0.9570 0.9570
1637.838233 0.9590 0.9590 0.9590 0.9590 0.9590
1642.505329 0.9600 0.9600 0.9600 0.9590 0.9590
1647.172424 0.9560 0.9540 0.9540 0.9530 0.9520
1651.839520 0.9490 0.9460 0.9410 0.9370 0.9340
1656.506615 0.9330 0.9330 0.9310 0.9300 0.9270
1661.173710 0.9240 0.9210 0.9200 0.9170 0.9170
1665.840806 0.9150 0.9150 0.9140 0.9140 0.9120
1670.507901 0.9120 0.9110 0.9110 0.9090 0.9060
1675.174997 0.9050 0.9040 0.9040 0.9020 0.9010
1679.842092 0.8980 0.8960 0.8960 0.8930 0.8930
1684.509187 0.8920 0.8900 0.8900 0.8890 0.8880
1689.176283 0.8880 0.8860 0.8860 0.8850 0.8850
1693.843378 0.8820 0.8800 0.8790 0.8770 0.8760
1698.510474 0.8750 0.8730 0.8720 0.8720 0.8700
1703.177569 0.8700 0.8690 0.8670 0.8670 0.8660
1707.844664 0.8660 0.8630 0.8610 0.8600 0.8590
1712.511760 0.8590 0.8570 0.8570 0.8570 0.8570
1717.178855 0.8570 0.8570 0.8570 0.8570 0.8590
1721.845951 0.8600 0.8600 0.8610 0.8630 0.8660
1726.513046 0.8660 0.8670 0.8670 0.8690 0.8690
1731.180141 0.8700 0.8700 0.8700 0.8700 0.8700
1735.847237 0.8700 0.8700 0.8700 0.8700 0.8700
1740.514332 0.8690 0.8690 0.8670 0.8670 0.8670
1745.181428 0.8670 0.8670 0.8660 0.8660 0.8660
1749.848523 0.8640 0.8640 0.8630 0.8630 0.8630
1754.515619 0.8630 0.8630 0.8610 0.8610 0.8610
1759.182714 0.8600 0.8600 0.8600 0.8590 0.8590
1763.849809 0.8590 0.8570 0.8570 0.8570 0.8560
1768.516905 0.8560 0.8560 0.8540 0.8540 0.8530
1773.184000 0.8530 0.8510 0.8510 0.8510 0.8500
1777.851096 0.8500 0.8480 0.8480 0.8480 0.8470
1782.518191 0.8470 0.8450 0.8450 0.8450 0.8440
1787.185286 0.8440 0.8430 0.8430 0.8430 0.8430
1791.852382 0.8430 0.8430 0.8410 0.8410 0.8410
1796.519477 0.8410 0.8410 0.8400 0.8400 0.8400
1801.186573 0.8400 0.8400 0.8400 0.8400 0.8400
1805.853668 0.8400 0.8380 0.8380 0.8370 0.8370
1810.520763 0.8370 0.8370 0.8350 0.8350 0.8350
1815.187859 0.8340 0.8340 0.8340 0.8320 0.8320
1819.854954 0.8310 0.8310 0.8310 0.8310 0.8310
1824.522050 0.8310 0.8310 0.8310 0.8310 0.8290
1829.189145 0.8290 0.8290 0.8290 0.8290 0.8290
1833.856240 0.8290 0.8290 0.8290 0.8290 0.8290
1838.523336 0.8280 0.8280 0.8280 0.8270 0.8250
1843.190431 0.8250 0.8250 0.8250 0.8240 0.8240
1847.857527 0.8240 0.8240 0.8220 0.8220 0.8220
1852.524622 0.8220 0.8210 0.8210 0.8210 0.8210
1857.191717 0.8190 0.8190 0.8190 0.8180 0.8180
1861.858813 0.8180 0.8180 0.8160 0.8160 0.8160
1866.525908 0.8150 0.8150 0.8150 0.8150 0.8150
1871.193004 0.8150 0.8150 0.8150 0.8150 0.8150
1875.860099 0.8150 0.8130 0.8130 0.8130 0.8130
1880.527194 0.8130 0.8130 0.8130 0.8130 0.8130
1885.194290 0.8130 0.8130 0.8130 0.8120 0.8120
1889.861385 0.8120 0.8120 0.8120 0.8120 0.8110
1894.528481 0.8110 0.8110 0.8110 0.8110 0.8110
1899.195576 0.8110 0.8090 0.8090 0.8090 0.8090
1903.862672 0.8090 0.8090 0.8080 0.8080 0.8080
1908.529767 0.8080 0.8080 0.8080 0.8060 0.8060
1913.196862 0.8060 0.8060 0.8060 0.8060 0.8060
1917.863958 0.8060 0.8060 0.8060 0.8050 0.8050
1922.531053 0.8050 0.8050 0.8030 0.8030 0.8030
1927.198149 0.8030 0.8030 0.8030 0.8030 0.8030
1931.865244 0.8020 0.8020 0.8020 0.8020 0.8020
1936.532339 0.8020 0.8020 0.8020 0.8000 0.8000
1941.199435 0.8000 0.8000 0.8000 0.8000 0.8000
1945.866530 0.8000 0.8000 0.7990 0.7990 0.7990
1950.533626 0.7990 0.7990 0.7990 0.7990 0.7990
1955.200721 0.7990 0.7990 0.7970 0.7970 0.7970
1959.867816 0.7970 0.7970 0.7960 0.7960 0.7960
1964.534912 0.7960 0.7960 0.7950 0.7950 0.7950
1969.202007 0.7950 0.7930 0.7930 0.7930 0.7930
1973.869103 0.7950 0.7950 0.7950 0.7950 0.7950
1978.536198 0.7950 0.7950 0.7950 0.7960 0.7960
1983.203293 0.7960 0.7960 0.7960 0.7960 0.7960
1987.870389 0.7960 0.7960 0.7960 0.7960 0.7960
1992.537484 0.7960 0.7960 0.7960 0.7960 0.7960
1997.204580 0.7960 0.7960 0.7960 0.7960 0.7960
2001.871675 0.7960 0.7960 0.7960 0.7955 0.7950
2006.538770 0.7950 0.7950 0.7950 0.7950 0.7950
2011.205866 0.7950 0.7940 0.7930 0.7930 0.7930
2015.872961 0.7930 0.7930 0.7930 0.7930 0.7925
2020.540057 0.7920 0.7920 0.7920 0.7920 0.7920
2025.207152 0.7910 0.7900 0.7900 0.7900 0.7900
2029.874248 0.7900 0.7895 0.7890 0.7890 0.7890
2034.541343 0.7890 0.7890 0.7879 0.7870 0.7865
2039.208438 0.7860 0.7860 0.7859 0.7849 0.7840
2043.875534 0.7840 0.7840 0.7835 0.7830 0.7830
2048.542629 0.7829 0.7819 0.7810 0.7810 0.7810
2053.209725 0.7805 0.7800 0.7800 0.7800 0.7795
2057.876820 0.7790 0.7790 0.7789 0.7779 0.7770
2062.543915 0.7765 0.7759 0.7749 0.7740 0.7740
2067.211011 0.7740 0.7735 0.7730 0.7730 0.7729
2071.878106 0.7719 0.7710 0.7710 0.7709 0.7704
2076.545202 0.7699 0.7689 0.7680 0.7680 0.7679
2081.212297 0.7674 0.7670 0.7670 0.7669 0.7659
2085.879392 0.7649 0.7644 0.7640 0.7640 0.7639
2090.546488 0.7634 0.7630 0.7630 0.7629 0.7619
2095.213583 0.7610 0.7610 0.7609 0.7604 0.7600
2099.880679 0.7600 0.7598 0.7588 0.7579 0.7574
2104.547774 0.7570 0.7570 0.7568 0.7558 0.7550
2109.214869 0.7550 0.7549 0.7544 0.7540 0.7540
2113.881965 0.7538 0.7528 0.7520 0.7520 0.7519
2118.549060 0.7514 0.7510 0.7510 0.7509 0.7504
2123.216156 0.7498 0.7488 0.7480 0.7480 0.7479
2127.883251 0.7474 0.7470 0.7470 0.7470 0.7470
2132.550346 0.7470 0.7470 0.7468 0.7458 0.7449
2137.217442 0.7444 0.7440 0.7440 0.7438 0.7428
2141.884537 0.7419 0.7414 0.7410 0.7410 0.7408
2146.551633 0.7398 0.7389 0.7384 0.7380 0.7380
2151.218728 0.7378 0.7368 0.7359 0.7354 0.7350
2155.885823 0.7350 0.7346 0.7331 0.7320 0.7320
2160.552919 0.7319 0.7314 0.7310 0.7310 0.7308
2165.220014 0.7298 0.7290 0.7290 0.7286 0.7271
2169.887110 0.7260 0.7260 0.7259 0.7254 0.7247
2174.554205 0.7237 0.7229 0.7224 0.7220 0.7220
2179.221301 0.7217 0.7207 0.7199 0.7194 0.7189
2183.888396 0.7184 0.7180 0.7180 0.7177 0.7167
2188.555491 0.7159 0.7154 0.7147 0.7137 0.7130
2193.222587 0.7130 0.7129 0.7124 0.7117 0.7107
2197.889682 0.7099 0.7094 0.7090 0.7090 0.7090
2202.556778 0.7090 0.7087 0.7077 0.7070 0.7070
2207.223873 0.7068 0.7063 0.7060 0.7060 0.7057
2211.890968 0.7047 0.7040 0.7040 0.7040 0.7040
2216.558064 0.7038 0.7033 0.7030 0.7030 0.7030
2221.225159 0.7030 0.7028 0.7023 0.7017 0.7007
2225.892255 0.7000 0.7000 0.7000 0.7000 0.6998
2230.559350 0.6993 0.6986 0.6976 0.6968 0.6963
2235.226445 0.6956 0.6946 0.6938 0.6933 0.6930
2239.893541 0.6930 0.6926 0.6916 0.6908 0.6903
2244.560636 0.6896 0.6886 0.6878 0.6873 0.6868
2249.227732 0.6863 0.6856 0.6846 0.6838 0.6833
2253.894827 0.6826 0.6816 0.6810 0.6810 0.6808
2258.561922 0.6803 0.6800 0.6800 0.6796 0.6786
2263.229018 0.6780 0.6780 0.6778 0.6773 0.6766
2267.896113 0.6756 0.6750 0.6750 0.6748 0.6743
2272.563209 0.6740 0.6740 0.6736 0.6726 0.6720
2277.230304 0.6720 0.6718 0.6713 0.6708 0.6703
2281.897399 0.6696 0.6686 0.6680 0.6680 0.6678
2286.564495 0.6673 0.6670 0.6670 0.6666 0.6656
2291.231590 0.6650 0.6650 0.6648 0.6643 0.6640
2295.898686 0.6640 0.6636 0.6625 0.6620 0.6620
2300.565781 0.6618 0.6613 0.6610 0.6610 0.6610
2305.232877 0.6610 0.6610 0.6610 0.6610 0.6610
2309.899972 0.6610 0.6610 0.6610 0.6610 0.6610
2314.567067 0.6610 0.6610 0.6610 0.6610 0.6610
2319.234163 0.6610 0.6610 0.6605 0.6595 0.6590
2323.901258 0.6590 0.6590 0.6590 0.6588 0.6583
2328.568354 0.6580 0.6580 0.6580 0.6580 0.6580
2333.235449 0.6580 0.6575 0.6565 0.6560 0.6560
2337.902544 0.6557 0.6552 0.6550 0.6550 0.6550
2342.569640 0.6550 0.6547 0.6542 0.6540 0.6540
2347.236735 0.6535 0.6525 0.6520 0.6520 0.6520
2351.903831 0.6520 0.6520 0.6520 0.6520 0.6520
2356.570926 0.6520 0.6520 0.6520 0.6520 0.6520
2361.238021 0.6520 0.6520 0.6520 0.6520 0.6520
2365.905117 0.6520 0.6520 0.6520 0.6520 0.6517
2370.572212 0.6512 0.6510 0.6510 0.6510 0.6510
2375.239308 0.6504 0.6494 0.6490 0.6490 0.6487
2379.906403 0.6482 0.6480 0.6480 0.6480 0.6480
2384.573498 0.6480 0.6480 0.6474 0.6464 0.6460
2389.240594 0.6460 0.6460 0.6460 0.6460 0.6460
2393.907689 0.6460 0.6460 0.6460 0.6460 0.6457
2398.574785 0.6452 0.6450 0.6450 0.6450 0.6450
2403.241880 0.6450 0.6450 0.6450 0.6450 0.6444
2407.908975 0.6434 0.6430 0.6430 0.6430 0.6430
2412.576071 0.6427 0.6422 0.6420 0.6420 0.6420
2417.243166 0.6420 0.6414 0.6404 0.6400 0.6400
2421.910262 0.6397 0.6392 0.6390 0.6390 0.6390
2426.577357 0.6390 0.6390 0.6390 0.6390 0.6390
2431.244452 0.6387 0.6382 0.6380 0.6380 0.6373
2435.911548 0.6363 0.6360 0.6360 0.6360 0.6360
2440.578643 0.6360 0.6360 0.6360 0.6360 0.6360
2445.245739 0.6360 0.6357 0.6352 0.6350 0.6350
2449.912834 0.6350 0.6350 0.6350 0.6350 0.6350
2454.579930 0.6350 0.6343 0.6333 0.6330 0.6330
2459.247025 0.6330 0.6330 0.6330 0.6330 0.6327
2463.914120 0.6322 0.6320 0.6320 0.6320 0.6320
2468.581216 0.6320 0.6320 0.6320 0.6320 0.6313
2473.248311 0.6303 0.6300 0.6300 0.6300 0.6300
2477.915407 0.6300 0.6300 0.6296 0.6291 0.6290
2482.582502 0.6290 0.6290 0.6290 0.6283 0.6273
2487.249597 0.6270 0.6270 0.6270 0.6270 0.6266
2491.916693 0.6261 0.6260 0.6260 0.6256 0.6251
2496.583788 0.6250 0.6250 0.6242 0.6232 0.6230
2501.250884 0.6230 0.6226 0.6221 0.6220 0.6220
2505.917979 0.6212 0.6202 0.6200 0.6200 0.6196
2510.585074 0.6191 0.6190 0.6190 0.6182 0.6172
2515.252170 0.6166 0.6161 0.6160 0.6160 0.6152
2519.919265 0.6142 0.6140 0.6140 0.6140 0.6140
2524.586361 0.6140 0.6140 0.6136 0.6131 0.6130
2529.253456 0.6130 0.6122 0.6112 0.6106 0.6101
2533.920551 0.6096 0.6091 0.6082 0.6072 0.6066
2538.587647 0.6061 0.6052 0.6042 0.6040 0.6040
2543.254742 0.6036 0.6031 0.6022 0.6012 0.6010
2547.921838 0.6010 0.5998 0.5982 0.5967 0.5952
2552.588933 0.5946 0.5941 0.5927 0.5912 0.5906
2557.256028 0.5901 0.5892 0.5881 0.5867 0.5852
2561.923124 0.5837 0.5822 0.5816 0.5811 0.5801
2566.590219 0.5791 0.5790 0.5790 0.5790 0.5790
2571.257315 0.5799 0.5809 0.5814 0.5819 0.5842
2575.924410 0.5867 0.5874 0.5879 0.5893 0.5908
2580.591506 0.5923 0.5938 0.5967 0.5997 0.6004
2585.258601 0.6009 0.6019 0.6029 0.6043 0.6058
2589.925696 0.6060 0.6060 0.6064 0.6069 0.6070
2594.592792 0.6070 0.6070 0.6070 0.6070 0.6070
2599.259887 0.6070 0.6070 0.6065 0.6060 0.6051
2603.926983 0.6041 0.6040 0.6040 0.6040 0.6040
2608.594078 0.6035 0.6030 0.6021 0.6011 0.6010
2613.261173 0.6010 0.6005 0.6000 0.6000 0.6000
2617.928269 0.5991 0.5981 0.5980 0.5980 0.5975
2622.595364 0.5970 0.5970 0.5970 0.5961 0.5951
2627.262460 0.5950 0.5950 0.5945 0.5940 0.5935
2631.929555 0.5930 0.5930 0.5930 0.5920 0.5910
2636.596650 0.5910 0.5910 0.5895 0.5880 0.5880
2641.263746 0.5880 0.5875 0.5870 0.5870 0.5870
2645.930841 0.5870 0.5870 0.5860 0.5850 0.5835
2650.597937 0.5820 0.5815 0.5810 0.5810 0.5810
2655.265032 0.5800 0.5790 0.5790 0.5790 0.5785
2659.932127 0.5780 0.5775 0.5770 0.5770 0.5770
2664.599223 0.5760 0.5750 0.5750 0.5750 0.5750
2669.266318 0.5750 0.5750 0.5750 0.5750 0.5750
2673.933414 0.5745 0.5740 0.5740 0.5740 0.5740
2678.600509 0.5740 0.5740 0.5740 0.5730 0.5720
2683.267604 0.5720 0.5720 0.5720 0.5720 0.5720
2687.934700 0.5720 0.5715 0.5709 0.5699 0.5690
2692.601795 0.5685 0.5679 0.5669 0.5660 0.5660
2697.268891 0.5660 0.5655 0.5650 0.5650 0.5650
2701.935986 0.5650 0.5650 0.5650 0.5650 0.5650
2706.603081 0.5650 0.5650 0.5650 0.5650 0.5650
2711.270177 0.5650 0.5650 0.5650 0.5650 0.5650
2715.937272 0.5649 0.5639 0.5630 0.5630 0.5630
2720.604368 0.5630 0.5630 0.5630 0.5630 0.5630
2725.271463 0.5630 0.5630 0.5629 0.5624 0.5620
2729.938559 0.5620 0.5620 0.5620 0.5619 0.5614
2734.605654 0.5610 0.5610 0.5609 0.5599 0.5590
2739.272749 0.5590 0.5589 0.5584 0.5580 0.5580
2743.939845 0.5579 0.5569 0.5560 0.5560 0.5559
2748.606940 0.5554 0.5550 0.5550 0.5550 0.5550
2753.274036 0.5550 0.5550 0.5549 0.5539 0.5529
2757.941131 0.5524 0.5519 0.5509 0.5500 0.5500
2762.608226 0.5499 0.5494 0.5488 0.5478 0.5469
2767.275322 0.5464 0.5459 0.5454 0.5448 0.5438
2771.942417 0.5429 0.5424 0.5420 0.5420 0.5418
2776.609513 0.5408 0.5399 0.5394 0.5390 0.5390
2781.276608 0.5388 0.5378 0.5369 0.5364 0.5360
2785.943703 0.5360 0.5358 0.5348 0.5339 0.5334
2790.610799 0.5330 0.5330 0.5328 0.5318 0.5309
2795.277894 0.5304 0.5299 0.5294 0.5288 0.5278
2799.944990 0.5270 0.5270 0.5269 0.5264 0.5258
2804.612085 0.5248 0.5239 0.5234 0.5228 0.5218
2809.279180 0.5209 0.5204 0.5198 0.5188 0.5180
2813.946276 0.5180 0.5179 0.5174 0.5168 0.5158
2818.613371 0.5149 0.5144 0.5140 0.5140 0.5139
2823.280467 0.5134 0.5127 0.5117 0.5109 0.5104
2827.947562 0.5093 0.5068 0.5049 0.5044 0.5036
2832.614657 0.5021 0.5009 0.5004 0.5000 0.5000
2837.281753 0.4992 0.4962 0.4937 0.4927 0.4914
2841.948848 0.4894 0.4877 0.4867 0.4853 0.4828
2846.615944 0.4806 0.4791 0.4776 0.4761 0.4741
2851.283039 0.4711 0.4686 0.4671 0.4651 0.4621
2855.950135 0.4596 0.4580 0.4568 0.4563 0.4557
2860.617230 0.4547 0.4529 0.4494 0.4468 0.4463
2865.284325 0.4450 0.4420 0.4394 0.4374 0.4352
2869.951421 0.4327 0.4305 0.4290 0.4269 0.4234
2874.618516 0.4200 0.4170 0.4138 0.4103 0.4065
2879.285612 0.4019 0.3988 0.3983 0.3977 0.3967
2883.952707 0.3958 0.3953 0.3957 0.3977 0.4002
2888.619802 0.4037 0.4074 0.4114 0.4157 0.4207
2893.286898 0.4256 0.4301 0.4345 0.4385 0.4430
2897.953993 0.4486 0.4541 0.4596 0.4664 0.4754
2902.621089 0.4836 0.4906 0.4963 0.4998 0.5041
2907.288184 0.5096 0.5132 0.5137 0.5140 0.5140
2911.955279 0.5140 0.5140 0.5138 0.5133 0.5130
2916.622375 0.5130 0.5126 0.5116 0.5110 0.5110
2921.289470 0.5110 0.5110 0.5108 0.5103 0.5100
2925.956566 0.5100 0.5100 0.5100 0.5096 0.5086
2930.623661 0.5080 0.5080 0.5078 0.5073 0.5070
2935.290756 0.5070 0.5066 0.5056 0.5050 0.5050
2939.957852 0.5048 0.5043 0.5036 0.5026 0.5018
2944.624947 0.5013 0.5008 0.5003 0.5000 0.5000
2949.292043 0.4996 0.4985 0.4978 0.4973 0.4970
2953.959138 0.4970 0.4970 0.4970 0.4965 0.4955
2958.626233 0.4950 0.4950 0.4955 0.4965 0.4970
2963.293329 0.4970 0.4970 0.4970 0.4972 0.4977
2967.960424 0.4980 0.4980 0.4985 0.4995 0.5000
2972.627520 0.5000 0.5000 0.5000 0.4995 0.4985
2977.294615 0.4973 0.4958 0.4948 0.4943 0.4933
2981.961710 0.4918 0.4905 0.4895 0.4890 0.4890
2986.628806 0.4888 0.4882 0.4880 0.4880 0.4875
2991.295901 0.4865 0.4860 0.4860 0.4857 0.4852
2995.962997 0.4850 0.4850 0.4850 0.4850 0.4847
3000.630092 0.4842 0.4840 0.4840 0.4840 0.4840
3005.297188 0.4832 0.4817 0.4805 0.4795 0.4787
3009.964283 0.4782 0.4775 0.4765 0.4749 0.4729
3014.631378 0.4712 0.4697 0.4687 0.4682 0.4675
3019.298474 0.4665 0.4657 0.4652 0.4645 0.4635
3023.965569 0.4627 0.4622 0.4620 0.4620 0.4614
3028.632665 0.4604 0.4597 0.4592 0.4584 0.4574
3033.299760 0.4567 0.4562 0.4554 0.4544 0.4537
3037.966855 0.4532 0.4527 0.4522 0.4520 0.4520
3042.633951 0.4514 0.4504 0.4497 0.4492 0.4484
3047.301046 0.4474 0.4467 0.4462 0.4454 0.4444
3051.968142 0.4437 0.4432 0.4421 0.4406 0.4391
3056.635237 0.4376 0.4367 0.4362 0.4354 0.4344
3061.302332 0.4337 0.4332 0.4321 0.4306 0.4294
3065.969428 0.4284 0.4277 0.4272 0.4264 0.4254
3070.636523 0.4234 0.4209 0.4194 0.4184 0.4177
3075.303619 0.4172 0.4164 0.4154 0.4147 0.4142
3079.970714 0.4130 0.4115 0.4094 0.4069 0.4057
3084.637809 0.4052 0.4050 0.4050 0.4047 0.4042
3089.304905 0.4030 0.4015 0.4003 0.3993 0.3987
3093.972000 0.3982 0.3973 0.3963 0.3950 0.3935
3098.639096 0.3920 0.3905 0.3897 0.3892 0.3880
3103.306191 0.3865 0.3846 0.3826 0.3813 0.3803
3107.973286 0.3797 0.3792 0.3783 0.3773 0.3763
3112.640382 0.3753 0.3733 0.3708 0.3690 0.3675
3117.307477 0.3660 0.3644 0.3629 0.3614 0.3606
3121.974573 0.3601 0.3589 0.3574 0.3559 0.3544
3126.641668 0.3529 0.3514 0.3496 0.3476 0.3463
3131.308764 0.3453 0.3432 0.3407 0.3389 0.3374
3135.975859 0.3359 0.3344 0.3329 0.3314 0.3295
3140.642954 0.3275 0.3259 0.3244 0.3233 0.3223
3145.310050 0.3205 0.3185 0.3173 0.3163 0.3156
3149.977145 0.3151 0.3139 0.3124 0.3105 0.3085
3154.644241 0.3061 0.3036 0.3026 0.3021 0.3012
3159.311336 0.3002 0.2988 0.2973 0.2951 0.2926
3163.978431 0.2908 0.2893 0.2871 0.2846 0.2836
3168.645527 0.2831 0.2822 0.2812 0.2802 0.2792
3173.312622 0.2766 0.2736 0.2722 0.2712 0.2698
3177.979718 0.2683 0.2664 0.2644 0.2628 0.2613
3182.646813 0.2594 0.2574 0.2550 0.2525 0.2516
3187.313908 0.2511 0.2506 0.2501 0.2492 0.2482
3191.981004 0.2456 0.2425 0.2403 0.2383 0.2372
3196.648099 0.2362 0.2352 0.2342 0.2332 0.2322
3201.315195 0.2303 0.2283 0.2268 0.2253 0.2242
3205.982290 0.2232 0.2218 0.2203 0.2183 0.2163
3210.649385 0.2147 0.2132 0.2117 0.2102 0.2074
3215.316481 0.2044 0.2031 0.2021 0.2011 0.2001
3219.983576 0.1996 0.1991 0.1964 0.1934 0.1917
3224.650672 0.1902 0.1883 0.1863 0.1834 0.1804
3229.317767 0.1774 0.1744 0.1709 0.1674 0.1643
3233.984862 0.1613 0.1583 0.1553 0.1532 0.1512
3238.651958 0.1488 0.1463 0.1456 0.1451 0.1450
3243.319053 0.1450 0.1454 0.1459 0.1460 0.1460
3247.986149 0.1474 0.1489 0.1513 0.1538 0.1563
3252.653244 0.1588 0.1631 0.1676 0.1707 0.1737
3257.320339 0.1758 0.1778 0.1794 0.1809 0.1851
3261.987435 0.1896 0.1932 0.1967 0.1998 0.2028
3266.654530 0.2063 0.2098 0.2138 0.2178 0.2199
3271.321626 0.2219 0.2248 0.2278 0.2299 0.2319
3275.988721 0.2329 0.2339 0.2345 0.2350 0.2350
3280.655817 0.2350 0.2364 0.2379 0.2385 0.2390
3285.322912 0.2433 0.2479 0.2490 0.2500 0.2510
3289.990007 0.2520 0.2559 0.2599 0.2639 0.2679
3294.657103 0.2724 0.2769 0.2804 0.2839 0.2869
3299.324198 0.2899 0.3012 0.3127 0.3218 0.3308
3303.991294 0.3453 0.3600 0.3725 0.3850 0.3965
3308.658389 0.4080 0.4175 0.4270 0.4380 0.4490
3313.325484 0.4590 0.4690 0.4800 0.4910 0.4965
3317.992580 0.5020 0.5080 0.5140 0.5190 0.5240
3322.659675 0.5301 0.5362 0.5432 0.5500 0.5515
3327.326771 0.5531 0.5571 0.5610 0.5620 0.5631
3331.993866 0.5676 0.5721 0.5751 0.5781 0.5816
3336.660961 0.5850 0.5865 0.5880 0.5895 0.5911
3341.328057 0.5941 0.5971 0.5991 0.6011 0.6026
3345.995152 0.6041 0.6056 0.6071 0.6086 0.6102
3350.662248 0.6132 0.6161 0.6181 0.6201 0.6216
3355.329343 0.6231 0.6246 0.6261 0.6276 0.6291
3359.996438 0.6306 0.6320 0.6325 0.6332 0.6357
3364.663534 0.6383 0.6418 0.6451 0.6466 0.6482
3369.330629 0.6502 0.6521 0.6536 0.6552 0.6572
3373.997725 0.6591 0.6606 0.6621 0.6636 0.6651
3378.664820 0.6667 0.6681 0.6691 0.6701 0.6711
3383.331915 0.6721 0.6731 0.6741 0.6746 0.6751
3387.999011 0.6761 0.6770 0.6770 0.6770 0.6770
3392.666106 0.6771 0.6776 0.6781 0.6791 0.6799
3397.333202 0.6789 0.6780 0.6780 0.6781 0.6791
3402.000297 0.6800 0.6800 0.6799 0.6789 0.6780
3406.667393 0.6780 0.6780 0.6780 0.6780 0.6780
3411.334488 0.6780 0.6780 0.6779 0.6774 0.6770
3416.001583 0.6770 0.6770 0.6770 0.6770 0.6770
3420.668679 0.6770 0.6770 0.6770 0.6770 0.6770
3425.335774 0.6770 0.6770 0.6770 0.6768 0.6758
3430.002870 0.6750 0.6750 0.6749 0.6744 0.6738
3434.669965 0.6728 0.6720 0.6720 0.6719 0.6714
3439.337060 0.6707 0.6692 0.6679 0.6674 0.6667
3444.004156 0.6652 0.6638 0.6628 0.6619 0.6614
3448.671251 0.6608 0.6598 0.6589 0.6584 0.6578
3453.338347 0.6568 0.6558 0.6548 0.6537 0.6522
3458.005442 0.6504 0.6479 0.6459 0.6454 0.6447
3462.672537 0.6432 0.6417 0.6402 0.6389 0.6384
3467.339633 0.6377 0.6362 0.6344 0.6319 0.6299
3472.006728 0.6294 0.6286 0.6271 0.6260 0.6260
3476.673824 0.6259 0.6254 0.6246 0.6231 0.6217
3481.340919 0.6207 0.6199 0.6194 0.6186 0.6171
3486.008014 0.6157 0.6147 0.6139 0.6134 0.6125
3490.675110 0.6105 0.6087 0.6077 0.6070 0.6070
3495.342205 0.6069 0.6064 0.6056 0.6041 0.6027
3500.009301 0.6017 0.6006 0.5991 0.5976 0.5961
3504.676396 0.5949 0.5944 0.5940 0.5940 0.5939
3509.343491 0.5933 0.5925 0.5910 0.5897 0.5887
3514.010587 0.5878 0.5873 0.5870 0.5870 0.5867
3518.677682 0.5857 0.5848 0.5843 0.5837 0.5827
3523.344778 0.5818 0.5813 0.5807 0.5797 0.5788
3528.011873 0.5783 0.5775 0.5760 0.5750 0.5750
3532.678968 0.5748 0.5743 0.5737 0.5727 0.5718
3537.346064 0.5713 0.5707 0.5697 0.5690 0.5690
3542.013159 0.5688 0.5683 0.5677 0.5667 0.5658
3546.680255 0.5653 0.5650 0.5650 0.5646 0.5636
3551.347350 0.5630 0.5630 0.5628 0.5623 0.5620
3556.014446 0.5620 0.5620 0.5620 0.5620 0.5620
3560.681541 0.5618 0.5613 0.5610 0.5610 0.5606
3565.348636 0.5596 0.5588 0.5583 0.5580 0.5580
3570.015732 0.5576 0.5566 0.5558 0.5553 0.5546
3574.682827 0.5536 0.5530 0.5530 0.5528 0.5523
3579.349923 0.5520 0.5520 0.5516 0.5506 0.5498
3584.017018 0.5493 0.5490 0.5490 0.5486 0.5476
3588.684113 0.5470 0.5470 0.5468 0.5463 0.5460
3593.351209 0.5460 0.5458 0.5453 0.5450 0.5450
3598.018304 0.5446 0.5436 0.5430 0.5430 0.5430
3602.685400 0.5430 0.5428 0.5423 0.5415 0.5405
3607.352495 0.5398 0.5393 0.5385 0.5375 0.5368
3612.019590 0.5363 0.5360 0.5360 0.5355 0.5345
3616.686686 0.5340 0.5340 0.5338 0.5333 0.5330
3621.353781 0.5330 0.5330 0.5330 0.5330 0.5330
3626.020877 0.5325 0.5315 0.5310 0.5310 0.5310
3630.687972 0.5310 0.5308 0.5303 0.5300 0.5300
3635.355067 0.5298 0.5293 0.5285 0.5275 0.5268
3640.022163 0.5262 0.5255 0.5245 0.5240 0.5240
3644.689258 0.5237 0.5232 0.5230 0.5230 0.5230
3649.356354 0.5230 0.5225 0.5215 0.5210 0.5210
3654.023449 0.5210 0.5210 0.5207 0.5202 0.5200
3658.690544 0.5200 0.5200 0.5200 0.5200 0.5200
3663.357640 0.5192 0.5177 0.5170 0.5170 0.5165
3668.024735 0.5155 0.5150 0.5150 0.5147 0.5142
3672.691831 0.5140 0.5140 0.5140 0.5140 0.5137
3677.358926 0.5132 0.5130 0.5130 0.5130 0.5130
3682.026022 0.5124 0.5114 0.5110 0.5110 0.5110
3686.693117 0.5110 0.5107 0.5102 0.5100 0.5100
3691.360212 0.5100 0.5100 0.5094 0.5084 0.5080
3696.027308 0.5080 0.5080 0.5080 0.5077 0.5072
3700.694403 0.5070 0.5070 0.5070 0.5070 0.5064
3705.361499 0.5054 0.5050 0.5050 0.5050 0.5050
3710.028594 0.5047 0.5042 0.5034 0.5024 0.5020
3714.695689 0.5020 0.5017 0.5012 0.5010 0.5010
3719.362785 0.5010 0.5010 0.5007 0.5002 0.5000
3724.029880 0.5000 0.4994 0.4984 0.4980 0.4980
3728.696976 0.4980 0.4980 0.4977 0.4972 0.4970
3733.364071 0.4970 0.4963 0.4953 0.4947 0.4942
3738.031166 0.4940 0.4940 0.4933 0.4923 0.4920
3742.698262 0.4920 0.4917 0.4912 0.4910 0.4910
3747.365357 0.4910 0.4910 0.4903 0.4893 0.4890
3752.032453 0.4890 0.4890 0.4890 0.4887 0.4882
3756.699548 0.4873 0.4863 0.4860 0.4860 0.4860
3761.366643 0.4860 0.4860 0.4860 0.4857 0.4852
3766.033739 0.4850 0.4850 0.4850 0.4850 0.4850
3770.700834 0.4850 0.4839 0.4824 0.4820 0.4820
3775.367930 0.4820 0.4820 0.4816 0.4811 0.4810
3780.035025 0.4810 0.4810 0.4810 0.4803 0.4793
3784.702120 0.4790 0.4790
##END=
